time,seconds_elapsed,z,y,x
1761470489105527000,0.075527099609375,-0.387768314486742,-0.06972732395976781,-0.9754165195003152
1761470489115502800,0.0855029296875,-0.41936698332130906,-0.053310442166030404,-1.0365585320748387
1761470489125478700,0.095478759765625,-0.4082639900267124,-0.022919833946973084,-1.014888186732307
1761470489135455700,0.105455810546875,-0.4104594542443752,0.01372442783936858,-0.9229871710177511
1761470489145431800,0.115431884765625,-0.4925625679135322,-0.0955425870873034,-0.6717291946269571
1761470489155409000,0.125408935546875,-0.5823644193917512,-0.17029139247089622,-0.40841216632574795
1761470489165384700,0.135384765625,-0.5889852988362312,-0.03371566098853945,-0.3541974687963724
1761470489175361000,0.145361083984375,-0.578659135133028,-0.025132395429909228,-0.3654458619110286
1761470489185337900,0.155337890625,-0.6829559604316949,-0.1590359850935638,-0.4263539195992052
1761470489195314000,0.16531396484375,-0.7374608730792999,-0.29857714225277304,-0.4650007533796131
1761470489205289700,0.175289794921875,-0.828887110888958,-0.3773383981481194,-0.4801116671413183
1761470489215266800,0.185266845703125,-0.784153066149354,-0.4285889851748943,-0.5304715889386833
1761470489225243000,0.195242919921875,-0.6822773305177688,-0.4389918673761189,-0.4489483209840953
1761470489235218700,0.20521875,-0.516453731110692,-0.44226708965450523,-0.30964331066831946
1761470489245195800,0.21519580078125,-0.265080676972866,-0.44994653824120756,-0.13598083432912825
1761470489255171800,0.225171875,-0.1350298172146082,-0.4088137328639626,-0.06314677652567624
1761470489265148000,0.23514794921875,-0.16645079139471053,-0.3007692454695701,-0.13498627033382654
1761470489275124700,0.245124755859375,-0.027621581897139546,-0.11526683986335992,-0.26770371895283457
1761470489285101000,0.25510107421875,0.2449129182130098,-0.007110124266147613,-0.07917115187048912
1761470489295076900,0.265076904296875,0.19309213008284568,-0.11698854908943175,0.4771744446456432
1761470489305054000,0.275053955078125,0.17557225548326968,0.15320640215724707,0.5635328776717186
1761470489315029800,0.28502978515625,0.0007084405303001403,0.21475158870518207,0.5666144770741462
1761470489325006800,0.2950068359375,-0.0835813695281744,0.22753975860774517,0.4668891974747181
1761470489334983000,0.30498291015625,-0.14057868351340294,0.21279577846229075,0.2792965415909886
1761470489344958700,0.314958740234375,-0.08264905711412429,0.2029837017610669,0.12556553103774784
1761470489354935800,0.324935791015625,0.12442775917947292,0.2263632621742785,0.12811872265189886
1761470489364911900,0.334911865234375,0.30888474738597865,0.1797606470838189,0.18231442321985958
1761470489374888000,0.344887939453125,0.41024551923274993,0.23053660233616827,0.2187482571259141
1761470489384864800,0.35486474609375,0.6302560513794422,0.37664661649167536,0.12239391526430844
1761470489394840800,0.3648408203125,0.5995692366927862,0.4233211277745664,0.10471475844979286
1761470489404817000,0.37481689453125,0.41508536047935485,0.3761505035378039,0.24043869540840385
1761470489414793700,0.384793701171875,0.4299754710972309,0.4011696478515863,0.1300409228861332
1761470489424769800,0.394769775390625,0.5126040699452161,0.44282326223254204,-0.27774492823481556
1761470489434745900,0.404745849609375,0.15870704540014266,0.37365649476498364,-0.7474617503508925
1761470489444723000,0.414722900390625,-0.39559447806775566,0.4972320210292935,-0.8790256450206041
1761470489454698800,0.42469873046875,-0.10364216078221797,0.840545107717812,-1.1826271913066506
1761470489464675000,0.434675048828125,0.11505261259078979,0.6560954260349273,-1.118108249644935
1761470489474652000,0.44465185546875,0.5309335073620081,0.20692250251471994,-1.1055094648346304
1761470489484627700,0.454627685546875,0.7711340101003646,0.013299334295094013,-0.8989948124684393
1761470489494604800,0.464604736328125,1.1243518202096223,0.15229688609689473,-0.6334108621485531
1761470489504580900,0.474580810546875,1.9023241518974303,0.4170183743685484,-0.7088966035045683
1761470489514557000,0.484556884765625,2.4886422773510217,0.4980643802002072,-0.7700580514319241
1761470489524533800,0.49453369140625,3.977736925768852,1.4577537537366152,-1.4869735646106301
1761470489534509800,0.504509765625,5.012135503330827,2.436171793140471,-2.132869522061944
1761470489544486000,0.51448583984375,5.189078462645411,2.597638366381824,-1.9785047436498104
1761470489554463000,0.524462890625,4.438253665602207,2.569543906275928,-1.6842855043455958
1761470489564438800,0.534438720703125,3.6823692470818754,2.2805340721830722,-1.4316365850530564
1761470489574414800,0.544414794921875,3.428873209440708,1.7730466145992279,-1.093638555907458
1761470489584392000,0.554391845703125,3.093002255451679,0.9192335906378925,-0.48421464548073706
1761470489594367700,0.56436767578125,2.7010411654502153,0.2084317380338907,0.261007070858404
1761470489604343800,0.57434375,0.8254384317398071,0.013353987091779708,1.2262820625074207
1761470489614320600,0.584320556640625,-2.0487831256210804,-0.6787716604843735,1.8375532813012598
1761470489624297000,0.594296875,-2.986997457191348,-1.7021932092189789,1.2401798010870813
1761470489634272800,0.604272705078125,-4.319548375722766,-3.0315903398945925,0.476278153393045
1761470489644249900,0.614249755859375,-4.985612238064408,-4.071143523740768,0.37361433612369
1761470489654226000,0.624225830078125,-4.301780663841963,-4.110661295136809,1.4702761123098431
1761470489664203000,0.634203125,-3.3050416625887156,-2.6809283517479896,2.7011396573886275
1761470489674178800,0.6441787109375,-0.7904214788943529,0.16250621848739683,1.5961267438992857
1761470489684154600,0.654154541015625,1.5353040264070033,1.3442144683182238,0.811354084546864
1761470489694132000,0.664132080078125,1.846049891489744,1.2541966360017656,0.7739058859664947
1761470489704107800,0.674107666015625,0.8100871333509683,0.2147255044158548,0.9356335943620652
1761470489714083800,0.684083740234375,0.16656886481642721,-0.6332600555010139,0.5676081642866134
1761470489724060700,0.694060791015625,0.5635971750795841,-0.7373159116506576,-0.0942079774826765
1761470489734037000,0.704037109375,-0.12807400672733782,-0.9138499979034066,-0.2455352878950536
1761470489744012800,0.7140126953125,-2.1596242579966782,-1.5619734221458434,0.13442257203646005
1761470489753990000,0.723989990234375,-2.6480858203321693,-1.8434424854703246,0.08307203176654875
1761470489763965200,0.733965087890625,-0.9778396549940108,-1.4444471129179,-0.8024775351300835
1761470489773941200,0.743941162109375,1.0442436797499657,-0.7119010460175573,-1.6306168963916599
1761470489783918000,0.75391796875,1.2886229294776916,-0.7937738580621778,-1.1517617321174591
1761470489793894100,0.76389404296875,1.4076397695243357,-0.8806910209495574,-0.6119686264734715
1761470489803870200,0.7738701171875,1.1028981132924556,-0.8956022474206984,0.03714833885096013
1761470489813847000,0.783846923828125,0.90995503629148,-0.6008866029016673,0.16924115276560187
1761470489823823000,0.793822998046875,1.046980411237478,0.286387522765249,-0.09551051144860684
1761470489833799200,0.803799072265625,1.3998352332532404,1.1264753882348537,-0.24725794696919617
1761470489843776300,0.8137763671875,0.8895072915464639,0.8979745295099913,-0.23185732954591512
1761470489853752000,0.823751953125,-1.8482184677004814,-0.056807572699943555,-0.2171875836804509
1761470489863729200,0.833729248046875,-4.963526078462601,-0.29250377715583886,-0.4684656530112028
1761470489873705200,0.843705322265625,-6.995330596753955,0.6197095959890634,-0.8359927781756967
1761470489883681000,0.853680908203125,-8.39140735425651,1.1010182178299874,-0.35225144929513336
1761470489893658000,0.863658203125,-9.567775192907453,0.6608025808125734,0.6445853132441639
1761470489903634200,0.87363427734375,-10.929523564350605,0.20397373571172356,1.469537130510807
1761470489913610200,0.8836103515625,-13.41349492728114,0.20277531970739363,1.8972009636647997
1761470489923587000,0.893587158203125,-15.554980886518955,0.5427991555921733,2.8544053885176774
1761470489933563100,0.903563232421875,-15.949210505974293,0.5039309341460466,3.783753399804234
1761470489943539200,0.913539306640625,-13.845088354969024,0.6799515179187059,3.8186607547953724
1761470489953516300,0.923516357421875,-10.715712471365928,1.386329854992032,2.400304507075995
1761470489963492000,0.9334921875,-8.716093481886386,1.8882456499233842,0.9013672406882047
1761470489973468200,0.94346826171875,-7.925525872519612,2.037847305586934,0.7074021271631121
1761470489983445200,0.9534453125,-8.717676367163657,1.4716259194836019,1.7321185380138455
1761470489993421000,0.963421142578125,-9.106120973476767,1.144214750804007,2.7245976898655293
1761470490003397000,0.973397216796875,-8.400534663563967,0.4550333399862051,3.895211787295341
1761470490013374200,0.983374267578125,-6.672482205945253,-0.8375514788597822,4.806913374993205
1761470490023350300,0.993350341796875,-3.8409120418310163,-0.831385941967368,4.019809934605658
1761470490033327000,1.0033271484375,-0.5506418319165707,0.1993213798612356,2.076669203673303
1761470490043303200,1.01330322265625,2.1685312025517223,0.5950055820390582,1.0296814128469676
1761470490053279200,1.023279296875,4.157093960487843,0.17961714695990086,0.848962953581661
1761470490063256300,1.03325634765625,5.3823050327628845,0.07934080934897064,0.9376705800823867
1761470490073232100,1.043232177734375,6.185800512763858,0.6257322903446852,0.7551109499298035
1761470490083208200,1.053208251953125,6.740358056819439,1.321199357303232,0.536174695951119
1761470490093185300,1.063185302734375,6.908493440300226,1.8594595542915164,0.5135158875605091
1761470490103161000,1.0731611328125,6.709205378186702,2.0672262525454164,0.8073235869217663
1761470490113137200,1.08313720703125,6.5471069367825985,1.952617438199371,0.8236895422458648
1761470490123114000,1.093114013671875,6.668213442584872,1.825648908495903,0.40623716037422414
1761470490133090300,1.10309033203125,7.234362640234828,1.3421791630983353,-0.37966552592143415
1761470490143066000,1.113066162109375,7.826922874948382,0.5337233572762459,-0.9255394858490675
1761470490153043200,1.123043212890625,8.199867714312672,-0.10933226218260823,-1.1526206139691173
1761470490163019300,1.133019287109375,8.260934469693899,-0.555862708370015,-1.295214582827687
1761470490172995000,1.1429951171875,8.239629815858603,-1.0124738921321927,-1.1854235440269112
1761470490182972200,1.15297216796875,8.11753429901898,-1.2517283461920916,-0.9115354373507201
1761470490192948200,1.1629482421875,7.830542234489322,-1.2180860427007079,-0.7351483583532273
1761470490202925300,1.17292529296875,7.736057778152823,-1.0484371859170496,-0.9638055766835808
1761470490212901000,1.182901123046875,7.974399501281976,-0.9002159517612308,-1.4632289702773094
1761470490222877200,1.192877197265625,8.224912723720074,-0.8017910872358829,-1.8828937675014137
1761470490232854000,1.20285400390625,8.539559103372692,-0.6404392264153808,-2.2981800573803484
1761470490242830300,1.212830322265625,8.80702404513359,-0.38679998091123996,-2.58141116194129
1761470490252806100,1.22280615234375,8.756347166341543,-0.14401976387798784,-2.613026197388768
1761470490262783000,1.232782958984375,8.069486015164852,0.18371347636282442,-2.429001609250158
1761470490272759300,1.24275927734375,7.292879711133241,0.42134617443978784,-2.01858482510373
1761470490282735000,1.252735107421875,6.803361333221197,0.6789500857912003,-1.687364181138575
1761470490292712200,1.262712158203125,6.41577071338892,0.8641991011582314,-1.5632311671219765
1761470490302688000,1.27268798828125,5.833023432159424,0.9380338604368269,-1.5760162682846188
1761470490312664300,1.282664306640625,5.4152358269840475,0.8917340276852249,-1.8688456606656312
1761470490322641200,1.29264111328125,4.700931957608461,0.48441024111807346,-2.5846540893852707
1761470490332617200,1.3026171875,3.2817361903250215,0.20897753534838556,-3.346162193006277
1761470490342593300,1.31259326171875,1.8538515051513909,0.020134148751199243,-3.580110649612546
1761470490352570000,1.322570068359375,-0.4239712622463703,-0.11523542181178927,-2.737422100125253
1761470490362546200,1.332546142578125,-3.905995631638169,0.3506444524899125,-1.0901013216920197
1761470490372523000,1.34252294921875,-8.090863149714469,0.6283659998491407,0.8110887116089462
1761470490382499300,1.352499267578125,-11.555139680969715,-0.12297785263210534,1.9109860356502233
1761470490392475100,1.36247509765625,-12.542471971452235,-1.1936442598834633,1.20604343046844
1761470490402452200,1.3724521484375,-12.522435730117559,-2.1189356892555953,-0.7013532023876905
1761470490412428000,1.382427978515625,-13.971279616689682,-2.8460417570590972,-1.147098197285831
1761470490422404000,1.392404052734375,-16.778160745227336,-3.9463752805605528,0.3928600846678018
1761470490432381200,1.402381103515625,-18.093146780973672,-5.131504810076952,2.864468517370522
1761470490442357000,1.41235693359375,-16.243239045011997,-5.590139973947405,5.444031128835678
1761470490452333300,1.422333251953125,-13.304667472815513,-5.819404072129726,7.3177762519806615
1761470490462310100,1.43231005859375,-10.272170247209072,-6.787354201272129,7.92084794383645
1761470490472286200,1.4422861328125,-6.290785904848575,-7.5558455879092215,6.774206550407409
1761470490482262000,1.452261962890625,-2.7328461705118414,-7.525009720140695,4.714979187661409
1761470490492239400,1.4622392578125,-0.5854957031548023,-6.665760204213857,2.998530366335809
1761470490502215200,1.472215087890625,0.13474398601055143,-5.633012316468358,2.2443042364165184
1761470490512191000,1.48219091796875,0.10208499446809291,-3.842111773009598,1.7990034781545399
1761470490522168000,1.49216796875,0.7709913867592811,-0.855733909021318,1.5104840579271315
1761470490532144000,1.50214404296875,2.0642863997012375,1.9279680039808154,1.4771289008140562
1761470490542120200,1.5121201171875,3.2308810323566197,3.88229940649122,1.3680514171101152
1761470490552097000,1.522096923828125,4.26456064799428,4.890198976445197,0.6258982945613563
1761470490562073300,1.5320732421875,5.212517205899953,5.130098450410366,-0.7313789228171109
1761470490572050200,1.54205029296875,5.751852046382427,4.483029503656923,-1.978492468690127
1761470490582026200,1.552026123046875,5.740401262563466,2.710942966261506,-2.772831559419632
1761470490592002000,1.562001953125,5.426207302853465,1.3302597388543187,-3.405786348363757
1761470490601979100,1.571979248046875,5.397089929440617,0.9759455118104815,-4.3329026550754906
1761470490611955200,1.581955078125,5.9084384463667865,0.730337158679217,-5.220853657090664
1761470490621931000,1.591930908203125,6.646113838979601,0.22402780496403574,-5.382634118586778
1761470490631908000,1.601908203125,7.357551213008165,-0.30982348954081534,-4.663824754485487
1761470490641884200,1.61188427734375,8.193338020282983,-0.8289496547311543,-3.4756308689624067
1761470490651860200,1.621860107421875,8.726797246730326,-1.276715926323831,-2.4483624355413016
1761470490661837000,1.631837158203125,8.879804034662246,-1.0193073914140462,-1.859866966048628
1761470490671813400,1.6418134765625,8.819990494212508,-0.37808790134117004,-1.5356437797553837
1761470490681789200,1.6517890625,8.548427469483018,0.092180709438771,-1.2712801650106906
1761470490691766300,1.661766357421875,8.23017692785859,0.41022564548850055,-0.8806785267941654
1761470490701742000,1.6717421875,8.089085034126043,0.9496667228244244,-0.5115659590691328
1761470490711718100,1.68171826171875,8.276980180087685,1.572785323539376,-0.5064012697823346
1761470490721695200,1.6916953125,8.383899755105375,1.895987350091338,-0.6621848289512098
1761470490731671000,1.701671142578125,8.611302735590934,1.9994092922516167,-0.8401189912602305
1761470490741648100,1.711648193359375,9.124659669730066,1.9966832282885907,-1.0435006062977015
1761470490751624200,1.721624267578125,9.283717428264021,1.9668200049445033,-1.4333435351014137
1761470490761600300,1.731600341796875,8.617337924101948,2.0833814146630463,-1.719848692896962
1761470490771577900,1.741577880859375,7.441128490883112,2.2837267307445406,-1.750025366104394
1761470490781554000,1.751553955078125,6.043087155309319,2.605020293326676,-1.5542511573307216
1761470490791530000,1.761530029296875,4.679955220553278,2.8961501883134244,-1.2687033002600072
1761470490801507000,1.771507080078125,3.4300697257488966,2.984334083200991,-1.310157300415635
1761470490811483000,1.78148291015625,1.6948685654193163,2.8187781948193904,-1.5183477770395577
1761470490821459000,1.791458984375,-0.12654314389824867,2.495886841651797,-1.9120275075271724
1761470490831436000,1.80143603515625,-1.3085317450404166,2.160905529978871,-3.3468998596310615
1761470490841411800,1.811411865234375,-3.688637075304985,1.3029688502162695,-4.252151248276234
1761470490851388000,1.821387939453125,-9.004331162562966,-0.35048078636080027,-3.244527864915132
1761470490861364700,1.83136474609375,-15.770466050195694,-1.631404685768485,-1.9932371794879435
1761470490871341000,1.841341064453125,-19.93814453306198,-1.3279077689006924,-1.5153443574398755
1761470490881316900,1.85131689453125,-20.01731217780113,-1.287376436547935,-0.39228170025795694
1761470490891294000,1.8612939453125,-18.126016784918306,-2.7543551147475838,1.1341405160352587
1761470490901270000,1.87127001953125,-16.239769323074817,-4.187846826148033,3.183973735231161
1761470490911247000,1.8812470703125,-14.370476503163575,-4.870047876559197,5.717075332033634
1761470490921223000,1.891222900390625,-11.854170558339357,-4.906861941954493,7.904876467722654
1761470490931198700,1.90119873046875,-10.35988360197544,-6.112326695752143,9.895205066287517
1761470490941176000,1.911176025390625,-9.422906703245639,-6.5828124564141035,9.993032987833022
1761470490951151900,1.92115185546875,-8.526202778193355,-6.87616470362544,9.28562180058062
1761470490961128000,1.9311279296875,-6.1659963266193865,-5.942904779592156,7.1552400036811825
1761470490971104800,1.941104736328125,-3.3220407281845805,-3.987622944489121,4.2229552566692234
1761470490981081000,1.9510810546875,-0.9982733712136744,-2.311725621521473,1.0316397803731263
1761470490991057000,1.961056884765625,0.26029578078389165,-1.1482502899304032,-0.7178583469867705
1761470491001034000,1.971033935546875,0.7662164274424315,0.1233151217624545,-1.576352222240716
1761470491011010000,1.981010009765625,1.70254509139657,1.6271173638381062,-2.209120110310614
1761470491020985900,1.99098583984375,2.509166594463587,2.7824197642371056,-2.722494287845492
1761470491030963000,2.000962890625,3.414038628402352,3.690829616913199,-3.2216438329339026
1761470491040938800,2.010938720703125,4.903855161353945,3.7770433807715773,-4.259447250503301
1761470491050915000,2.0209150390625,5.952863863548636,2.4704557555362583,-5.076036605355143
1761470491060892000,2.030891845703125,6.266299113845824,0.7213248540535568,-4.706642444209754
1761470491070868000,2.040867919921875,6.288237389409542,-0.6616939766943455,-3.3146970874235033
1761470491080844000,2.050843994140625,6.548814325222373,-1.2849907104551792,-1.7701082230597733
1761470491090821000,2.060821044921875,7.53962101381719,-1.2053870854515583,-1.3393497848913072
1761470491100797000,2.070796875,8.996849282374978,-1.35498253057003,-1.6391121914058924
1761470491110773800,2.080773681640625,9.554259877774118,-2.3966066754713653,-1.6932506088286636
1761470491120749800,2.090749755859375,8.80357361241877,-3.3857810866892337,-1.1333742078378797
1761470491130726000,2.100725830078125,7.325267484518885,-3.4256294052138925,-0.1902986999720335
1761470491140703000,2.110702880859375,6.282658127972483,-2.213857367965579,0.9931108738839626
1761470491150678800,2.1206787109375,5.475930826443434,-0.9966853713698685,2.614214238129556
1761470491160655000,2.130655029296875,4.781566167768836,-0.30691713710743934,4.140910595189035
1761470491170632000,2.1406318359375,4.544233913943171,0.06389171314146369,5.008867441445589
1761470491180608000,2.15060791015625,4.950449154746532,0.2829178921596147,5.166379724103212
1761470491190584000,2.160583984375,5.749998527470231,0.4654886464944109,4.42877330507338
1761470491200561000,2.170560791015625,6.118855220738053,0.5695105638418346,3.2871956247746943
1761470491210537000,2.180536865234375,5.852924648937583,0.5126281814731657,2.3453997814558445
1761470491220512800,2.1905126953125,5.1913446540117265,0.5875066776510328,1.783646919068694
1761470491230489900,2.20048974609375,4.1506724030077455,0.8374192307822406,1.7790391330122948
1761470491240466000,2.2104658203125,3.223511380371451,0.8447259735990316,2.2599207616128028
1761470491250442000,2.22044189453125,2.835456065636873,0.6713639415111392,2.731679464820027
1761470491260418800,2.230418701171875,2.6117496015816926,0.22966840466689317,3.019989333949983
1761470491270395000,2.240394775390625,2.6585335645884274,-0.3711847708892077,3.107678138796985
1761470491280371000,2.250370849609375,3.393205099210143,-1.101951772353053,3.2976626582533117
1761470491290347800,2.26034765625,3.650362581968307,-1.6822607205197213,4.075087000669539
1761470491300323800,2.27032373046875,2.5791081456959244,-1.6077577065907418,4.34725471329391
1761470491310301000,2.280301025390625,-0.3027542818069458,-0.6124282068092376,3.9587744511455294
1761470491320277000,2.290277099609375,-4.627422484761476,1.0925644238699226,3.777529995244741
1761470491330252800,2.300252685546875,-8.90191649774909,2.853761245395243,2.9586224265784025
1761470491340230000,2.31022998046875,-12.2345879255414,3.4107240970268844,1.5530807983770967
1761470491350206000,2.3202060546875,-15.688648183208704,1.885648765297979,1.0629418043486774
1761470491360181800,2.330181640625,-19.190786535346508,2.285754291049391,0.6412042194385081
1761470491370158800,2.340158935546875,-22.32307801413536,4.345425744301081,0.08863163865506649
1761470491380135000,2.350135009765625,-24.421385341382024,3.0954990407034755,2.8471272142082453
1761470491390111000,2.360111083984375,-23.75899578363895,-1.4806803096853196,6.515427019405364
1761470491400087800,2.370087890625,-20.627812558352947,-1.0782761516027153,5.73573385527432
1761470491410064000,2.38006396484375,-16.45871134920716,1.9597369148157535,1.588829134237021
1761470491420040000,2.3900400390625,-12.210756968098877,2.3210877624981103,-2.025980049921572
1761470491430017000,2.40001708984375,-10.049458054888248,-0.02690451966896653,-1.72910766576007
1761470491439992800,2.409992919921875,-8.433571840769051,-4.36084952340424,-0.8059006414465606
1761470491449969000,2.419968994140625,-5.448619041147828,-6.583140957716107,-0.7693037259332836
1761470491459946000,2.429946044921875,-2.327906356471777,-6.186370421606302,-1.438150935383141
1761470491469921800,2.439921875,0.2913198646008968,-5.480899262505769,-2.2831375326797363
1761470491479897900,2.44989794921875,2.923250084424019,-4.6239714675247665,-2.8200410543620587
1761470491489875000,2.459875,6.080439857625961,-2.7836396614208816,-3.4070535918205973
1761470491499851000,2.46985107421875,8.564658473315834,-0.5829786057673394,-3.540049857380986
1761470491509827800,2.479827880859375,9.627231005960702,1.3243731650337576,-2.8849858202204106
1761470491519804000,2.489803955078125,9.557665302303432,2.74004806471467,-1.7171268667176365
1761470491529780000,2.499780029296875,8.61401667072475,3.403007823561132,-0.6176031252291053
1761470491539757000,2.509757080078125,7.1013856638967985,3.2708369029089805,0.15661073070801793
1761470491549732900,2.51973291015625,5.939519813328981,2.4554081162691115,0.9262816094532609
1761470491559709000,2.529708984375,5.838634842300415,1.0480638225600123,1.2490126574926077
1761470491569686000,2.53968603515625,7.319610481670498,0.09988894572854042,0.6776255591891706
1761470491579661800,2.549661865234375,9.469396651741862,-0.372765245013684,-0.6866754924114793
1761470491589638000,2.559637939453125,10.464881269019841,-0.9490932337854057,-1.4164692649289965
1761470491599615000,2.569614990234375,9.979170466697216,-1.2372786728180944,-1.428302033802867
1761470491609591000,2.579591064453125,8.558927820709346,-0.8260911234948783,-0.6927010363113135
1761470491619566800,2.58956689453125,6.917930546209216,-0.2902401065401733,0.3301536723207682
1761470491629544000,2.5995439453125,5.745461468562484,0.1664518508406356,0.7362628954663872
1761470491639520000,2.60952001953125,5.276414800792932,0.46631121492367233,0.8933722233463078
1761470491649495800,2.619495849609375,5.333549477422237,0.45384248623382295,1.0482459741938859
1761470491659473000,2.629472900390625,6.023495735132694,0.5924312745716422,0.7372101862538606
1761470491669449000,2.639448974609375,7.463767023670673,1.0288227501910179,0.047487480766745284
1761470491679425000,2.649425048828125,9.602937691703438,1.3916491503186523,-0.6760269648861139
1761470491689401900,2.65940185546875,11.231851145178078,1.4120309902206063,-1.4656218567632138
1761470491699378000,2.6693779296875,11.747141093206405,1.6945327575936913,-1.8297601432070134
1761470491709354800,2.679354736328125,11.275896038609742,2.499672789931297,-1.501386705366522
1761470491719331000,2.6893310546875,9.803239314773679,2.906029777292907,-0.5511294327704236
1761470491729307000,2.699306884765625,7.967288207972049,2.727551278974116,0.7113650394447147
1761470491739283700,2.70928369140625,6.73461162212193,2.594059338851273,1.888037706261128
1761470491749260000,2.719260009765625,6.4581403670847415,2.4556053924068806,2.5016101877346633
1761470491759235800,2.72923583984375,6.514719163396954,2.0748034098014236,2.4989187566936013
1761470491769212000,2.7392119140625,6.601400837028026,1.3701461974322795,2.3250199873805046
1761470491779188200,2.749188232421875,6.690874187204241,0.39072745655328034,1.802377776893228
1761470491789164000,2.7591640625,6.179922560641169,-0.19747341390699147,0.6676454324446618
1761470491799140900,2.769140869140625,4.205435674330592,-0.3125803139682859,0.10976751179471611
1761470491809117200,2.7791171875,0.6903022315412759,-0.6177304779358208,0.3124959966856986
1761470491819093000,2.789093017578125,-3.236143482929468,-1.2460099685452877,-0.17184784639896825
1761470491829070000,2.799070068359375,-7.065391390451788,-1.7586106774896382,-1.7728946389079092
1761470491839046000,2.8090458984375,-10.22435284950137,-2.511635614925623,-2.7334771618917584
1761470491849022200,2.819022216796875,-12.904141383564472,-3.9991669595494863,-1.6727005727529525
1761470491858999000,2.8289990234375,-16.711991698271035,-5.6193046936333175,-0.37972748524174094
1761470491868975000,2.83897509765625,-23.075376390862463,-5.6111599656224245,0.7989023069918155
1761470491878952000,2.848951904296875,-31.211214992856977,-5.707954452466964,3.476134142309427
1761470491888928000,2.858927978515625,-35.61255025590658,-2.163034797092527,4.495673004391789
1761470491898904000,2.868904052734375,-33.97656934826374,3.8496287245109677,3.544498068961501
1761470491908881000,2.878880859375,-31.94764710741043,4.029795322047174,2.674905145935714
1761470491918857200,2.888857177734375,-28.89250550379753,1.6262205611288547,0.7060651064056903
1761470491928833000,2.8988330078125,-24.0303401971817,-0.7647029541395605,-2.177034242480993
1761470491938810000,2.90881005859375,-18.692879099273682,-1.8887468774437903,-3.201676565182209
1761470491948786000,2.918785888671875,-14.123421312224863,-1.895273064342141,-2.131574075423926
1761470491958762000,2.928761962890625,-10.264252313691378,-1.865907415256649,-0.6922242125798016
1761470491968739000,2.938739013671875,-5.432447074025869,-1.2522241668850183,-0.4863691566335037
1761470491978715000,2.94871484375,-0.15939736575186253,-0.3285802124589681,-1.1138278689119965
1761470491988691200,2.958691162109375,4.239276569133997,0.7526438291639089,-1.8994303301520645
1761470491998668000,2.96866796875,7.390128956007957,2.065094355083257,-2.6769609094217417
1761470492008644000,2.97864404296875,8.97560191168487,3.1611756279677152,-2.9424764706805346
1761470492018620000,2.988619873046875,9.137421536147594,2.8607220243185756,-2.1355516007527706
1761470492028597000,2.998596923828125,9.704028998959064,0.8818589687503874,-1.007117333535105
1761470492038573000,3.008572998046875,11.111544849842787,-1.0124342907741666,-0.4917926064543426
1761470492048548900,3.018548828125,12.363830391526221,-1.7998522039383649,-1.0825161272600292
1761470492058526000,3.02852587890625,12.93368779604435,-1.8378472958117722,-2.267736403799802
1761470492068502000,3.038501953125,12.51089025375247,-2.034640764630586,-2.648536486709118
1761470492078479000,3.04847900390625,11.640760447371004,-2.9142449401915074,-2.0688336877420546
1761470492088455000,3.058454833984375,10.846640698480606,-3.652947922286391,-1.8269979850172995
1761470492098431200,3.06843115234375,10.55136362068653,-3.455913776579499,-1.94805480645895
1761470492108408000,3.078407958984375,10.564501334679127,-2.8367402602285146,-1.9789874126002192
1761470492118384000,3.088384033203125,10.411440770733355,-2.598757141278684,-1.7866390866219997
1761470492128360000,3.09835986328125,10.17623851467371,-2.158721463938057,-1.50578260223791
1761470492138337000,3.1083369140625,10.340138452541828,-1.2257922331638633,-1.1614059049058705
1761470492148313000,3.11831298828125,11.676500453794002,-0.4591778924450278,-1.2531316371187566
1761470492158289000,3.128288818359375,13.54080028772354,-0.1964927323065698,-1.8261644568026065
1761470492168266000,3.138265869140625,14.471050508546828,0.2189016941219568,-2.2682921379864216
1761470492178242000,3.148241943359375,14.617772517120837,1.2743309308834374,-2.3278303686261177
1761470492188218000,3.158218017578125,14.23505096462965,2.684830912144482,-2.0457640700608493
1761470492198195000,3.16819482421875,12.847681245195865,3.1448546077638864,-0.9833435861725359
1761470492208171000,3.1781708984375,11.23843169261217,3.0612293990939854,0.5436354602858424
1761470492218147000,3.18814697265625,10.381521433287858,3.3103415225625037,1.874208502873033
1761470492228124200,3.198124267578125,10.196689766550064,3.40443785636425,2.205685313556343
1761470492238100000,3.208099853515625,10.425497353136539,3.276232916733622,1.738754468896985
1761470492248076000,3.218075927734375,10.807575931549072,3.097414811196923,0.6553015722434967
1761470492258053000,3.22805322265625,10.697775832659005,2.725938875341415,-0.4773390606228262
1761470492268029000,3.23802880859375,9.651991937729715,2.2525737598508595,-1.1927911501854658
1761470492278006000,3.248006103515625,7.466038475733995,2.089964154054224,-1.4319120409935713
1761470492287982000,3.257982177734375,4.920825000855326,1.9878369278796015,-1.5026234075546263
1761470492297958100,3.267958251953125,3.0144524503499266,1.954911686616391,-1.3067819787636399
1761470492307935000,3.27793505859375,1.713091619852185,1.8063170160382984,-1.4585261994138359
1761470492317911000,3.2879111328125,0.09394260454475879,1.2859199541293085,-2.2411204918138683
1761470492327887000,3.29788720703125,-5.119586993268132,-0.1441983353152871,-3.278945390562713
1761470492337864200,3.3078642578125,-13.965429721617697,-1.3640344365537165,-3.7647266277730465
1761470492347840000,3.317840087890625,-20.533966399919986,-1.4052338774263857,-3.2409730950430036
1761470492357816000,3.327816162109375,-23.43823355145454,-2.810167310601473,-1.4556941908583043
1761470492367793200,3.337793212890625,-24.109662155699727,-5.479338589060307,-0.6106411772619933
1761470492377769000,3.34776904296875,-24.972797573149204,-9.529543954190611,-0.20539195021288467
1761470492387745000,3.3577451171875,-23.88270399637222,-6.281728153645992,-6.166647484004497
1761470492397722000,3.36772216796875,-22.41071421201229,-1.2491729626208543,-10.566460652053356
1761470492407698200,3.3776982421875,-23.706496365594862,-1.9733187193140387,-8.718969329583645
1761470492417674000,3.387674072265625,-24.2473521320343,-3.366334335680306,-6.040384910613298
1761470492427650800,3.39765087890625,-22.017819640552997,-5.6037523197144266,-3.353146645066142
1761470492437627100,3.407627197265625,-17.95666676495075,-7.077350708314776,-2.332893935626
1761470492447603000,3.41760302734375,-12.95737028492689,-6.677105774092674,-4.235458472150564
1761470492457580000,3.427580078125,-6.947941069069504,-7.401658065760135,-5.95785392692089
1761470492467556000,3.43755615234375,-1.5609925944149494,-7.0687541448831555,-5.641272195291519
1761470492477533200,3.447533203125,0.5844850648075341,-4.342623838622868,-2.879932920745015
1761470492487509000,3.457509033203125,-2.832028429275751,-0.5282622423261404,-0.4136944906428456
1761470492497485000,3.467485107421875,-7.0793591255277395,3.0272783219143746,0.5898942303746938
1761470492507462100,3.477462158203125,-8.632318051090836,4.1836096269696945,1.428417184615135
1761470492517438000,3.48743798828125,-7.9883274888694284,4.06571273086369,1.5885468101643025
1761470492527414000,3.4974140625,-5.035484230214357,2.9461680186748502,1.776842645881325
1761470492537390800,3.507390869140625,-0.8735475058704614,1.1025164204984903,2.1031249566614627
1761470492547367200,3.5173671875,2.4533587825238703,-0.6877598535820841,2.6316291910499334
1761470492557343000,3.527343017578125,4.744046876713633,-1.6293877929881213,3.264113439872861
1761470492567320000,3.537320068359375,6.827885533624887,-1.45595883314386,3.5195226176589727
1761470492577296100,3.547296142578125,8.903850680682062,-0.6882534823179245,3.7566435668215155
1761470492587272000,3.55727197265625,10.459126066493987,-0.39160043999552724,4.1765930262058975
1761470492597249000,3.5672490234375,11.977677695542573,-0.41073914796859023,4.16746863950789
1761470492607224800,3.577224853515625,13.449367035651207,-0.24723960759490726,3.492369822317362
1761470492617201200,3.587201171875,14.56668764204979,0.09992226347625255,2.5440762875422833
1761470492627178000,3.597177978515625,15.348880806303024,1.1896633735537527,1.343544606232643
1761470492637154000,3.607154052734375,15.5656390586555,2.0256769753217694,0.7235631344996393
1761470492647131000,3.617130859375,15.526339313924312,2.5712916267260906,1.2993201184503733
1761470492657107200,3.627107177734375,15.585549043262004,3.171599406826496,1.86362588019073
1761470492667083000,3.6370830078125,15.799911924910544,3.6846088427022097,1.4957519143499434
1761470492677060000,3.64706005859375,15.901318289464712,4.1282264701828355,0.2506981505509466
1761470492687036200,3.6570361328125,15.501670152091979,4.711188563206791,-1.3598295322097838
1761470492697012000,3.667011962890625,14.985729046678543,5.391324790042638,-2.3108757266938684
1761470492706989000,3.676989013671875,14.429722472858428,6.049321665784716,-2.4506731967017052
1761470492716964900,3.68696484375,13.558456355923413,6.451513642421364,-2.3009186885640025
1761470492726941200,3.696941162109375,12.652357410538196,6.622180590206384,-1.715589281886816
1761470492736918000,3.70691796875,12.334139017617701,6.610899317735433,-0.4805395371645689
1761470492746894000,3.71689404296875,11.86591360310316,6.172604931104183,0.45069238817244767
1761470492756870100,3.7268701171875,10.909677877151966,5.473298139852285,0.2808092842414975
1761470492766847200,3.73684716796875,10.027776968955994,4.983665195649862,-0.9458052981559186
1761470492776823000,3.746822998046875,8.10413997991681,4.497550488701463,-2.3431131318233906
1761470492786798800,3.756798828125,4.106991666713356,4.287340635079145,-2.9027111542642117
1761470492796776000,3.76677587890625,-0.34823417647778987,4.43991867620498,-2.2931395789951083
1761470492806752000,3.776751953125,-4.058530125883221,3.7089106325268744,-0.8491822954207658
1761470492816728000,3.78672802734375,-7.875969522190093,1.45877988191396,0.6284427914123982
1761470492826705000,3.796704833984375,-12.501630257976055,-1.6868436643958091,0.8403695319551974
1761470492836681200,3.80668115234375,-17.514356712937353,-4.854781626105308,-1.3394482768297196
1761470492846657000,3.816656982421875,-21.001843439388274,-7.337150230014323,-3.1891777336150406
1761470492856634000,3.826634033203125,-22.629077561473846,-10.809749183934926,-2.1706286132223904
1761470492866610200,3.836610107421875,-22.927066820836068,-11.371491086536645,-1.9384663093805312
1761470492876587300,3.846587158203125,-21.327824283003807,-6.413966294315457,-3.6914649922072886
1761470492886563000,3.85656298828125,-20.421146660947798,-4.970719204837083,-2.1569335576079784
1761470492896539000,3.866538818359375,-20.45775643594265,-5.954075577425956,1.474125773475319
1761470492906516000,3.876515869140625,-19.788249739670754,-6.936438262802362,3.7073049508959053
1761470492916492000,3.886491943359375,-17.24893701326847,-6.796880739030241,3.9979184207931158
1761470492926468000,3.896468017578125,-12.175345462977885,-4.961191498035192,1.7261382945604622
1761470492936445000,3.90644482421875,-6.443792108258605,-2.986848111848533,-0.601486066632159
1761470492946421200,3.916421142578125,-3.7087013736903667,-1.5384564990885554,-0.9935229618161916
1761470492956397000,3.92639697265625,-3.1264947752088306,-0.06914046398252248,-0.40497941539809107
1761470492966374100,3.9363740234375,-2.53825474178195,2.106804375826567,0.30398913909783587
1761470492976350000,3.946349853515625,-2.8743244332134723,4.301541886650026,0.4724744867937639
1761470492986326000,3.956325927734375,-3.5911563597619534,5.10845535840094,0.22610532362414523
1761470492996303000,3.96630322265625,-4.615489470383524,5.146250543788075,-0.6418577879764139
1761470493006279000,3.97627880859375,-5.055712194728851,4.443969412900508,-1.04232863990888
1761470493016255200,3.986255126953125,-3.5440661072850226,2.5998776697412134,0.06357395242918282
1761470493026232000,3.996232177734375,-0.16209727236032484,-0.03997853904189542,1.5280153307035564
1761470493036208000,4.0062080078125,3.4955981367141007,-2.6972806438729164,1.851266457094252
1761470493046184000,4.016183837890625,6.4345794587552545,-3.9190500512614843,1.3780198534168302
1761470493056161000,4.0261611328125,8.014252788242697,-3.8096097255945205,1.078035255518928
1761470493066137000,4.03613720703125,8.470772567394375,-3.4685029167786237,1.4339163665533066
1761470493076114000,4.046114013671875,9.086187023472785,-3.1281302674561737,2.327612926483154
1761470493086090000,4.056090087890625,10.109460395908355,-2.80363557074517,2.9643901963248847
1761470493096066000,4.066066162109375,11.060000540566444,-2.2304007987484336,3.0265032458886503
1761470493106042000,4.0760419921875,11.679142492735386,-1.3425780992880463,3.2986332568511365
1761470493116019000,4.08601904296875,11.8711368907094,-0.7622126716937869,3.616026012602448
1761470493125995300,4.095995361328125,11.735538333696127,-0.5081020823508501,3.6506183102950454
1761470493135972000,4.10597216796875,11.707726782184839,-0.42610564392656086,3.678645842644572
1761470493145948000,4.115947998046875,11.858925059390067,-0.4714634465876966,3.0607556441023944
1761470493155924000,4.125924072265625,11.62834987860918,-0.588218625312671,1.6858147597394884
1761470493165901000,4.135901123046875,11.10159511823654,-0.6600473785310983,-0.28334433741075915
1761470493175877000,4.145877197265625,10.163114829206465,-0.6398299354106187,-2.2039171348400415
1761470493185853000,4.15585302734375,8.739796429035067,-0.06722063836846501,-3.5850185876592993
1761470493195830000,4.165830078125,7.609035910826921,0.9058295538593083,-3.942672334389388
1761470493205806000,4.17580615234375,7.043640161892771,1.7047792801894246,-3.230984492731094
1761470493215782000,4.185781982421875,6.890415347295999,2.1082916917748746,-1.7493663176737724
1761470493225759000,4.195759033203125,7.037516126054525,2.29399049673602,-0.254619050321728
1761470493235735000,4.205735107421875,7.199710429048538,2.0606085879713296,0.5982581906268373
1761470493245711000,4.215711181640625,7.468979205361008,1.5667000122763215,0.8505245768751949
1761470493255688000,4.22568798828125,7.364810974878072,1.158200971384719,0.2755611909875646
1761470493265664000,4.2356640625,6.785178610798716,1.013127972126752,-0.8666104731488973
1761470493275640000,4.24564013671875,5.686680193769932,0.5476273794662208,-1.9801826137341558
1761470493285617200,4.2556171875,3.5736002448052164,0.05440751668773591,-3.1404768310710787
1761470493295593000,4.265593017578125,0.47198915096223354,0.40421602981016036,-4.172787496443092
1761470493305570000,4.275570068359375,-3.3292695103943344,0.8954156388074159,-3.8077909857347607
1761470493315546000,4.285546142578125,-8.369075110939145,0.8415368952341378,-1.8362743474066257
1761470493325522000,4.29552197265625,-14.614171862280369,-0.17266645103916525,1.0862896544493734
1761470493335499000,4.3054990234375,-20.133917280530927,-2.19127451088801,3.742309921042621
1761470493345475000,4.31547509765625,-23.38120525780916,-4.47356200260967,4.986940271797776
1761470493355451100,4.325451171875,-24.1343009223938,-6.38770138772428,4.867594638188183
1761470493365428000,4.335427978515625,-22.854857324671745,-2.2974419523641467,1.4233480646573007
1761470493375404000,4.345404052734375,-20.586893687987327,3.3460300910592076,-0.6773789640169591
1761470493385380000,4.355380126953125,-21.18676278440952,2.1871672216996547,1.6560842228643595
1761470493395357200,4.365357177734375,-23.658932650387285,0.3202951991945505,4.025409069786965
1761470493405333000,4.3753330078125,-23.412395345842835,-0.8223790441691875,4.0216643303006885
1761470493415309000,4.38530908203125,-20.335474456620215,-2.1028534462437034,2.6882559181571004
1761470493425286100,4.3952861328125,-16.21901996503472,-3.1339322317332026,0.3173922808272764
1761470493435262000,4.405261962890625,-10.465787277948856,-4.3438402286753055,-2.0654357158668337
1761470493445239000,4.415239013671875,-4.179727817100286,-4.889275724120438,-2.522017600469291
1761470493455215000,4.425215087890625,0.7228770519316196,-3.8896167437672613,-1.4275591064810753
1761470493465191200,4.435191162109375,4.008142000904679,-2.0365967210039497,0.5135899391774088
1761470493475168000,4.44516796875,6.389127621135115,-0.3989619086742401,2.4249773221701383
1761470493485144000,4.45514404296875,7.536919353643059,1.2193994633868337,2.6536039992317555
1761470493495120100,4.4651201171875,7.157208088883757,2.9385823858514426,1.2074275052379817
1761470493505097200,4.47509716796875,5.525273241761327,3.3743431623518463,-0.6600903408899903
1761470493515073000,4.485072998046875,3.738715403681993,2.0256514024890957,-2.117153335883468
1761470493525049000,4.495049072265625,3.792413676121831,0.38298297990635033,-2.7342843866214155
1761470493535026200,4.505026123046875,6.109229898780584,-1.3676263235658406,-2.9680779449269172
1761470493545002000,4.515001953125,8.862167840206622,-2.8595009580910205,-3.3121731219038364
1761470493554978000,4.52497802734375,10.125579171538352,-3.0133523801535365,-3.1684125934839247
1761470493564955000,4.534954833984375,10.16860699688196,-2.5832822165101765,-2.2670704872369765
1761470493574931200,4.54493115234375,9.427188326087593,-2.4911940076604484,-1.0687320051226765
1761470493584907000,4.554906982421875,9.047505702900885,-2.2185917030110955,-0.33273024481050667
1761470493594884000,4.564884033203125,9.288816797229646,-1.7473472329363227,-0.146365413688682
1761470493604860200,4.574860107421875,9.964718747496605,-0.9801990776017308,0.03208477185107767
1761470493614837000,4.5848369140625,10.517802711868285,-0.10857581779211758,0.4069591910384595
1761470493624813000,4.59481298828125,10.659649807882309,0.6291156491726636,0.8322763149358332
1761470493634788900,4.604788818359375,10.880970838105679,0.9375631011199206,0.9826564076259732
1761470493644766200,4.61476611328125,11.488637456536292,1.1360207037586718,0.8270270161055028
1761470493654742000,4.624741943359375,11.860896067202091,1.493416603270173,0.3870442014632746
1761470493664718000,4.634718017578125,11.37174476903677,1.842530777452886,-0.5937439646054059
1761470493674695000,4.64469482421875,10.544987655913829,2.2456720176383853,-1.5890432153791187
1761470493684671000,4.6546708984375,10.10091000970602,2.7316093221932647,-2.3259138674803075
1761470493694647000,4.66464697265625,10.151213963532447,3.043865007317066,-2.7283482745707035
1761470493704623900,4.674623779296875,10.364524705779552,3.2685543449297545,-2.6410636666104197
1761470493714600200,4.68460009765625,10.152622661286593,3.5493604143008586,-1.751167668007314
1761470493724576000,4.694575927734375,9.357800317084788,3.587969546419382,-0.19804982555545866
1761470493734553000,4.704552978515625,8.196091118383407,3.189835028479993,1.3641362894929945
1761470493744529000,4.71452880859375,6.88438951113522,2.516927876114845,2.177977660810947
1761470493754505200,4.724505126953125,6.165436354649066,1.4981624826230109,1.62459763610214
1761470493764482000,4.73448193359375,5.552320238640904,0.3825614665586501,-0.6881471723992377
1761470493774458600,4.744458740234375,4.305837245756387,-0.31000527584850784,-3.5233515282973644
1761470493784434400,4.754434326171875,1.3969284058958291,-0.8513296827130019,-5.83161181179583
1761470493794411800,4.764411865234375,-3.6930578143566843,-0.35559805630929764,-7.0126125709444285
1761470493804387600,4.7743876953125,-9.666748777356743,1.2763060303486884,-5.844578260874748
1761470493814364700,4.78436474609375,-15.017293228721618,1.476132729383558,-3.2532813724741336
1761470493824340500,4.794340576171875,-19.914917971253395,0.5362981031350791,-0.33401856758799403
1761470493834316800,4.80431689453125,-24.42032618771791,0.19952493960931897,0.45366789685189723
1761470493844293600,4.814293701171875,-29.114308180058,-1.2493445197954773,-0.13550879637058824
1761470493854269700,4.824269775390625,-31.844544460332393,-3.5709243035942313,-1.9992875655680893
1761470493864245800,4.834245849609375,-29.07733132531643,2.653388895176351,-7.416460498094558
1761470493874222800,4.844222900390625,-25.490333254277704,6.6836512502133845,-6.709048726320266
1761470493884198700,4.85419873046875,-26.235853515172003,4.437142489489912,-0.38218101587370035
1761470493894174500,4.864174560546875,-26.625949395823476,2.9075299527227876,2.4111495800867675
1761470493904151600,4.874151611328125,-22.58824286226034,0.9345580010198056,2.1893103712081907
1761470493914127600,4.884127685546875,-17.092157721060513,-1.8019032912492752,0.5188767204739153
1761470493924103700,4.894103759765625,-11.986888591480254,-2.582414493764937,-2.5101854161173103
1761470493934080500,4.90408056640625,-7.1324191000640385,-1.2784738759070635,-4.493104907469451
1761470493944056800,4.914056884765625,-2.7842437647938727,0.9547294130414724,-3.60766734957993
1761470493954032600,4.92403271484375,1.093294418644905,3.2485800629153845,-0.8782095063321292
1761470493964009700,4.934009765625,4.53118095562458,4.552292717236281,1.6671441076695919
1761470493973985800,4.94398583984375,7.0497086681514975,5.425639732098579,2.531616618941724
1761470493983963000,4.953962890625,8.122187093260884,6.134454356408119,1.9670314557380972
1761470493993938700,4.963938720703125,7.927163702854513,5.997111586076021,1.35855425157696
1761470494003914500,4.97391455078125,7.716511950683593,4.452807968394458,1.7467684101350605
1761470494013891600,4.9838916015625,8.41228004641533,2.561973178760707,1.9993483558446168
1761470494023867600,4.99386767578125,9.432952880963683,1.330302847343683,1.2953646588228642
1761470494033843700,5.00384375,10.380103383183478,0.7070061135828495,0.32732743591889735
1761470494043820500,5.013820556640625,11.542342158716917,0.38695933619141576,0.42837030092291534
1761470494053796900,5.023796875,11.750284651929139,-0.1440793851107359,1.1112638636428862
1761470494063772700,5.033772705078125,11.386387042373418,-0.07071545821428299,1.4767586061969398
1761470494073749800,5.043749755859375,11.12313825700283,0.8134653776124119,1.2702160429105163
1761470494083725600,5.0537255859375,10.471593918401002,1.9180805239558218,0.7606096204113215
1761470494093701600,5.06370166015625,9.636759297284483,2.8190754242002964,0.15885887496098874
1761470494103678700,5.0736787109375,9.146673348617552,3.683064243608713,-0.17256879935096947
1761470494113654500,5.083654541015625,9.409669620531798,4.494226897236705,-0.30936701447758824
1761470494123630800,5.093630859375,10.301648855149745,5.225313559108972,-0.5647225258477032
1761470494133607700,5.103607666015625,11.04667227243781,5.942084110859036,-0.7788985066220164
1761470494143583700,5.113583740234375,11.195794327890873,6.579404109275341,-0.7464443169366568
1761470494153559800,5.123559814453125,11.180666901385784,6.938375368344784,-0.6044735580103472
1761470494163537000,5.133536865234375,10.778892273378371,6.810494838362932,-0.812944860869646
1761470494173512700,5.1435126953125,10.131979686230421,6.482486872833967,-1.200190174395591
1761470494183489500,5.153489501953125,9.339498352196813,5.889103631299734,-1.5176369984216986
1761470494193465600,5.163465576171875,8.445576166817546,5.328829463163018,-1.8342827351979911
1761470494203441700,5.173441650390625,7.354280813035368,4.8186552507132285,-2.0971660482570527
1761470494213418800,5.183418701171875,5.950996900632977,4.294915454247594,-2.3587509920686482
1761470494223394600,5.19339453125,4.744752394634485,3.972869319732487,-2.5709242547184226
1761470494233371000,5.203370849609375,4.187277501827478,3.3305735787302253,-2.4037431032225487
1761470494243347700,5.21334765625,3.7678485591858624,1.533247386138141,-2.2156964199610054
1761470494253323500,5.223323486328125,2.2820652272731063,-0.557143322765082,-2.49365309125036
1761470494263299600,5.233299560546875,-1.1919821718901396,-1.3164955635264515,-3.165599874150753
1761470494273276700,5.243276611328125,-5.650158681580424,-1.0456289966285228,-2.8760826750576496
1761470494283252700,5.253252685546875,-10.191316841340065,-1.5274134192876516,-1.1872894840292632
1761470494293228500,5.263228515625,-13.94224407634139,-2.9051410117596386,0.19456570976674556
1761470494303205600,5.27320556640625,-16.44105294291973,-3.3068820297583934,-0.28070224367044866
1761470494313181700,5.283181640625,-20.415626436221597,-2.545332132822275,-0.5547543087366968
1761470494323157800,5.29315771484375,-26.12426127216816,-4.289287969754636,2.4227032397583126
1761470494333134600,5.303134521484375,-28.522213224768638,-4.56377301941067,4.401417388375103
1761470494343110700,5.313110595703125,-25.822711105453966,0.728553344002366,2.250213460460305
1761470494353086700,5.323086669921875,-22.47451828340292,3.4029145923197266,0.7532516588639467
1761470494363063600,5.3330634765625,-21.212084272670744,1.9358698631465434,1.201153028078377
1761470494373039600,5.34303955078125,-19.362859258276224,-0.9797574713140725,2.234021619594097
1761470494383016700,5.3530166015625,-15.113777918964624,-3.7241476568862795,2.5180051499575375
1761470494392992800,5.36299267578125,-10.404975958633422,-5.644712691134214,1.28780036104843
1761470494402968600,5.372968505859375,-6.38950931392908,-5.4792725380867715,-0.7821232408221811
1761470494412945700,5.382945556640625,-3.352846200814843,-3.3980677368104457,-2.5423025558680292
1761470494422921700,5.392921630859375,-1.2293909883081913,-0.7006655123844743,-3.8481124747291204
1761470494432897500,5.4028974609375,0.4232429479718208,2.2946815477401015,-3.8272318915247916
1761470494442874600,5.41287451171875,2.0594354525387284,4.417514536695182,-2.5631568355873227
1761470494452850700,5.4228505859375,3.715498778745532,5.282618331608176,-1.1428743690457195
1761470494462826800,5.43282666015625,5.25223020760715,5.156671400037408,0.2779868106992915
1761470494472803600,5.442803466796875,7.411252408057451,4.058922632332146,1.348685622382909
1761470494482779600,5.452779541015625,9.846879134535788,2.48866448918283,1.937798054730147
1761470494492755700,5.462755615234375,11.223749671787022,0.7617366516798734,2.166198667950928
1761470494502732800,5.47273291015625,11.502003134065866,-0.3164608817286789,1.2722133542075753
1761470494512708600,5.48270849609375,11.161415088427066,-0.47860652327537534,0.19336353090275077
1761470494522684700,5.4926845703125,9.93287048781514,-0.427884636297822,-0.4141825664207339
1761470494532661800,5.502661865234375,8.02825442558825,0.15182970697656273,-0.6614338644534349
1761470494542637600,5.512637451171875,6.559461391443014,0.9827014158114791,-0.5885033605381846
1761470494552614700,5.52261474609375,6.1119075935572384,2.096635156250745,-0.47136433359477664
1761470494562590700,5.5325908203125,6.250549756050109,3.2885189823329446,-0.19319588271826504
1761470494572566800,5.54256689453125,6.350398954290151,3.8760032289564608,0.31393216696865855
1761470494582543600,5.552543701171875,6.544373127904534,3.9321167458444832,0.8244479593977332
1761470494592519700,5.562519775390625,7.201220249089598,4.293550011113286,0.968545683882758
1761470494602495700,5.572495849609375,8.142125719439983,5.102441797199845,0.8106712899144738
1761470494612472800,5.582472900390625,9.211790256172417,5.744677624708414,0.29759558386951684
1761470494622448600,5.59244873046875,9.888997443819045,5.824890394586324,-0.35445867701582606
1761470494632424700,5.6024248046875,9.879825126326084,5.51818006862998,-0.88385891039595
1761470494642401800,5.61240185546875,9.290040786066651,5.399386515945196,-1.0028421404339372
1761470494652377600,5.622377685546875,8.55524767089188,5.5342818931251765,-0.4475318783149123
1761470494662353700,5.632353759765625,7.971011612409352,5.685916808182001,0.4774267389062792
1761470494672330500,5.64233056640625,7.70622261185944,5.662137873187661,1.156545459262654
1761470494682306800,5.652306884765625,8.117799671956897,5.5230935596346855,1.2144711401391775
1761470494692282600,5.66228271484375,8.65403596190214,5.071325943446159,0.4919523270606994
1761470494702259700,5.672259765625,8.979825666859746,4.334438486340642,-0.5049977596599609
1761470494712235800,5.68223583984375,9.171900144332646,3.7618005111932753,-0.9540792055044323
1761470494722211600,5.692211669921875,8.789365638846158,3.0987004670932885,-0.816844133330509
1761470494732188700,5.702188720703125,7.561660996189713,2.732197935736179,-0.5065325680118054
1761470494742164700,5.712164794921875,5.666044232976437,2.769432856892049,-0.23558453337550161
1761470494752141800,5.722141845703125,3.7662270954638717,2.4472945140488442,-0.15945216467902062
1761470494762117600,5.73211767578125,1.1802841353118418,1.9803020023301243,-0.5838027816317976
1761470494772093200,5.74209326171875,-4.301832686290145,2.136636765640974,-0.6683822222866117
1761470494782070000,5.752070068359375,-10.873491296005248,1.560928004746139,0.840695841300115
1761470494792046000,5.762046142578125,-15.645799221563339,-1.3596608976446092,3.3600203302279112
1761470494802022000,5.77202197265625,-18.8007093593955,-4.631344626641273,4.4282969197332855
1761470494811998700,5.781998779296875,-21.28221287090778,-6.17706717121005,2.60325006878376
1761470494821975000,5.79197509765625,-22.05458606741428,-3.587204991787672,-2.229012266999483
1761470494831950800,5.801950927734375,-22.101518498980997,-1.143334460838139,-5.193386388972401
1761470494841928000,5.811927978515625,-23.776470650053025,-1.0088216532349585,-4.635047572812438
1761470494851904000,5.821904052734375,-26.82070741329193,-1.6252888332366942,-3.218819423162937
1761470494861880000,5.831880126953125,-27.735446761250493,-1.8907669850945472,-1.9706626518473027
1761470494871857000,5.84185693359375,-27.13398542720079,-1.9425396962992847,-0.8449990183867514
1761470494881833000,5.8518330078125,-26.31007142854929,-0.636268297406286,-1.2084476420659571
1761470494891809000,5.86180908203125,-23.84477086381912,0.8621253636240959,-1.6696289102226496
1761470494901785900,5.871785888671875,-19.437641819798944,0.7703741316437721,-0.8756546342175453
1761470494911762000,5.881761962890625,-14.539813663649559,0.8676734992705285,0.29475349231138825
1761470494921738000,5.891738037109375,-9.951880308711528,2.0097128057315943,1.274336337710917
1761470494931715000,5.901715087890625,-5.461755586096644,3.6859719477489588,1.910221042627096
1761470494941691000,5.91169091796875,-1.464739959362149,5.634004250115156,2.4565295215144753
1761470494951668000,5.92166796875,1.8181582604795694,6.8224278527408835,3.455578261014819
1761470494961644000,5.93164404296875,4.646670790588855,5.966398467904329,4.538400385484099
1761470494971619800,5.941619873046875,7.362104054006934,3.736454180751741,4.9623243014574046
1761470494981597000,5.951596923828125,9.76707494545877,1.7209110614314673,4.236626639147103
1761470494991572700,5.96157275390625,11.735077730447053,0.7515322146601975,2.5532933209598063
1761470495001549000,5.971549072265625,13.375838858103752,0.7090661148525774,1.1634572114124893
1761470495011526000,5.98152587890625,14.292904603183269,0.8325412494823337,1.0669624381668865
1761470495021502000,5.991501953125,14.151910909128189,0.8475856738790869,1.6716075168192386
1761470495031478000,6.00147802734375,13.501101899063586,1.1787366136088966,2.1437904367879033
1761470495041455000,6.011455078125,12.958927451241015,1.8576926907494664,2.12767852929011
1761470495051431000,6.021430908203125,12.656665336865187,2.8911650933772326,2.3467292764939365
1761470495061407000,6.031406982421875,12.347671868407726,3.7113197394952175,3.060413114275038
1761470495071384000,6.041384033203125,11.804811191886662,4.194642185376584,3.6788878347069023
1761470495081360000,6.05135986328125,11.22830543539524,4.534493441173434,3.864569980794191
1761470495091336000,6.0613359375,11.2504225746572,4.518504137142003,3.170400844691694
1761470495101312800,6.071312744140625,11.351431464326382,4.514195041771233,2.0198070603750646
1761470495111289000,6.0812890625,10.98067039874196,4.810100480596721,0.8248500373926013
1761470495121266000,6.091265869140625,10.23049149838686,5.255730909204483,-0.09001864516721106
1761470495131242000,6.101241943359375,9.67852338630259,5.68625407731235,-0.5790962113760412
1761470495141218000,6.111218017578125,9.177249104145169,6.086992348009348,-0.7117728165280074
1761470495151195100,6.121195068359375,8.693505802503228,6.525083321022987,-0.362351110766083
1761470495161171000,6.1311708984375,8.711675080922246,6.750015527480841,0.38550785874146964
1761470495171146800,6.141146728515625,9.02217310872376,6.491673803374171,0.9047024495255201
1761470495181124000,6.1511240234375,8.886719513139129,6.162969672274589,1.0260828768983483
1761470495191100000,6.161099853515625,8.094438670113682,5.625393073636293,0.5447418871577829
1761470495201076000,6.171075927734375,6.731366941112279,4.986061150875687,-0.2781744056932628
1761470495211052800,6.181052734375,5.509539081534743,4.597815866526961,-0.8339351149935275
1761470495221029000,6.191029052734375,4.987400875046849,4.095487691402435,-0.6898758958879858
1761470495231005000,6.2010048828125,4.523187618783116,2.9582880800575015,-0.4543198579546064
1761470495240982000,6.21098193359375,2.0507167240321635,1.7380629795014857,-0.5725212534325197
1761470495250958000,6.2209580078125,-4.030661291226744,0.8203789563931524,-1.3885343792989848
1761470495260934000,6.230933837890625,-11.47933420614004,-0.38989962742701173,-1.840001843497157
1761470495270911000,6.240910888671875,-16.77759492803812,-2.13093285491094,-1.4905984771095215
1761470495280886800,6.25088671875,-19.435556245696542,-3.5991993809640404,-0.34733540100716054
1761470495290863000,6.260863037109375,-20.844735645878313,-3.960981605800986,0.8026457313038409
1761470495300840000,6.27083984375,-22.945444189047812,-5.309249733424187,3.187437319688499
1761470495310816000,6.28081591796875,-23.599030847132205,-5.6735857343971725,4.463775060349702
1761470495320792800,6.290792724609375,-21.871008784651757,-3.0574302990719673,2.9123712552741168
1761470495330769200,6.30076904296875,-19.994310072398186,-3.325754488010704,2.4386101262032986
1761470495340745000,6.310744873046875,-18.133765207087993,-6.222935188415646,3.128512252511084
1761470495350722000,6.32072216796875,-16.978633048689364,-8.352381165769696,3.0934865318372844
1761470495360698000,6.330697998046875,-14.560674080848694,-8.898432747286558,3.113228466400504
1761470495370674000,6.340673828125,-12.05532090719342,-7.18055272411406,2.1849628435231745
1761470495380651000,6.350651123046875,-10.493870047616959,-4.896552729386091,0.7324545161593705
1761470495390626800,6.360626708984375,-7.994406516522169,-3.4680224397853014,-0.5653211858605965
1761470495400603100,6.37060302734375,-5.847194580852985,-2.309940053278953,-1.9158765841707586
1761470495410580000,6.380580078125,-6.128846453398466,-0.42700273889675733,-3.3366455921202895
1761470495420556000,6.39055615234375,-7.484011939319968,2.1645440326116976,-4.094525276111066
1761470495430532000,6.400531982421875,-7.896399731278419,4.487471577757597,-3.8046947732850906
1761470495440509000,6.410509033203125,-6.296225465553999,6.457738216024637,-2.3054653920829296
1761470495450485000,6.420485107421875,-2.930038721650839,6.951393839871883,-0.5256925014359877
1761470495460460800,6.430460693359375,1.2525310408771038,5.564048670357465,-0.10376096485629677
1761470495470438000,6.44043798828125,5.299350855222344,4.113576013539731,-0.6692081517167389
1761470495480414000,6.4504140625,8.43795809302926,2.847962203727662,-1.2439422223605214
1761470495490391000,6.46039111328125,10.545366426098346,1.763930118946731,-1.1542780257873237
1761470495500366800,6.470366943359375,11.877618069422244,1.0385124426215886,-0.7123330076940357
1761470495510343200,6.48034326171875,12.330313906371593,0.8526262983947992,0.11240315752793102
1761470495520320000,6.490320068359375,12.265350143551826,1.1224544621556998,1.1621739666689186
1761470495530295800,6.5002958984375,12.156615043544768,1.3653548715025186,1.9631711270481347
1761470495540271900,6.51027197265625,12.280948694700003,1.8987410327136516,1.930715841384232
1761470495550249000,6.5202490234375,12.348435253995657,2.986398614515364,1.3930509799405932
1761470495560225000,6.53022509765625,12.124652217572926,3.7428795376241206,1.0628478424549102
1761470495570200800,6.540200927734375,11.761751802361012,3.9210549613431094,0.5367350332476198
1761470495580178000,6.550177978515625,11.344003360152245,4.613460302643477,-0.21751257785111663
1761470495590154000,6.560154052734375,11.037968741500377,5.641596604940295,-1.229263708666712
1761470495600129800,6.5701298828125,10.78271855366826,6.353189461791515,-2.119347338796407
1761470495610107000,6.58010693359375,10.640900683748722,6.499097231373191,-2.9659342108964917
1761470495620083000,6.5900830078125,10.543687679231166,6.394475996425747,-3.765189569109678
1761470495630059000,6.60005908203125,10.514838016843795,6.323375338286161,-4.495953574898839
1761470495640035800,6.610035888671875,10.497393545567988,6.435079809492826,-4.717859127011895
1761470495650012000,6.620011962890625,10.460991860365867,6.650120736533403,-4.044768434773386
1761470495659989000,6.629989013671875,10.128843141770362,6.3966135929763315,-2.9511569130033255
1761470495669965000,6.639965087890625,9.285334800332784,5.571433519911766,-1.8979621572956442
1761470495679940900,6.64994091796875,8.084258052361012,4.261687430645525,-1.2015163084328173
1761470495689918000,6.65991796875,6.83162939632833,2.39567407079637,-0.7151929271697998
1761470495699894000,6.66989404296875,5.817886653304099,0.5049100083112716,-0.7125634554490446
1761470495709869800,6.679869873046875,4.010563675093651,-0.911016235782206,-0.8641044086121022
1761470495719847000,6.689846923828125,1.1330874998509883,-1.5469243215739725,-0.5723125425852835
1761470495729823000,6.699822998046875,-2.6283354102015495,-2.1767165548339484,0.2489715459540486
1761470495739799000,6.709799072265625,-9.022158495676518,-3.5070053736522793,1.4154242859207093
1761470495749776000,6.71977587890625,-17.510246355009077,-5.638899620941281,2.3280628622077404
1761470495759752000,6.729751953125,-23.976484688353537,-7.197284078684449,3.292233034420013
1761470495769728000,6.73972802734375,-25.283347038877007,-7.239616907501221,4.451557968333363
1761470495779705000,6.749705078125,-23.140945718359944,-7.107878533047438,5.70016628280878
1761470495789681000,6.759680908203125,-21.144083334112167,-9.757229258748888,8.755369261220096
1761470495799657200,6.7696572265625,-18.475598284351825,-9.335376888352632,9.161465259557962
1761470495809634000,6.779634033203125,-15.215606308323144,-6.947974386817217,7.787955723172426
1761470495819610000,6.789610107421875,-12.701444389790296,-8.352719603943823,8.095446385851503
1761470495829586000,6.7995859375,-10.10822120950222,-10.55705218771696,7.650558007782697
1761470495839563000,6.80956298828125,-7.085075749608874,-10.361209297621249,5.147450567227602
1761470495849539000,6.8195390625,-4.909695119553804,-9.568985737740993,2.726096111729741
1761470495859516200,6.82951611328125,-2.7762556886494156,-7.276006902265548,-0.8679562617346643
1761470495869492000,6.839491943359375,-0.5359159719496965,-3.5209979509085416,-3.8537554490521546
1761470495879468000,6.849468017578125,1.007836149328947,0.31314795778840776,-4.662728775942325
1761470495889445000,6.859445068359375,1.7054232771813869,3.4873215990170836,-4.266678370800614
1761470495899421000,6.8694208984375,2.1778765385240315,5.805087377485632,-3.195261145181954
1761470495909397200,6.879397216796875,2.647137725827098,7.022958608391881,-1.4928649607367812
1761470495919374000,6.8893740234375,2.9306086304932832,6.617777971333265,0.16591496748495846
1761470495929350100,6.89935009765625,3.749525551509857,5.023047942489385,1.2659605774231255
1761470495939326000,6.909325927734375,5.541440532708168,3.3113711578711866,1.056098002868518
1761470495949303000,6.919302978515625,7.596642877721786,1.5225056273713706,-0.34091530483178795
1761470495959279000,6.929279052734375,9.419837378802894,0.25533932742029425,-1.7145413802690803
1761470495969255000,6.9392548828125,10.572413422977924,-0.25585078407377004,-2.045771668845415
1761470495979232000,6.94923193359375,10.192671763080359,-1.062395130251348,-1.2533226296462119
1761470495989208000,6.9592080078125,8.79346547538042,-1.5941726872220634,-0.4449618086311966
1761470495999185200,6.96918505859375,7.215006782379746,-0.936132264599204,0.050319334058649835
1761470496009161000,6.979160888671875,6.3499553021758794,0.2922866638064384,0.4164801027733832
1761470496019137000,6.989136962890625,5.98579290420413,1.2661422176003456,0.8953545562699436
1761470496029114000,6.999114013671875,5.672876124823093,1.9510195014834404,1.4346524257428943
1761470496039090200,7.009090087890625,5.772946272337436,2.437010289791226,2.12222771653831
1761470496049066000,7.01906591796875,6.579165039822459,2.6391239307194945,2.0163021209940313
1761470496059042800,7.029042724609375,7.824186143460869,2.9803531968712806,0.589070127575472
1761470496069019100,7.03901904296875,8.814283222481608,3.485170266202092,-1.111344162337482
1761470496078995000,7.048994873046875,9.51089770590961,3.6268519425213337,-2.578710086289048
1761470496088972000,7.058971923828125,9.77455390303731,3.438050787630677,-3.787069977006316
1761470496098948000,7.068947998046875,9.250517169451713,3.7482463253542777,-4.11655269126296
1761470496108924200,7.078924072265625,8.560838038244842,4.426889098761976,-3.5479321350634097
1761470496118901000,7.08890087890625,7.839213616722822,4.8260640656650065,-2.436819881785661
1761470496128877000,7.098876953125,7.383280113026499,5.07999615663588,-1.1023658330466597
1761470496138853000,7.10885302734375,7.692072505953908,5.136809346225857,-0.10146843347232788
1761470496148830000,7.118829833984375,8.310020864424109,4.593686219376325,-0.013089308273606002
1761470496158806000,7.128805908203125,8.465508363255857,3.6831621510252353,-0.36240612888894974
1761470496168782800,7.138782958984375,7.645009726005792,2.547342303600907,-0.8022667419236152
1761470496178759200,7.14875927734375,6.1510284745901815,1.673184556877613,-1.53476918887794
1761470496188735000,7.15873486328125,4.087663281387091,1.5961548009499906,-2.5763795975148676
1761470496198712000,7.168712158203125,1.3952286162406204,1.8244667129740118,-3.056286097472906
1761470496208688000,7.178688232421875,-1.6901958974331617,1.6469702114298939,-2.704788243024051
1761470496218664000,7.188663818359375,-5.543809015405178,0.7157844633221626,-1.6295624189026652
1761470496228641000,7.19864111328125,-10.25797922477126,-1.6156822159796953,-0.921271307010576
1761470496238616800,7.208616943359375,-14.996535687375069,-3.9555481825754044,-0.8760174761805682
1761470496248593200,7.21859326171875,-19.0691662348032,-4.609197676762938,-1.0297510440170765
1761470496258570000,7.228570068359375,-21.94860289646387,-4.03841877348572,-1.03764508520253
1761470496268546000,7.238546142578125,-23.81476384809017,-5.1471325873196125,2.7613208621069787
1761470496278522000,7.248522216796875,-22.62780564184189,-6.833135709238052,7.748288898694515
1761470496288499200,7.258499267578125,-18.174637315702437,-4.157609508794546,8.604943721953035
1761470496298475000,7.26847509765625,-13.903966075873374,-0.16807400868237019,7.472551218628883
1761470496308450800,7.278450927734375,-12.356916666615009,-1.4771528662115334,8.273859417718649
1761470496318428200,7.28842822265625,-11.465801355350017,-5.426603024172783,8.547254918572307
1761470496328404000,7.298404052734375,-9.47031493563056,-7.396120305377244,7.0158139973342415
1761470496338381000,7.308381103515625,-6.513767561760544,-6.760210173758864,4.012627329625189
1761470496348356900,7.31835693359375,-3.544963932907581,-5.17897149465084,0.16559821141967548
1761470496358333200,7.328333251953125,-1.2599872021019458,-3.3314345794737337,-2.1575902679510413
1761470496368310000,7.33831005859375,0.668127224612236,-0.8989841449439525,-2.4179503461427987
1761470496378286000,7.3482861328125,2.2301152598053218,0.9534522327125072,-1.7700477250441908
1761470496388262100,7.35826220703125,2.6351018355965614,1.860060296663642,-0.963526978937909
1761470496398239200,7.3682392578125,1.8886480932444334,2.3288114886179563,-1.0688453293040394
1761470496408215000,7.378215087890625,0.9562415711700916,3.166586254839599,-2.300673920022696
1761470496418190800,7.38819091796875,0.08245499584674834,3.829345814938843,-3.363070073187351
1761470496428168000,7.39816796875,-0.5098083017468452,3.50910176140964,-3.7707244068831205
1761470496438144000,7.40814404296875,-0.43159810386300085,2.4126655376076696,-3.898780293431878
1761470496448120000,7.4181201171875,0.6494371371895075,1.2058192663237453,-3.782694830662012
1761470496458097000,7.428096923828125,2.756678881520033,0.5847526297025382,-3.3620378075301645
1761470496468073200,7.4380732421875,4.885091424173116,0.21188187848776577,-2.643402046430111
1761470496478049000,7.448049072265625,6.374550814250111,0.049646658961474896,-1.3357676886208354
1761470496488026000,7.458026123046875,6.955133026400208,-0.12581132249236107,0.16428513779342174
1761470496498002200,7.468002197265625,7.0009899376899,-0.24578034869730472,1.1430222530838101
1761470496507979300,7.477979248046875,7.15856417966783,0.15859686302393675,1.3199772681623696
1761470496517955000,7.487955078125,7.468256151783466,1.0301280606359242,1.022898109382391
1761470496527931000,7.497930908203125,7.842893766540288,1.9885034289643166,0.6545684356633573
1761470496537908000,7.507907958984375,8.178206502124667,2.8875796361058947,0.22965958203962072
1761470496547884000,7.517884033203125,8.272348428633808,3.634384091591835,0.015569014526437967
1761470496557860000,7.527860107421875,8.03938781402111,3.9967651591047644,0.058212443662341684
1761470496567837000,7.5378369140625,7.824810412839055,4.356191760726273,-0.020411193860601633
1761470496577813200,7.547813232421875,7.618395859846473,4.863705229534209,-0.33985622423291206
1761470496587789000,7.5577890625,7.493375979992747,5.308330865013599,-0.5247347623197361
1761470496597766100,7.56776611328125,7.369508777305484,5.397368161860108,-0.9190154909078031
1761470496607742000,7.577741943359375,7.162583352181315,5.447900663745403,-1.5926558529183268
1761470496617718000,7.587718017578125,6.6011600140094755,5.838855791574717,-1.8873849414408206
1761470496627695000,7.597695068359375,5.627093447813391,6.176872525420785,-1.75243885698691
1761470496637671000,7.6076708984375,4.335357939273119,6.2221250410765405,-1.5912271352894602
1761470496647647200,7.617647216796875,3.0387820049643515,6.241325416108966,-1.4795213489085435
1761470496657624000,7.6276240234375,2.034616653102636,5.921444058412313,-1.1815858655601739
1761470496667600100,7.63760009765625,1.2339163567781448,5.175900416642427,-1.249830257485807
1761470496677576200,7.647576171875,0.7145306638687848,4.304647159188986,-2.184882179502398
1761470496687553000,7.657552978515625,-0.34684009177088737,3.194066382439434,-3.6226124052554365
1761470496697529000,7.667529052734375,-3.1746196314305064,2.161157751174271,-4.765652851583063
1761470496707506000,7.677505859375,-7.85659846676588,0.7273956983998418,-4.046225355583429
1761470496717482000,7.68748193359375,-12.439757446908951,-1.1287424563840032,-1.6893099083788692
1761470496727458000,7.6974580078125,-14.717149421674012,-2.555996150177717,0.37074484510198236
1761470496737435100,7.70743505859375,-14.961756634938716,-2.9724381859630347,1.0573596203021705
1761470496747411000,7.717410888671875,-17.46378621712923,-4.637641096436977,2.556335757395625
1761470496757387300,7.72738720703125,-20.840347055530547,-5.124630832654238,5.100598215159773
1761470496767364000,7.737364013671875,-20.567473532724378,-3.0261393810123205,7.593919005715847
1761470496777340200,7.747340087890625,-16.435013662755487,-1.0765534194633364,8.66959067390859
1761470496787316200,7.757316162109375,-12.44221945310831,-0.7866127342611551,8.74943461047411
1761470496797293300,7.767293212890625,-10.445240164482593,-2.8155945963472124,8.046543530994652
1761470496807269000,7.77726904296875,-9.065248280340432,-4.043861256800592,6.304304727113246
1761470496817245200,7.7872451171875,-7.823934799048304,-4.352613317717611,3.8301188451379535
1761470496827222000,7.797221923828125,-6.319771176314354,-4.692213813623786,1.965319975645095
1761470496837198300,7.8071982421875,-4.37812039167881,-4.321273592080176,1.274982380529493
1761470496847174100,7.817174072265625,-2.1002625529676675,-3.3296608477994796,0.8911946601115167
1761470496857151200,7.827151123046875,1.0993149941086768,-2.036559896124899,0.28508544545704495
1761470496867127300,7.837127197265625,4.552653951764107,-0.7677119266971946,-0.3753437902648002
1761470496877104400,7.8471044921875,6.959525123879313,0.7478025266125797,-0.8146339099351316
1761470496887080200,7.857080078125,7.896435971635579,2.42223240737617,-0.8681452815007418
1761470496897056000,7.867055908203125,7.68714381738007,3.695270229709148,-0.5582116461163387
1761470496907033000,7.877033203125,7.043842990988493,4.088264754411578,-0.13570840146276167
1761470496917009200,7.887009033203125,6.538594544503092,3.5467309425801035,0.21516108282152563
1761470496926985200,7.896985107421875,6.345892875042558,2.6437960141837595,0.41164665473494677
1761470496936962000,7.906962158203125,6.83938833989203,2.01567083735317,0.25512679891446605
1761470496946938400,7.9169384765625,7.844735595014691,1.6493299262985586,-0.41776024224441494
1761470496956914200,7.9269140625,8.192561775213479,1.1591196205995977,-0.7299026397194713
1761470496966891300,7.936891357421875,7.83614020062685,0.94568861297369,-0.538186181904003
1761470496976867000,7.9468671875,7.182433131033182,1.069390688227117,-0.016217084905318913
1761470496986843100,7.956843017578125,6.526008619174361,1.422776694510132,0.40324711171276867
1761470496996820200,7.9668203125,6.173672268074751,2.095240633152425,0.7156852407313883
1761470497006796000,7.976796142578125,6.119407009401917,2.7072826901882885,1.0587358770914375
1761470497016772400,7.9867724609375,6.257274095869064,3.2757460099995135,1.2965404246039687
1761470497026749200,7.996749267578125,6.735531659576297,3.754553024283051,1.4544998665072022
1761470497036725200,8.006725341796875,7.188596329838037,3.924005920103192,1.3341947402156888
1761470497046701300,8.016701416015625,7.558267262098193,3.8848996521174906,0.8597675484515727
1761470497056678400,8.026678466796875,7.9620923928946254,3.8178713579833503,-0.038961059961887076
1761470497066654200,8.036654296875,8.266002274477481,3.777879247073829,-0.90739526880607
1761470497076630000,8.046630126953126,8.197451885342597,3.76251830407381,-1.6957576232135294
1761470497086607000,8.056607177734374,8.00068954231441,3.946046779258549,-2.0489429923579094
1761470497096583200,8.066583251953125,7.3995631393074985,4.0242888335853815,-1.635955188679695
1761470497106559200,8.076559326171875,6.328326238691806,3.5897061609536407,-1.0467316971734166
1761470497116536000,8.0865361328125,5.17928947455883,2.8602579139381645,-0.5961751372750849
1761470497126512400,8.096512451171876,4.075580629405379,2.3348259266018867,-0.6137737031340599
1761470497136489200,8.1064892578125,3.3388527467757463,2.1562607729129493,-1.4740594302408396
1761470497146465300,8.11646533203125,3.0046640467852352,1.971447372484207,-2.7418729420542713
1761470497156441000,8.126441162109375,1.6674615030556916,0.8355531446494162,-3.492628765514493
1761470497166418400,8.13641845703125,-1.2989122683018446,-1.0113478107117115,-3.140470693591237
1761470497176394200,8.146394287109375,-4.295077366811037,-2.422572014594078,-2.634279997819662
1761470497186370000,8.1563701171875,-7.717614358967542,-2.7688936354488134,-2.6520839500576256
1761470497196347100,8.16634716796875,-12.186907305955886,-1.906495007841289,-2.656157775367796
1761470497206323200,8.1763232421875,-15.837203252428768,0.9915139600813389,-1.8124413441374896
1761470497216299300,8.18629931640625,-18.12707360049486,2.2123773585408926,1.8731189540706574
1761470497226276000,8.196276123046875,-17.92342851221561,0.734435680039227,6.569630903279781
1761470497236252400,8.20625244140625,-15.600391223084925,1.1089946766018868,8.862951684060691
1761470497246228200,8.216228271484376,-13.555356051820516,3.078364073768258,8.12428377327919
1761470497256205300,8.226205322265624,-12.540818943548201,3.890745455536246,6.163858145546913
1761470497266181000,8.23618115234375,-12.648279785835742,2.7317446390107274,4.026095298485457
1761470497276157200,8.2461572265625,-13.352184426271915,0.1618222548112273,2.441720074917376
1761470497286134300,8.25613427734375,-13.027031265652179,-1.9973995598644017,1.1197642001584172
1761470497296110000,8.266110107421875,-11.202245111465453,-3.4485476317256687,-0.2789179723358713
1761470497306087200,8.276087158203126,-8.550389709466696,-4.048031528222561,-1.6160644932955504
1761470497316063200,8.286063232421874,-5.676404298949241,-2.4255881475448606,-2.127299905236065
1761470497326039300,8.296039306640624,-3.0549966421842574,0.11448854896724224,-1.155239856556803
1761470497336016100,8.30601611328125,-0.805960408809781,1.691887942173332,0.9029333940263837
1761470497345992400,8.315992431640625,0.21991174794733523,1.6953719848968087,3.1335055307537316
1761470497355968300,8.32596826171875,0.27483985444307324,0.6190706404983997,2.9633070772632957
1761470497365945000,8.335945068359376,0.012786416336894035,0.13295432611480354,0.6400679088849573
1761470497375921200,8.345921142578124,-0.35398704091608524,0.07021744556427001,-1.643750957122445
1761470497385897200,8.355897216796874,0.0146352590739727,-0.2756001712910831,-2.791511125448346
1761470497395874300,8.365874267578125,1.4150181893378495,-1.0846730130329727,-3.116251613613963
1761470497405850000,8.37585009765625,3.5090491544395683,-1.8178617617510258,-2.9337565731301902
1761470497415827200,8.3858271484375,5.741246481215954,-1.9102301027163862,-2.4237851897761225
1761470497425803300,8.39580322265625,6.984211236846447,-1.6286242612697184,-1.6824166417337953
1761470497435779000,8.405779052734376,6.9487465402334925,-1.2166979493431747,-0.3731735335536301
1761470497445756200,8.415756103515625,6.5961962541222565,-0.7851767101086675,0.9087213297780603
1761470497455732200,8.425732177734375,6.546407264080643,-0.22635303304120896,1.8835156987920403
1761470497465708300,8.435708251953125,6.803966313377022,0.42997050266116854,2.3379501961022613
1761470497475685000,8.44568505859375,7.345594233232736,0.9698336048014461,2.4105782099395987
1761470497485661200,8.4556611328125,7.985780142474174,1.2797447726257145,2.0097876245334745
1761470497495637200,8.46563720703125,8.489048228797316,1.6021141477458178,1.3124712764464317
1761470497505614300,8.4756142578125,9.02500511727929,2.210100207389146,0.3274246492156759
1761470497515590100,8.485590087890625,9.283717428264021,2.874128910641372,-0.7042258352145552
1761470497525566200,8.495566162109375,8.642280057656764,3.5063445716559887,-1.3757919482342897
1761470497535543300,8.505543212890625,7.179393032684922,4.235967590716481,-1.6421495132751762
1761470497545519000,8.51551904296875,5.810269164037704,4.946259301841259,-1.8411632884919642
1761470497555495200,8.5254951171875,5.078729497700929,5.69927196431756,-1.904272509486228
1761470497565472000,8.535471923828124,5.134646030712127,6.444431575205922,-1.7328040360599755
1761470497575448300,8.5454482421875,5.7774710562855,6.898538447996974,-1.6752673545010386
1761470497585425200,8.555425048828125,5.999605740979313,6.477430758488178,-1.8626462215036153
1761470497595401200,8.565401123046875,5.465697017198801,5.5757905460774895,-2.7339363038361073
1761470497605377300,8.575377197265626,4.186536912593246,5.0844356003880495,-3.68162427393347
1761470497615354400,8.585354248046874,2.401840776732564,5.146747971916199,-3.90520155865103
1761470497625330200,8.595330078125,0.06559270837306976,5.222845707690715,-4.013488914890587
1761470497635306200,8.60530615234375,-2.400963409376144,5.092512523859739,-3.7471743122085925
1761470497645283300,8.615283447265625,-3.995098394936323,4.916992290824651,-3.3564795888811347
1761470497655259100,8.625259033203125,-6.135378485515713,4.2091780757293105,-2.8140958822220563
1761470497665235200,8.635235107421876,-9.700014502620697,2.340672606803477,-1.5903125046625732
1761470497675212000,8.6452119140625,-13.862240565299986,-0.7659557306796312,-0.25675569702424106
1761470497685188400,8.655188232421875,-15.736577809119224,-2.794635394948721,1.0463380216807125
1761470497695164200,8.6651640625,-14.833236638009547,-3.7098578502491115,2.9106515918746587
1761470497705141200,8.675141357421875,-13.517927946180105,-3.1324741418793796,4.715150160314143
1761470497715117300,8.685117431640625,-12.944739935934543,-1.9748899141535161,6.846033184733987
1761470497725093000,8.695093017578126,-12.999872040569782,-2.55644710881561,8.513049282109737
1761470497735070200,8.7050703125,-13.628857341361044,-3.179941995497048,8.360884790220856
1761470497745046000,8.7150458984375,-14.302806403994559,-3.7443560399174687,7.556048417004942
1761470497755023400,8.7250234375,-14.655374810284375,-4.432565683093666,6.758961050480604
1761470497764999200,8.734999267578125,-13.07396954243779,-3.8305928923904893,5.524188369134068
1761470497774974500,8.744974365234375,-10.452752439808846,-2.347249939367175,3.6879210359901187
1761470497784951800,8.754951904296876,-8.570683140432834,-1.294558164745569,2.518677642391622
1761470497794927600,8.764927734375,-6.802095843330025,-0.7138613863050938,1.6256414460666477
1761470497804903700,8.774903564453124,-4.413716605716943,0.14465776952058076,0.6130133132208139
1761470497814880500,8.784880615234375,-1.7745406525492666,1.1972168576732276,0.12699998428765683
1761470497824856800,8.79485693359375,0.672881141141057,2.144283773262799,-0.024404957938194274
1761470497834832600,8.80483251953125,2.4450147325485942,2.8156489568829537,0.007503397900052368
1761470497844809700,8.814809814453126,3.527332414627075,3.032106180462241,0.3520465743727982
1761470497854785800,8.824785888671874,4.07912224753499,2.5998990047901867,0.9663698011483997
1761470497864761600,8.83476171875,4.569549556985497,2.022220112866163,1.5218725901648402
1761470497874738700,8.84473876953125,5.52595537880659,1.517839096865058,1.6080609273210167
1761470497884714500,8.854714599609375,6.8403983937174075,1.0693275598630307,1.1701683994889258
1761470497894690800,8.86469091796875,8.449666651001571,0.6730246412649751,0.4474805499864742
1761470497904667600,8.874667724609376,9.942911404836178,0.4247968994155526,-0.24328235786911098
1761470497914643700,8.884643798828124,10.600896005618571,0.4925616911306977,-0.8258043424427509
1761470497924620500,8.89462060546875,10.072997920429707,0.8365466857314109,-0.8371235357712954
1761470497934596900,8.904596923828125,8.631503227576612,1.2094026777684688,-0.2390922857681289
1761470497944572700,8.91457275390625,7.363097741219401,1.6574907286614178,0.4318819257730618
1761470497954549500,8.924549560546875,6.85412121412158,2.414542729656398,0.9767762635461985
1761470497964525800,8.93452587890625,6.953937094613909,3.2091072997048493,1.242041503305733
1761470497974501600,8.944501708984374,7.106255900281667,3.682463939628005,1.072949988143891
1761470497984478700,8.954478759765625,7.2065604410737745,4.100792227551341,0.5364220217756926
1761470497994454500,8.96445458984375,7.449344530564546,4.566619641013443,-0.2997082834408618
1761470498004430800,8.974430908203125,7.766376928570866,4.9349125629186625,-1.3194982524737715
1761470498014407700,8.98440771484375,8.055027281701564,5.465957713961601,-2.1812581437863408
1761470498024383700,8.9943837890625,7.959567842853069,5.932475155514478,-2.713223770675063
1761470498034359800,9.00435986328125,7.6177645762056105,6.250295489028096,-2.969014933516085
1761470498044336600,9.014336669921875,7.105134202775359,6.248325065737962,-3.0032854519084093
1761470498054312700,9.024312744140625,6.4957268781572575,6.067187577342986,-3.2273809152811763
1761470498064288500,9.03428857421875,6.336532926023006,6.251748610445857,-3.8533606045156716
1761470498074265600,9.044265625,6.6011880710601805,6.606367519524693,-4.520713922145962
1761470498084241700,9.05424169921875,6.923189489650726,6.710365069615841,-4.691700018882751
1761470498094217700,9.0642177734375,6.700190297082066,6.524674740222096,-4.385642311616242
1761470498104194600,9.074194580078125,5.1730812675684685,5.743187093889713,-3.3128841927826405
1761470498114170600,9.084170654296875,3.1542776851475236,4.4203845391735435,-2.192958518452197
1761470498124147700,9.094147705078125,1.0929933898717163,2.4970456562981007,-1.5244688902683554
1761470498134123500,9.10412353515625,-1.7631635184884071,-0.18879618645459412,-1.0118211273118853
1761470498144099800,9.114099853515626,-5.84002308178842,-3.8860628506779666,-0.4177602787770331
1761470498154076700,9.12407666015625,-9.940011007219553,-5.631126064330339,0.4041695603199303
1761470498164052700,9.134052734375,-14.54769652585387,-4.243745238980651,2.7747522983491417
1761470498174028500,9.144028564453125,-18.851511325871943,-7.029632679328322,9.045586133015155
1761470498184005600,9.154005615234375,-18.76218352164626,-6.5153872719168655,11.624553993457555
1761470498193981700,9.163981689453125,-16.316428199863434,-1.9044725621029734,10.529055927288532
1761470498203957500,9.17395751953125,-13.918752141594886,-0.33661446583271026,7.731403230345249
1761470498213934600,9.1839345703125,-11.215181749927996,-1.461394448326528,4.148604072301089
1761470498223910700,9.19391064453125,-10.188072744852304,-3.4322684048369525,2.262692126022279
1761470498233886700,9.20388671875,-10.370507871842383,-4.846870122328401,1.141600184391439
1761470498243863600,9.213863525390625,-10.073079753494262,-5.4793502794981,0.12343567940220236
1761470498253839600,9.223839599609375,-9.798128255370258,-3.6874426048234104,0.08220050962902604
1761470498263816700,9.233816650390626,-10.235290423101187,-0.5906305818252265,-0.11766560810077935
1761470498273792800,9.243792724609374,-10.237966364312172,2.133474648348242,-0.009434000636450945
1761470498283768600,9.2537685546875,-9.089720458295941,3.846364169757068,-0.01698744822330773
1761470498293745700,9.26374560546875,-6.69501727835834,4.548080652499198,-1.0232323828380554
1761470498303721700,9.2737216796875,-3.5245898379206655,4.823049101758003,-2.4030828857481477
1761470498313697500,9.283697509765625,-0.8824883526951074,4.8334740496605635,-3.1880683110684154
1761470498323674600,9.293674560546876,0.6843424463540315,4.179368336138129,-3.0194901522561906
1761470498333650700,9.303650634765624,1.9665204374760388,2.9919372516810894,-2.1184936445765197
1761470498343626800,9.313626708984375,3.8361359134703874,2.071867794740945,-1.0390572170227765
1761470498353603600,9.323603515625,6.157328451517224,1.424746241017431,-0.1105962268369738
1761470498363579600,9.33357958984375,8.102979119443892,0.825744428949058,0.4446830647550523
1761470498373555700,9.3435556640625,9.708297762319445,0.5518905168034136,0.9439986871253698
1761470498383532800,9.35353271484375,10.368833801150322,0.24426249148026108,1.7320036794625222
1761470498393508600,9.363508544921874,9.95286347452998,0.36770840001553295,1.8771482095867393
1761470498403484700,9.373484619140624,9.043387746188044,0.9016168315351009,1.6119341154925524
1761470498413461800,9.383461669921875,8.280846792387962,1.5143816498875617,1.565480261223018
1761470498423437600,9.3934375,7.869285514381527,2.029756645850837,1.4602226280681787
1761470498433413600,9.40341357421875,7.410003284779191,2.445387219122797,1.3886717419430612
1761470498443390700,9.413390625,7.0679708855509755,2.810282169152796,1.096487077206373
1761470498453366800,9.42336669921875,6.896164704602956,3.269929724936187,0.4083072446465492
1761470498463343600,9.433343505859375,6.629164457744359,3.8509535433739424,-0.22282111432170493
1761470498473319700,9.443319580078125,6.5223045039594165,4.4417169577986,-0.7532335386853665
1761470498483295700,9.453295654296875,7.0350634722054,5.0490088976979255,-1.5252029036313295
1761470498493272800,9.46327294921875,7.756582095265388,5.532843384754657,-2.0506433665350077
1761470498503248600,9.47324853515625,7.931121500569581,5.893204636877774,-1.869558485110104
1761470498513224700,9.483224609375,7.1507502910465,5.930437512207031,-1.280444299197197
1761470498523201800,9.493201904296875,5.71141306848824,5.9202253302723165,-1.1061597454369068
1761470498533177600,9.503177490234375,4.272903528925776,6.006967794179916,-1.5367138932049274
1761470498543153700,9.513153564453125,3.11687237586081,5.678690948581695,-2.316879204892367
1761470498553130800,9.523130859375,1.4600813199013472,4.997119720506668,-2.9585546220391987
1761470498563106800,9.53310693359375,-1.3615852898359297,4.1767043776258825,-3.7859108700990673
1761470498573082600,9.54308251953125,-4.42293626948297,3.26293007530719,-4.607205918423831
1761470498583059700,9.553059814453125,-7.3253136617481704,3.1097540682882068,-5.410806904625892
1761470498593035800,9.563035888671875,-11.556274822479486,3.1081229599550366,-5.2113820643901825
1761470498603011600,9.573011474609375,-15.755483585119247,1.6600991575941442,-3.5732945398569105
1761470498612988700,9.58298876953125,-17.674221111679078,-0.2924664042875171,-1.4272539860546587
1761470498622964700,9.59296484375,-17.280574845069644,-0.29899931318759915,0.029393194679543374
1761470498632941800,9.60294189453125,-16.979844178044797,-1.2002166240110992,2.3004613001853227
1761470498642917600,9.612917724609375,-16.62040997763872,-2.2901517953559756,4.617897700569033
1761470498652893700,9.622893798828125,-15.303784942513703,-0.8625102712884545,6.771493199795485
1761470498662870500,9.63287060546875,-13.592422922933102,-0.9616244332522154,7.886511374470591
1761470498672846600,9.6428466796875,-12.369170583510398,-1.9601628851428627,7.96185975318253
1761470498682822700,9.65282275390625,-10.957981597071885,-3.379175112552941,8.36246416836679
1761470498692799500,9.662799560546874,-8.80312703769505,-5.22078526802957,8.398708617180585
1761470498702775800,9.67277587890625,-6.01604308103919,-5.654016526052356,6.758273652738333
1761470498712751600,9.682751708984375,-3.3775048412531614,-4.543939607171714,3.614489012293517
1761470498722728700,9.692728759765625,-1.5269734204351901,-3.1549256276622413,0.788040209781006
1761470498732704500,9.70270458984375,-1.3009586794376373,-1.0247437372490764,-0.6361154449321329
1761470498742680800,9.712680908203126,-2.2575158924281595,1.6969237443834542,-0.6463352256514132
1761470498752657700,9.72265771484375,-2.5492197879105807,4.16576154332906,0.05079159121289849
1761470498762633500,9.732633544921875,-2.275855851238966,5.877916466853022,1.1046440071117132
1761470498772610800,9.74261083984375,-1.456512229242921,6.490879438126087,1.3525763462111353
1761470498782587000,9.7525869140625,0.04269990856349468,5.7416515548855065,0.26906784691289065
1761470498792563000,9.76256298828125,1.6696505375325679,4.528788799791037,-1.1865535709701478
1761470498802539800,9.772539794921874,3.5706273664742705,3.9012998750373717,-2.215839773954451
1761470498812516000,9.78251611328125,5.383577536916732,3.0101965464711187,-2.670849440804124
1761470498822492000,9.792491943359375,6.822997761583328,2.1701567579269407,-2.614995451635122
1761470498832469000,9.802468994140625,7.715574962094426,2.0577511527135965,-2.096876417660713
1761470498842444800,9.81244482421875,8.008658329236507,2.7147750917702913,-1.2430763993114233
1761470498852420900,9.8224208984375,7.894058721110224,3.2775024982780216,0.24086115860417484
1761470498862398000,9.83239794921875,7.848057432913779,3.5425331986293194,1.6597008059263227
1761470498872373800,9.842373779296874,8.210876015061139,3.3468770632773635,1.9336586168378591
1761470498882350000,9.85235009765625,8.504048814052343,3.202697724923491,1.5014360974662004
1761470498892327000,9.862326904296875,8.848957645499706,4.535208603705466,0.1725830836046487
1761470498902303000,9.872302978515625,8.65217484420538,5.489502255678176,-0.9084172322649509
1761470498912278800,9.88227880859375,8.294038282394409,5.879574755454063,-1.0884040893200784
1761470498922256000,9.892255859375,7.646882534140348,5.9183507685720915,-0.762048786368966
1761470498932232000,9.90223193359375,6.949619815936684,5.716949075305462,-0.317903700948134
1761470498942207700,9.912207763671875,7.438548411262035,6.530665505069494,-0.9620086102642118
1761470498952184800,9.922184814453125,8.07609345060587,7.6769456639707085,-1.8747412945754824
1761470498962161000,9.932160888671875,8.103308789789676,8.002865717309714,-2.361125758375972
1761470498972138000,9.942137939453126,7.59437902444303,7.801780834907293,-2.3652575974836942
1761470498982113800,9.95211376953125,7.638670001590252,6.955028396981954,-1.667274456050992
1761470498992090000,9.962090087890624,7.8797642382979385,6.040752574881911,-1.1752874960683286
1761470499002067000,9.97206689453125,7.8265388440668575,6.045990475535392,-1.0342790428355335
1761470499012043000,9.98204296875,6.484366110709309,5.612731744983792,-0.5756766121909022
1761470499022018800,9.992018798828125,4.705244560110569,4.361593327508866,-0.09604191491156816
1761470499031996000,10.001995849609376,3.2225667929977178,4.199945260220765,-0.6080547409653664
1761470499041972000,10.011971923828124,1.092108423730731,3.516065462942421,-0.17006649767383933
1761470499051947800,10.02194775390625,-0.966231634786725,2.17993054844439,0.8491118605330586
1761470499061924900,10.0319248046875,-3.0692168907165525,0.9974199692547321,2.004986800123006
1761470499071901000,10.04190087890625,-5.788520858088136,-0.6152060740247368,2.733125571975112
1761470499081877000,10.051876953125,-8.684061097809671,-2.9466587248012424,2.2232865828290582
1761470499091853800,10.061853759765626,-12.37273149086237,-3.1142960956320165,0.09910057182982564
1761470499101830000,10.071829833984374,-17.047766790670156,-1.769150191682577,-0.13853241850808262
1761470499111806000,10.081805908203124,-20.63728415105343,-4.682578847055137,5.391000964915752
1761470499121783000,10.091782958984375,-21.685869659399984,-6.428692738804221,11.0825373665452
1761470499131758800,10.1017587890625,-19.725280365538595,-2.816032695503533,12.75708970464468
1761470499141735000,10.11173486328125,-15.128378106725215,1.1426587535336612,9.913486572909354
1761470499151712000,10.1217119140625,-11.096600963211058,1.523916955474019,7.403501647800207
1761470499161687800,10.131687744140624,-9.884982947480678,-0.9786667534679174,6.704057493904233
1761470499171665000,10.141664794921875,-9.739817520698905,-3.3121506178110836,5.297705426102876
1761470499181641000,10.151640869140625,-8.305731058275699,-3.200579417595267,3.0371114414036273
1761470499191617000,10.161616943359375,-5.346463904052973,-2.372770457331836,1.6642865262813866
1761470499201593900,10.17159375,-2.392718728122115,-1.7046829802080987,1.0427250188153236
1761470499211570000,10.18156982421875,-0.28156887043714524,-0.18140666072517633,0.21755517488382756
1761470499221546000,10.1915458984375,1.729819467291236,0.4619574401609599,-1.0380691558334976
1761470499231523000,10.201523193359375,2.393990647754073,-0.32193887474834915,-2.653078514052927
1761470499241499000,10.211498779296875,1.681364356201887,0.14588716518506406,-4.226337592583895
1761470499251475000,10.221474853515625,-0.002506429862976074,1.5360693116910755,-4.275988050937652
1761470499261452000,10.2314521484375,-1.2619558718264101,1.339150755187869,-2.1099245536737143
1761470499271427800,10.241427734375,-0.536851206973195,-0.6277500599078834,0.6680999712791293
1761470499281404000,10.25140380859375,1.7942828793734311,-2.1566697921052573,1.3608356405124067
1761470499291381000,10.261381103515625,4.6502843049108975,-3.125708885528147,0.15597491702251134
1761470499301357000,10.271357177734375,6.6549202457696195,-3.9608401515036817,-1.2051557609137147
1761470499311334000,10.281333984375,6.866274008730054,-4.321549778673052,-2.049142314322293
1761470499321309700,10.291309814453125,6.286942088901997,-4.0256145292311905,-2.3129414270520208
1761470499331286000,10.3012861328125,6.105415893450379,-3.4687203589215874,-1.8520900484368203
1761470499341262800,10.311262939453124,6.396909945574403,-2.5251959382444618,-0.6687373193345963
1761470499351239000,10.321239013671875,6.797142020314931,-1.4692115518182516,0.28869850312136114
1761470499361215000,10.331215087890625,7.060470885184407,-0.18634090225696562,0.6887646467104553
1761470499371192000,10.341192138671875,7.635154102423787,1.1683734788961708,0.8837352109510451
1761470499381167900,10.35116796875,8.262774544602632,1.8629951810717582,0.7113784834481776
1761470499391144000,10.36114404296875,8.852854652938246,2.520439975889027,-0.13892704384885726
1761470499401121000,10.37112109375,9.368064521467685,3.072899378621578,-1.8112611944422126
1761470499411096800,10.381096923828125,9.120528853535651,3.3738185539558527,-3.411472869567573
1761470499421073000,10.391072998046875,7.81868286986947,3.686199034503102,-4.0223990743160245
1761470499431049700,10.4010498046875,6.123524381592869,3.88091818126589,-3.6629210347682237
1761470499441026000,10.411026123046875,4.797379238450527,4.0536908691585065,-2.7249773368328807
1761470499451001900,10.421001953125,4.4717105295240875,4.337344144654273,-1.6706370643518864
1761470499460979000,10.43097900390625,4.741065815076231,4.331156688190997,-1.1406326545335352
1761470499470955000,10.440955078125,5.170890479525924,3.9614135674774644,-1.3375107328958808
1761470499480930800,10.450930908203125,5.26026796811223,3.063019205120206,-2.129498876585066
1761470499490908000,10.460907958984375,3.7417479032456873,1.8906714157655835,-2.9097911756530404
1761470499500883700,10.4708837890625,0.5843219832003116,1.4668610431693494,-3.4404183935448525
1761470499510860800,10.48086083984375,-2.713493819788098,2.0150192415766415,-3.939539004799723
1761470499520836900,10.4908369140625,-5.5902884425073855,2.9688094740718602,-3.7865158502548932
1761470499530813000,10.50081298828125,-7.886490916204452,2.968770603366196,-2.411957243207842
1761470499540789800,10.510789794921875,-9.785066529223322,0.597737198960036,-0.18211963130012154
1761470499550766000,10.52076611328125,-11.948517067509888,-1.6261641547665,2.0016331057809293
1761470499560742000,10.530741943359375,-14.09892166174054,-0.7253358432605862,2.975395574463904
1761470499570719000,10.540718994140626,-15.855799231827259,-0.9679723409742116,5.529762954396009
1761470499580695000,10.550695068359374,-16.498651729929446,-3.7256414025753735,8.903251545745134
1761470499590670800,10.5606708984375,-14.87401989929676,-4.364548085661232,10.743914483499527
1761470499600648000,10.57064794921875,-13.766366115909815,-4.284231563147903,10.036479330849646
1761470499610623700,10.580623779296875,-14.449434889066218,-4.70605266162306,7.756086420702934
1761470499620600000,10.59060009765625,-15.0457851637125,-5.282247744730115,5.446617053675651
1761470499630577000,10.600576904296876,-13.821414049392938,-4.8344779660061,4.104211680606007
1761470499640553000,10.610552978515624,-11.174456940829753,-3.8941923811197277,2.760837170243263
1761470499650529000,10.620529052734375,-8.641888427990674,-2.903704841476679,0.42499245852027084
1761470499660506000,10.630506103515625,-5.8750938106477255,-1.1183163394376634,-1.6439577317409217
1761470499670482000,10.64048193359375,-3.6660955731511113,0.18918664707690477,-2.9438626643419266
1761470499680459000,10.650458984375,-2.3298744416743515,2.271975356543809,-2.577175716328621
1761470499690434800,10.660434814453126,-1.1163549762368201,4.746827447342873,-1.4064330240830778
1761470499700411000,10.670410888671874,-0.6547229686379432,5.649962866747379,-0.8421388066500425
1761470499710388000,10.680387939453125,2.4134844527751205,3.8963887221202254,2.708087576830387
1761470499720363800,10.69036376953125,5.931953761988878,2.062378666383773,5.429886283627152
1761470499730340000,10.700340087890625,10.833144088047742,0.9297197672083973,4.139747104367614
1761470499740317000,10.71031689453125,14.897618217027187,-1.0686319788143037,2.2390797797665
1761470499750293000,10.72029296875,15.966722781789302,-2.691739084097743,0.8613033066514879
1761470499760268800,10.730268798828124,14.578360544186829,-2.5224659287586806,0.3523430731013417
1761470499770246100,10.74024609375,12.535170124006271,-1.2897222690217196,1.1400105771124363
1761470499780222000,10.750221923828125,11.174131946659088,-0.4630906819745898,2.9779984504386783
1761470499790197800,10.76019775390625,10.53299326673746,0.37750323332101104,4.601002387608587
1761470499800174800,10.7701748046875,10.66397176273465,1.0527378057204186,5.8049675504982465
1761470499810151000,10.78015087890625,10.841583415091037,0.8920824027314782,5.983992576783895
1761470499820127000,10.790126953125,10.945202779519557,0.4449266642525792,4.703309792655706
1761470499830103800,10.800103759765625,12.191269008296727,0.03268704859316349,2.6927134820878504
1761470499840080100,10.810080078125,13.02195527756214,-0.06881437383331358,0.4746892402337864
1761470499850057000,10.820056884765625,12.955198201584816,0.5838898753933608,-1.141065127666667
1761470499860033000,10.830032958984376,12.579444150018691,1.1585407977983355,-1.4421481883257627
1761470499870008800,10.8400087890625,11.895597962749004,1.4389493922844527,-1.043735730227828
1761470499879986000,10.84998583984375,10.760800151848793,1.7574872264176606,-0.7734529545672237
1761470499889962000,10.8599619140625,8.77334214028418,1.7085349794611333,0.37973833542931823
1761470499899937800,10.869937744140625,8.828697532281279,1.7531489049524067,0.3893554010150954
1761470499909915000,10.879914794921875,8.12081405134201,1.758513208464533,0.3202977199451998
1761470499919891000,10.889890869140626,4.62530826908648,2.368723227767646,-1.458095406781137
1761470499929867000,10.899866943359376,-17.016809342348573,2.527220722070336,-6.00468582072258
1761470499939843800,10.90984375,-10.854739833784103,0.31812673258166757,-9.16318492295742
1761470499949820200,10.919820068359375,5.5328544906705615,0.8252965390510857,-7.646179938828944
1761470499959796000,10.9297958984375,3.692242990842461,-1.4461559626623988,-0.680826985578984
1761470499969773000,10.93977294921875,-0.2678893046528101,-3.0551734600558875,1.6176934096716344
1761470499979748900,10.949748779296876,-8.355036064192651,0.4227197278153151,1.6927157712996006
1761470499989725000,10.959724853515626,-9.43801074887514,4.1557776171922685,-2.0765126979373396
1761470499999702000,10.969701904296874,-4.9634524287045,3.9033927556633947,-2.098361395521462
1761470500009677800,10.979677734375,-4.204755290850997,5.058774504908919,-0.5497515320133417
1761470500019655000,10.989655029296875,-6.166312552961707,3.9215924292206763,3.234968301670253
1761470500029631000,10.999630859375,-11.060423734414577,1.6280588824719189,4.131624295927584
1761470500039607000,11.00960693359375,-12.862407689684629,-1.4266929911710322,3.55142845274657
1761470500049583900,11.019583984375,-8.972178951498865,-3.471561135305464,4.838718964576721
1761470500059560000,11.029559814453124,-3.4918472597479817,-0.8792720940623432,4.975383104994893
1761470500069536000,11.039535888671875,-3.106999216622114,0.9883595877036452,3.4039468579769134
1761470500079513000,11.04951318359375,-6.188170749026536,0.5887071394819766,0.47263618016149844
1761470500089489000,11.059489013671875,-9.109436381635069,0.6294033800728619,-1.0144447538137435
1761470500099465000,11.06946484375,-10.857627371919154,3.2765199169814583,-1.2670223614357412
1761470500109442000,11.079442138671874,-11.085852774703502,6.437839337334037,-0.7796632804494351
1761470500119417900,11.08941796875,-11.495844611436128,6.901496713280677,0.3781842743877321
1761470500129394200,11.099394287109375,-11.663272723430394,2.4788717017039654,2.5426681743100286
1761470500139371000,11.10937109375,-7.623401120787858,0.13878423784468322,3.3373730296120048
1761470500149347000,11.11934716796875,-3.9529116965919733,0.2849557729290798,2.3264766159296033
1761470500159323000,11.129322998046876,-2.510618546837568,0.22820381200704723,1.1942727670453488
1761470500169300000,11.139300048828124,-1.430416833999753,0.08253584253061562,1.4964876812785863
1761470500179276000,11.149276123046874,-0.4512836320638656,-0.5025166469013318,1.5860191913828252
1761470500189252900,11.1592529296875,0.8743833721727132,-0.9116860248025506,1.7883064353123306
1761470500199229000,11.16922900390625,2.4716508105397224,-1.0739026126936078,2.151133493027091
1761470500209205000,11.179205078125,2.6773721205711363,-1.2064688893388955,1.979190095565468
1761470500219182000,11.18918212890625,3.844536662068963,-1.5301941360473632,1.793731090709567
1761470500229158000,11.199157958984374,5.028497440066934,-1.9463826354630291,2.2274312814183532
1761470500239134000,11.209134033203124,4.700812130621076,-2.001492236005515,2.008777278447151
1761470500249111000,11.219111083984375,3.7248464528053997,-2.2095818826034663,1.5362120811626314
1761470500259086800,11.2290869140625,2.6649112829267976,-2.4169553437560793,1.4668747794337569
1761470500269063000,11.23906298828125,2.240446099683642,-1.7125626275420187,1.55090199303329
1761470500279039700,11.249039794921876,2.172062299287319,-0.881443665947765,2.029590641634166
