time,seconds_elapsed,z,y,x
1761476163382783700,0.11678369140625,-0.03466799327731132,-0.23557342745959758,-0.4685352111160755
1761476163392820500,0.126820556640625,-0.1569628320813179,-0.23445114543139933,-0.3929685500109568
1761476163402856700,0.136856689453125,-0.02716390125751495,-0.28456980581879615,-0.21098507577851414
1761476163412892700,0.146892578125,0.07054360877871513,-0.2209317386448383,-0.09155026604812591
1761476163422928600,0.1569287109375,-0.20875380959510803,-0.037144028002023696,-0.09657046883031725
1761476163432964600,0.166964599609375,0.022455577436089516,-0.006429156264662742,-0.14283292871359735
1761476163443000600,0.17700048828125,0.007995090407133101,0.1388239488005638,-0.10960819304715841
1761476163453036500,0.18703662109375,-0.35434359926879405,0.41568157280683515,-0.07724084139503538
1761476163463073800,0.19707373046875,-0.659233139538765,1.0047469511419533,-0.006882526055350899
1761476163473109800,0.20710986328125,-0.49415597458481786,1.3157184416741132,0.2701387275474146
1761476163483145700,0.217145751953125,0.09897299992740154,0.9111708418220281,0.11008501677867025
1761476163493181700,0.227181640625,0.25192133567035196,0.18617022186517715,0.05388875351063907
1761476163503217700,0.2372177734375,0.8019722159564494,-0.9526742340773343,0.2748128568382934
1761476163513253600,0.247253662109375,1.4421598787635563,-1.4689485169678926,0.9477722873799502
1761476163523289600,0.25728955078125,1.2340958049982786,-0.8889180934816598,1.129281677827239
1761476163533326600,0.26732666015625,1.3028992921113967,-0.5627665694743395,1.2620077481441199
1761476163543362600,0.277362548828125,1.5908996569007634,-0.8407599195122718,1.19231228062734
1761476163553398500,0.2873984375,1.3972323572784662,-1.5217746827483176,1.0603194930210709
1761476163563434500,0.2974345703125,1.114858015677333,-1.4121516939908265,-0.03267782410709187
1761476163573470700,0.307470703125,1.0744400805711745,-0.21602818451225755,-0.9630821577798575
1761476163583506700,0.317506591796875,1.599129140585661,0.25194939272105693,-0.6828079302631318
1761476163593542700,0.327542724609375,1.7398814271003007,0.18510171585083007,-0.06939960810905323
1761476163603579600,0.33757958984375,1.1966928337991236,0.6940805810362101,0.4029826520903036
1761476163613615900,0.347615966796875,0.8314274430215358,1.2051759999841452,1.1237825689543037
1761476163623651800,0.35765185546875,1.4348136076539755,1.1074643982946872,1.2285666663132606
1761476163633687800,0.367687744140625,2.198565690809488,0.7057786176145077,0.6305846257466823
1761476163643723800,0.377723876953125,2.590851774981618,0.5054956992447376,0.3586526215743273
1761476163653759700,0.387759765625,2.1343436862677336,0.06557108106315136,0.7424459680154919
1761476163663795700,0.397795654296875,1.59920512843132,-0.49575844134539365,0.9142403123952448
1761476163673832700,0.407832763671875,2.1082705028563735,-0.5929492340311407,0.18060666945390402
1761476163683868700,0.41786865234375,2.677451031026244,-0.003491641508042812,-0.8742571154445409
1761476163693904600,0.427904541015625,2.765768781426549,1.1583780084520579,-1.5727337394826113
1761476163703940600,0.437940673828125,2.8109266045361756,2.02878166333884,-1.5573158055983483
1761476163713976600,0.4479765625,2.4207260944664477,1.7899588786944747,-1.014784214901179
1761476163724012500,0.458012451171875,2.545467741900682,1.6979317523822188,-0.2579833756556734
1761476163734048500,0.468048583984375,2.0036527750402686,1.8130042387172578,-0.1104256469098851
1761476163744085500,0.47808544921875,2.1828987506002187,2.075804988059401,-0.35588034384939815
1761476163754121500,0.48812158203125,2.8427064751565454,2.576806298494339,-0.6546669276017695
1761476163764157400,0.498157470703125,3.608172961014509,2.6963538844168187,-0.8276139491479844
1761476163774193400,0.508193359375,4.0080362024426455,2.439759588499367,-0.8684688143666833
1761476163784229600,0.518229736328125,4.191322977825999,2.057571412232518,-0.8443020490985363
1761476163794265900,0.528265869140625,3.939737157720327,1.7380147564455866,-0.988960841532424
1761476163804301800,0.5383017578125,3.6696611566781994,1.6291136522218583,-1.1219345299348233
1761476163814338600,0.548338623046875,3.617643384671211,1.1475991325452923,-0.7481149535626173
1761476163824374800,0.558374755859375,3.9127415987670418,0.30058015263825655,0.20814842758048324
1761476163834410800,0.56841064453125,4.114269548761844,-0.8900912289142608,1.0548289327807723
1761476163844446700,0.57844677734375,3.1779519907236096,-1.8673215198382733,1.6429054462090134
1761476163854482700,0.588482666015625,1.5799258429437875,-2.3400834087386726,1.871765785896033
1761476163864518700,0.5985185546875,0.3341547977209091,-2.76137463812083,1.4997121962830424
1761476163874554600,0.6085546875,-0.5864513964444399,-3.164553287707269,0.9390705100081861
1761476163884590600,0.618590576171875,-1.5886258667498827,-3.2185406062215565,0.25282376440279186
1761476163894627600,0.628627685546875,-3.823713654270768,-2.4792051714420316,-0.7120327095732093
1761476163904663600,0.63866357421875,-6.335427010607719,-1.300190909935534,-1.5707812902405858
1761476163914699500,0.648699462890625,-8.797489324069023,-0.8452531392782926,-1.4331776770152151
1761476163924735500,0.658735595703125,-9.053091978600621,-0.774111564606428,-2.6610218742728233
1761476163934771500,0.668771484375,-9.217471808940171,-0.3351324105814099,-1.8404196305178104
1761476163944807400,0.678807373046875,-10.627971059548853,-0.5476268680095673,-0.9897738384157418
1761476163954843600,0.68884375,-10.879918698704243,-1.1516016461849212,-0.8580540225319564
1761476163964880600,0.698880615234375,-11.571105311864613,-1.2234604292154312,-0.39322526471838354
1761476163974916600,0.70891650390625,-12.191857037317751,-1.352674253627658,-0.13515022872388363
1761476163984952600,0.71895263671875,-12.51730245888233,-1.551289531046152,-0.05009681388176977
1761476163994988800,0.72898876953125,-12.5987474009037,-1.7872247775554655,-0.03328026524595916
1761476164005024800,0.739024658203125,-12.476066777652502,-2.011404996602237,-0.24206176656559109
1761476164015060700,0.749060791015625,-11.995129181081056,-2.2204374770082533,-0.7547505921848118
1761476164025096700,0.7590966796875,-11.152385394275187,-2.34324523377046,-1.470905057863146
1761476164035133700,0.7691337890625,-10.056360089361666,-2.287940402916819,-2.123287893115729
1761476164045169700,0.779169677734375,-8.780031993311644,-2.20303363000378,-2.691452083849907
1761476164055205600,0.78920556640625,-7.417956289610267,-2.031853618130088,-2.9561271026313305
1761476164065241600,0.79924169921875,-6.026769642236829,-1.83159437289685,-2.6461627433151005
1761476164075277600,0.809277587890625,-4.647355850243568,-1.564751362426579,-1.8332893402464687
1761476164085313500,0.8193134765625,-3.826921510401368,-1.0499097426876425,-1.1123261591121554
1761476164095349500,0.829349609375,-2.9435025988578793,-0.47749885429441924,-0.6419980732299387
1761476164105385500,0.839385498046875,-1.6352046625733374,-0.07641659246534109,-0.19035612924769518
1761476164115422700,0.849422607421875,-0.22348317669332027,0.11476795043051242,0.22120222614929078
1761476164125458700,0.859458740234375,1.3523480904132128,0.3082423578292131,0.5768532547548413
1761476164135494700,0.86949462890625,2.7838451208651063,0.7304492407515645,0.8635198867224156
1761476164145530600,0.879530517578125,4.108301580268145,1.1978303133964538,0.9299969767145811
1761476164155566600,0.889566650390625,5.302282232499122,1.5805965818122027,1.0690668631002307
1761476164165602600,0.8996025390625,6.293477043628692,1.9030814000055192,1.1436728990122675
1761476164175638800,0.909638671875,7.251734046274423,2.1025410192936658,1.2636221976034343
1761476164185675500,0.919675537109375,8.166046693253517,2.327979129447043,1.4678640827320515
1761476164195711500,0.92971142578125,8.885302632078528,2.680151522156596,1.61536087507084
1761476164205747700,0.939747802734375,9.269626359069347,2.90148248925209,1.8171664729632435
1761476164215783700,0.94978369140625,9.199482563263178,3.0282278777241705,2.0021694046147167
1761476164225819600,0.959819580078125,9.011453561788796,3.0678961635068056,1.8767520498760044
1761476164235855600,0.969855712890625,8.986677432450652,3.0704706901699304,1.8470801113203166
1761476164245891600,0.9798916015625,9.134851977920531,3.02744520291388,1.9667156677871942
1761476164255927600,0.989927490234375,9.596772154811024,2.972286210271716,1.9234218849837779
1761476164265964800,0.99996484375,9.93841058628559,3.152669665428996,1.6408859230801462
1761476164276000800,1.010000732421875,10.206218642395735,3.4454087491780516,1.328186585842073
1761476164286036700,1.02003662109375,10.473654942584037,3.5647345090433955,1.1180418333452193
1761476164296072700,1.03007275390625,10.54985321612358,3.565068855564296,0.962339961110428
1761476164306108700,1.040108642578125,10.287365478253363,3.51005277852416,0.8890502684939652
1761476164316148000,1.05014794921875,9.841630127966404,3.394782431529462,0.8437497489780187
1761476164326184000,1.060183837890625,9.312525589597225,3.520001048825681,0.9170169375017285
1761476164336220000,1.070219970703125,8.648430981501937,3.7506653691947456,0.9360358184874057
1761476164346257000,1.0802568359375,8.011473386657238,3.7337294319629666,0.7375134069841355
1761476164356292900,1.09029296875,7.546787252184748,3.4244705905675885,0.3701569622114301
1761476164366328800,1.100328857421875,6.949787573719024,3.195022367990017,0.0382795713705942
1761476164376365000,1.110364990234375,6.1796805685788385,2.986743190169334,0.09832147721610963
1761476164386401000,1.120401123046875,5.364488805565237,2.374843171952665,0.23593285362282768
1761476164396437000,1.13043701171875,4.201918021598458,1.8028291739225386,0.35862098432704803
1761476164406473000,1.140472900390625,2.781593542546034,1.3133172257512806,0.707457875938341
1761476164416509000,1.150509033203125,1.0903425831019877,0.44892304041236636,1.1724650590587407
1761476164426546000,1.1605458984375,-0.9874480258166789,-0.8025219587936997,1.42836618508026
1761476164436582000,1.170581787109375,-3.3065888920307156,-1.8619708064600824,1.118432951554656
1761476164446617900,1.180617919921875,-5.016131294968724,-2.5522952498331666,0.46800625533852724
1761476164456653800,1.19065380859375,-7.013520333439112,-2.703529475134611,-0.08098907887949608
1761476164466689800,1.200689697265625,-9.112875708433986,-2.431018063639104,-0.6570223316214978
1761476164476725800,1.210725830078125,-10.491305165565013,-2.61058903336972,-1.2322843716621399
1761476164486762000,1.220761962890625,-12.051160280382632,-2.9057094592973587,-1.6012247976906597
1761476164496798000,1.2307978515625,-12.766900320041179,-3.297039850179851,-2.4195035669341682
1761476164506835000,1.2408349609375,-12.985546578097342,-3.5914264088749883,-2.9854093112170697
1761476164516871000,1.250870849609375,-13.918307904958723,-3.656004971769452,-2.8274881554976106
1761476164526907000,1.260906982421875,-14.562558579421042,-3.896648542100191,-2.2301494543358684
1761476164536942800,1.27094287109375,-15.21206878184676,-4.321055565415323,-1.3829374360747635
1761476164546979000,1.28097900390625,-15.301817441833018,-4.876387893235683,-0.6449084077186882
1761476164557015000,1.29101513671875,-14.915743071782588,-5.423761078745127,-0.2579603235736489
1761476164567051000,1.301051025390625,-14.519101715010404,-5.760623381859064,-0.3612674437152222
1761476164577087000,1.3110869140625,-13.806561348176002,-5.745622796604037,-0.782851335901022
1761476164587124000,1.3211240234375,-12.509708350491524,-5.307168250975012,-1.4183324284523724
1761476164597160000,1.331159912109375,-10.61999584288597,-4.493346607270836,-1.999033006285131
1761476164607196000,1.34119580078125,-8.548937172570824,-3.6032521634861823,-2.2229491675682365
1761476164617232000,1.35123193359375,-6.654792235475778,-2.9231811108410355,-1.69467508867383
1761476164627267800,1.361267822265625,-5.201881245595216,-2.3047864699080587,-0.6740867175385356
1761476164637303800,1.3713037109375,-4.108779719173908,-1.4919403932377695,0.0527743625279516
1761476164647339800,1.38133984375,-3.199948133954406,-0.8369707563623785,0.3824520513674244
1761476164657377000,1.391376953125,-2.122969474816322,-0.433656789958477,0.5325566881170496
1761476164667413000,1.4014130859375,-0.6444774689555168,-0.07821355888471007,0.4706794931357726
1761476164677449000,1.411448974609375,1.0462427446126936,0.4686278578355908,0.3741430361729115
1761476164687485000,1.42148486328125,2.66462662076652,0.955289677272737,0.33941432568430896
1761476164697521000,1.43152099609375,4.242765580293536,1.242711365391314,0.3791420865692198
1761476164707556900,1.441556884765625,5.754795114096999,1.5809586931228636,0.36525983781963584
1761476164717592800,1.4515927734375,7.134840774253011,1.8467527790620921,0.41855040624141693
1761476164727629000,1.461629150390625,8.202128644981979,1.9621946832314132,0.7997818663053214
1761476164737665800,1.471665771484375,8.770797716498375,2.1081796097025274,1.1885588463779537
1761476164747701800,1.48170166015625,8.990320172867179,2.269550029093027,1.5258290727056563
1761476164757738000,1.491738037109375,9.079372667282819,2.244036817651987,1.729078878057003
1761476164767774000,1.50177392578125,9.308291313028334,2.185818145178258,1.8172624806836246
1761476164777810000,1.511809814453125,9.522852932119369,2.293226672756672,1.935867963450402
1761476164787846000,1.521845947265625,9.581493921658396,2.55813550029397,1.937189129051566
1761476164797881900,1.5318818359375,9.793872351491451,2.9176220154091714,1.7849010107830166
1761476164807917800,1.541917724609375,10.165303279161453,3.0986335393369195,1.575947733093053
1761476164817955000,1.551955078125,10.508513489997386,3.175829299481213,1.41269559160918
1761476164827991000,1.561990966796875,10.658642092144488,3.2775790706455705,1.0539593834046275
1761476164838027000,1.572027099609375,10.599451067507266,3.382156758712232,0.7659742161843925
1761476164848063000,1.58206298828125,10.247503423464298,3.5542116537243125,0.7107285681720823
1761476164858099000,1.592098876953125,9.837524446213244,3.6933003909409043,0.7365678697623312
1761476164868135000,1.602135009765625,9.232083687138557,3.786267720712721,0.7952952954757958
1761476164878171000,1.6121708984375,8.628900351601839,3.8376480715990064,0.7589068350814282
1761476164888206800,1.622206787109375,8.173845968827605,3.8749572270348667,0.6809563110470771
1761476164898243800,1.632243896484375,7.337105806350707,3.871364755500853,0.44183651621751485
1761476164908279800,1.64227978515625,6.695954266947507,3.8375118779987094,0.05824256480596959
1761476164918315800,1.652315673828125,6.29859277920723,3.720207394827902,-0.22949491126351057
1761476164928352000,1.66235205078125,5.734498175999522,3.434378528858721,-0.22554270303901283
1761476164938388000,1.672387939453125,5.2472863214641805,2.8453119814798233,0.348032516425848
1761476164948424000,1.682423828125,4.51443323444128,2.124616072979569,0.9693949941884725
1761476164958460000,1.6924599609375,3.612342940175533,1.2723340579777955,1.2538565903924406
1761476164968495900,1.702495849609375,2.586962950849533,0.3388169443130493,1.3018661496713757
1761476164978533000,1.712533203125,1.3484668650656937,-0.652643824276328,1.5087512427851557
1761476164988569000,1.722569091796875,-0.0034305589705705642,-1.8952213341549038,1.7246294974327085
1761476164998605000,1.73260498046875,-1.3712369152784347,-3.2745915792673825,1.6000556077808141
1761476165008641000,1.74264111328125,-3.208417856135964,-4.128329638296366,1.2674654290281235
1761476165018677000,1.752677001953125,-5.409742490264773,-3.8491593534335493,0.6118275375023484
1761476165028713000,1.762712890625,-8.112940541487932,-2.8446079248636957,-0.25985996491620317
1761476165038749000,1.7727490234375,-11.123089157164095,-2.1436036820441484,-0.7941650493368506
1761476165048785000,1.782784912109375,-13.320455409055947,-1.837801118582487,-1.1954867459449916
1761476165058822000,1.79282177734375,-14.545866972339152,-2.0517142106369137,-1.4077100582815707
1761476165068857900,1.80285791015625,-14.772584308648108,-2.5234859194561836,-1.5509361875638366
1761476165078893800,1.812893798828125,-14.277949026113747,-3.4390719473719593,-1.2080791740797459
1761476165088929800,1.8229296875,-13.867806382733583,-4.1928941726654765,-0.4884083343109116
1761476165098965800,1.8329658203125,-13.436706291520595,-4.867118545109033,0.18129742819704114
1761476165109002000,1.843001953125,-13.401778770524263,-5.653924756115675,0.46280214735679326
1761476165119038000,1.853037841796875,-13.27369716501236,-6.0895104683101176,0.24802063843738287
1761476165129074000,1.863073974609375,-13.023248239982127,-5.9672986316144465,-0.41441765381824225
1761476165139110000,1.87310986328125,-12.740963914752006,-5.465919135516882,-1.2501222261697054
1761476165149147100,1.883147216796875,-12.264265270924568,-4.431568196488916,-2.1319985844463107
1761476165159183000,1.89318310546875,-11.090641178023814,-3.0644147511318325,-2.569412681111693
1761476165169219000,1.903218994140625,-9.819545721930265,-1.868262015558779,-2.209561716598272
1761476165179255000,1.913255126953125,-8.337992574933171,-0.9657347911804914,-1.2589980449341236
1761476165189291000,1.923291015625,-6.588958704084158,-0.6129743694499135,-0.38590394538696854
1761476165199327000,1.933326904296875,-4.893284667500853,-0.6230044728159904,0.08489888186752796
1761476165209363000,1.943363037109375,-3.0870781260997053,-0.6667573975637555,0.08373246843665838
1761476165219399000,1.95339892578125,-1.1743652666568756,-0.4737140750586986,-0.17883483747579157
1761476165229435000,1.963434814453125,0.9935498498231172,0.022945699040591714,-0.4869071725003421
1761476165239471900,1.973471923828125,3.332573228114843,0.4377390908360481,-0.25979258050210774
1761476165249507800,1.9835078125,5.32983250272572,0.8129556745246053,0.20478914374783633
1761476165259543800,1.993543701171875,6.814718593537807,1.2956506361573934,0.532439308815077
1761476165269579800,2.003579833984375,7.831758624541759,1.833418373453617,0.7532597691051661
1761476165279616000,2.013615966796875,8.494947223708033,2.22550250531286,0.9921902519077062
1761476165289652000,2.02365185546875,8.815144807747005,2.4965236782506106,1.1888860325057058
1761476165299688000,2.03368798828125,9.148292474251985,2.7176868875637648,1.3674097582057119
1761476165309724000,2.043723876953125,9.398125313210487,3.0320512354046105,1.461840146267414
1761476165319760100,2.053760009765625,9.531233222451805,3.222448427315056,1.5044427319362759
1761476165329797000,2.063797119140625,9.511946922701597,3.3569863693594932,1.5880466055572031
1761476165339833000,2.0738330078125,9.655772625312208,3.465714162842929,1.5564093582779168
1761476165349869000,2.083869140625,9.979184495222569,3.5883582534760237,1.5201920897319912
1761476165359905000,2.093905029296875,10.33289739537239,3.625575346714258,1.506256795620918
1761476165369941000,2.10394091796875,10.62223456172347,3.5406884475454685,1.4064055515542626
1761476165379977000,2.11397705078125,10.715470479303598,3.591801964189112,1.231952070967853
1761476165390013000,2.124012939453125,10.672261452174187,3.710122346404195,1.0305790923390536
1761476165400049000,2.134048828125,10.39944053633809,3.826566705614328,0.8318574319366365
1761476165410084900,2.1440849609375,9.98007413753867,3.888544730621576,0.6536972788520157
1761476165420120800,2.154120849609375,9.565343581846356,3.9059091223984956,0.4233705929394811
1761476165430157800,2.16415771484375,9.125376878088712,3.9324125139206645,0.22966135387159883
1761476165440194000,2.174194091796875,8.80847716655135,3.9728438930302854,-0.02405570610910654
1761476165450230000,2.18422998046875,8.460586104422807,4.0453105788260695,-0.12957703170143067
1761476165460266200,2.194266357421875,7.8567165401875965,4.096880607065558,-0.06540065639968962
1761476165470302200,2.20430224609375,7.286516605842113,4.012935080400109,-0.047029389135167
1761476165480338200,2.214338134765625,6.6778902024686335,3.690848906135559,-0.10186145137790589
1761476165490374100,2.2243740234375,5.966524724632501,3.2502368902117014,-0.007381525086052715
1761476165500410000,2.23441015625,5.240262706437707,2.664136791422963,0.09546846240516751
1761476165510446000,2.244446044921875,4.069066132944822,1.9803478872984646,0.03293667597267776
1761476165520482000,2.25448193359375,2.745193026387691,1.0757380114272237,-0.0513074317805469
1761476165530519000,2.26451904296875,1.4982558599948883,-0.4463064281731844,-0.25409360167551787
1761476165540555000,2.274554931640625,0.2621516377836466,-2.255227196969092,-0.17994455228336154
1761476165550591000,2.284591064453125,-0.6097019236505031,-3.390465737374127,0.12644841481950134
1761476165560627000,2.294626953125,-2.0168688149660823,-3.280065042242408,0.3555019024584442
1761476165570663000,2.304662841796875,-4.430795750811696,-2.5819182346805927,-0.1846086899031885
1761476165580699000,2.314698974609375,-7.939818017244338,-1.9104297169417142,-1.2872050255037844
1761476165590734800,2.32473486328125,-11.296914276719093,-1.585622593280673,-2.0075302009955047
1761476165600771000,2.33477099609375,-14.260819027614593,-1.798067366348207,-2.247151734802127
1761476165610807000,2.34480712890625,-16.03657080951929,-2.163966378854215,-2.070374341312796
1761476165620843000,2.354843017578125,-16.542147172784805,-2.464317398911714,-1.507775091229379
1761476165630879000,2.36487890625,-16.26260776234865,-3.108914402593672,-0.7600752212736755
1761476165640916200,2.374916259765625,-15.733966165316104,-3.9045647220522164,-0.140219659208972
1761476165650952200,2.3849521484375,-15.283194574427604,-4.433030377995967,0.3778956667046994
1761476165660988200,2.39498828125,-14.889617281401156,-4.909886842733622,0.48414165330976244
1761476165671024000,2.405024169921875,-14.329841710436343,-5.278479332107305,0.2035926274396479
1761476165681060000,2.41506005859375,-13.178609482085704,-5.382509030902385,-0.36677966779805715
1761476165691096000,2.425095947265625,-11.890782671421766,-5.145726227653026,-0.9659384239938109
1761476165701132000,2.435132080078125,-10.276743546473979,-4.673234680126607,-1.533083427748084
1761476165711168000,2.44516796875,-8.689755510059,-4.051618154537677,-1.7880974687367677
1761476165721204000,2.455203857421875,-6.815337602218985,-3.450712700805068,-1.5462152965217828
1761476165731240000,2.465239990234375,-4.812586744454503,-2.7857793037980794,-1.0767162818748504
1761476165741277000,2.47527685546875,-3.2618875805169343,-2.08714705080688,-0.4571620591105893
1761476165751313000,2.48531298828125,-2.1722388248980042,-1.4798670936062932,0.10589768462404608
1761476165761348900,2.495348876953125,-1.3081570665091276,-1.0100403813749552,0.5701967925403267
1761476165771384800,2.505384765625,-0.4460620980232954,-0.5508700877144932,0.9067202921539544
1761476165781421000,2.515421142578125,0.4967459910780191,-0.07045008527636527,0.9782331843562424
1761476165791457000,2.52545703125,1.7168173623770475,0.31275691264420746,0.9738888715416193
1761476165801493000,2.535492919921875,3.0833816096693276,0.6255421746000647,0.9277481018092483
1761476165811529000,2.545529052734375,4.402816441518068,0.9733563721001147,0.8563806824922561
1761476165821565000,2.55556494140625,5.543932934045792,1.343080495852232,0.7915727678213268
1761476165831601000,2.565600830078125,6.347595002785325,1.7514166743323205,0.840385314046219
1761476165841637000,2.57563720703125,6.699252139449119,2.048947376272082,1.0369988231882452
1761476165851674000,2.585674072265625,6.668517393967509,2.2262600456818937,1.2291324835024773
1761476165861710000,2.5957099609375,6.598639555621147,2.3777605207040904,1.3406452315293251
1761476165871746000,2.60574609375,6.661221391740441,2.537098265223205,1.39387749389261
1761476165881782000,2.615781982421875,6.873562996694445,2.58131763843894,1.3752511193558572
1761476165891818000,2.62581787109375,7.23846130772531,2.546148417641222,1.3008759695902465
1761476165901854000,2.63585400390625,7.966865014123917,2.4945076622530817,1.1080218860469757
1761476165911890000,2.645889892578125,8.906768029433488,2.3697806278660893,0.9399389634057879
1761476165921926100,2.655926025390625,9.515123214650153,2.39841664750278,0.7962455819379538
1761476165931962000,2.665962158203125,9.884777195775508,2.401907412227988,0.7445682939317076
1761476165941998000,2.675998046875,9.962054496723413,2.29153214379847,0.873886674696952
1761476165952035000,2.68603515625,9.685559276288748,2.3599346488952637,1.0120420765861868
1761476165962071000,2.696071044921875,9.18980054268241,2.5134113924264905,0.8462275372684002
1761476165972107000,2.70610693359375,8.571498548468947,2.43911953703016,0.5878571715891361
1761476165982143000,2.71614306640625,8.00313342833519,2.2532611575931307,0.3488988874642178
1761476165992179000,2.726178955078125,7.609819170159101,2.202987891165912,0.07795446955710648
1761476166002215000,2.73621484375,7.345255795058607,2.1975933386459947,-0.2486137089597061
1761476166012251000,2.7462509765625,6.881710647314787,2.1985370492368936,-0.4998271155564114
1761476166022287000,2.756287109375,6.078190032872557,1.9562968573644757,-0.41424284524060784
1761476166032323000,2.766322998046875,5.104080796578526,1.5547969546452163,-0.11961754588615149
1761476166042359000,2.776359130859375,4.046589512720704,1.0072630256161093,0.12140351598747073
1761476166052396000,2.78639599609375,2.714291107645631,0.35115386331677434,0.2927244524355046
1761476166062432000,2.796431884765625,1.1265934616565703,-0.7652277086660265,0.5891178391747176
1761476166072468000,2.806468017578125,-0.523455134305358,-2.307629876640439,0.9244686417471617
1761476166082504000,2.81650390625,-1.7292209168761967,-3.8228471005693074,1.0831084671299904
1761476166092540000,2.826539794921875,-3.052052405425906,-4.521440775115788,0.7852868194196373
1761476166102576000,2.836576171875,-4.570406466075778,-4.128941340453922,0.3189349436920136
1761476166112612000,2.846612060546875,-6.419167370089888,-3.3419512973129746,-0.37832065065111964
1761476166122648000,2.85664794921875,-8.8191633957386,-2.7336279685392975,-0.6974293800074607
1761476166132684000,2.86668408203125,-10.642128179717064,-3.016024814233184,-0.4804527356639504
1761476166142720000,2.876719970703125,-12.19855682721734,-3.0316014458104967,-0.5424473830124363
1761476166152757000,2.886757080078125,-12.78034666159153,-2.4558310178563,-0.8656262844171374
1761476166162793000,2.89679296875,-12.830752322226761,-2.3621876885190605,-0.8466269849147647
1761476166172829000,2.906828857421875,-12.927379635810851,-2.8086238805517554,-0.26033410350028424
1761476166182865000,2.916864990234375,-12.694562229061125,-3.3018273767173287,0.02800661742566153
1761476166192901000,2.926901123046875,-12.48267304404974,-3.450770276211202,0.0410805272007361
1761476166202937000,2.93693701171875,-11.906968082547188,-3.5999075292333957,-0.12197362575931474
1761476166212973000,2.94697314453125,-11.297279018378257,-3.621168343926966,-0.25190948083577674
1761476166223009000,2.957009033203125,-10.313564918392895,-3.7050405130952595,-0.4134738336294889
1761476166233045000,2.967044921875,-8.948815611568092,-3.642527066037059,-0.5691262772319838
1761476166243081200,2.977081298828125,-7.587462961444258,-3.173402949117124,-0.9038532122850418
1761476166253118000,2.987117919921875,-5.631408388403058,-2.4875065513193606,-1.5431418804258108
1761476166263154000,2.99715380859375,-3.3233658393085,-2.0007544232502577,-2.5275410400658846
1761476166273190100,3.007190185546875,-2.141774128529429,-0.27248890740275383,-1.6025193675458431
1761476166283226000,3.01722607421875,-0.7727928832232952,-0.27542028467953206,-1.3809424628652631
1761476166293262000,3.027261962890625,0.17235972317755222,0.2528875503540039,-0.7444582576859742
1761476166303298000,3.037298095703125,0.6942477542966604,0.7929626878097653,0.15981193790212272
1761476166313334000,3.047333984375,1.5963152522087096,0.9515326628267764,0.7564690865404904
1761476166323369700,3.05736962890625,3.2209131805717943,0.8866478104621172,0.8229145392853766
1761476166333405700,3.06740576171875,4.176767213729024,1.1330503827109932,0.5800233361583202
1761476166343441700,3.077441650390625,4.509343217825889,1.4627451322831213,0.3453505108002573
1761476166353477600,3.0874775390625,4.904315180081129,1.6396467366740106,0.265767928584665
1761476166363515000,3.097514892578125,5.069503988716006,1.7627793414764106,0.433913614263758
1761476166373550800,3.10755078125,4.857431263831257,1.9167526363529264,1.07496388524957
1761476166383586800,3.1175869140625,4.9571606350839135,1.8483762886106967,1.608332729999721
1761476166393622800,3.127622802734375,5.377665098002553,1.8737525757990776,1.6996689514383672
1761476166403658800,3.13765869140625,6.134371354299783,2.1437001281559467,1.696107459564507
1761476166413695000,3.147695068359375,6.99826665020585,1.9379528069004415,1.6326668146587908
1761476166423731000,3.15773095703125,7.761809474524855,1.7084715588361024,1.3533596055433152
1761476166433767000,3.167766845703125,7.88832397685051,1.96016756131798,1.1842159948680548
1761476166443803000,3.177802978515625,8.121808907598256,1.9719629207909106,1.343539053274691
1761476166453840000,3.18783984375,7.796482143977284,1.9934894006833432,1.6666870115518568
1761476166463875800,3.197875732421875,7.465460968106985,1.815527619715035,1.7389181350260972
1761476166473911800,3.207911865234375,7.838941229522228,2.1685808869123457,1.4375272505268453
1761476166483947800,3.21794775390625,7.8728277170330285,2.986937543697655,1.3532748498693108
1761476166493983700,3.227983642578125,7.5391738545715805,2.9296807019934055,1.2296014161884783
1761476166504019700,3.238019775390625,7.674248095449805,2.441383974830806,0.7485076792072505
1761476166514055700,3.2480556640625,7.726366989743709,2.439476095382869,0.16631540151201188
1761476166524091600,3.258091552734375,7.59005297793746,2.759771879099309,-0.2045681944735348
1761476166534127600,3.268127685546875,7.636650478461385,3.0398265455812212,-0.27789135096818207
1761476166544163600,3.27816357421875,7.291448801547288,2.969137683112919,0.1391682321935892
1761476166554200800,3.288200927734375,6.315889366444945,2.487855218626559,0.6542705486953259
1761476166564236800,3.29823681640625,5.672369928866624,2.166336907377839,1.0354470637015998
1761476166574272800,3.308272705078125,5.088232070061564,1.6930246911182998,1.3896085844017565
1761476166584308700,3.318308837890625,4.626581357762217,0.781103615450859,1.6332102738857268
1761476166594345000,3.328344970703125,4.054744177603721,-0.3471624555930495,1.8358428241215645
1761476166604381000,3.338380859375,3.1584500023961066,-1.1917679446175693,1.8981812068738042
1761476166614417000,3.3484169921875,1.9282792618870734,-1.8603513885647058,1.645525711710006
1761476166624452900,3.358452880859375,0.026235680496692657,-2.4879630629152056,1.3768284516751765
1761476166634488800,3.36848876953125,-2.0763041697531937,-3.221375829647481,1.7108588923640549
1761476166644524800,3.37852490234375,-4.385302996659279,-3.775799518190324,1.3390038940630853
1761476166654561800,3.388561767578125,-6.934903892841935,-3.08495251224786,0.22629874557070434
1761476166664597800,3.39859765625,-8.833374291920661,-1.922054688283801,-1.362530461731553
1761476166674633700,3.4086337890625,-10.523058732700347,-1.1588932644978165,-2.525641343924403
1761476166684669700,3.418669677734375,-11.870108132183551,-1.0502025881543755,-2.935297080570459
1761476166694705700,3.42870556640625,-12.987374962568282,-1.3996692290365695,-2.633604582776129
1761476166704741600,3.43874169921875,-13.840033409667015,-1.894652302095294,-1.7997537119999527
1761476166714777600,3.448777587890625,-14.355904372453688,-2.3438512368395923,-1.170589182184264
1761476166724813800,3.458813720703125,-14.45189221909046,-2.6717569110378623,-0.80474080388695
1761476166734849800,3.468849853515625,-13.67601189124584,-3.1896167095541954,-0.5815776529282332
1761476166744886000,3.478885986328125,-12.803928612709045,-3.69130337190479,-0.8865540677640587
1761476166754922800,3.4889228515625,-11.723017874819039,-3.8186695226237175,-1.6574461588673293
1761476166764959000,3.498958984375,-10.50764956664443,-3.60816156283766,-2.164272376063466
1761476166774995000,3.508994873046875,-9.44425928787589,-3.4515637646764517,-2.2378838479802012
1761476166785031000,3.519031005859375,-7.9926506127655506,-3.1628584664881227,-1.9387489257141948
1761476166795067000,3.52906689453125,-5.973630757245421,-2.942958701239526,-1.5740008368089795
1761476166805102800,3.539102783203125,-3.933718920344114,-2.56202344764322,-1.5925219974055886
1761476166815138800,3.549138916015625,-2.2115479219794274,-1.6251055856242775,-2.001557264065742
1761476166825174800,3.5591748046875,-1.1208908661007881,-0.6758505123406648,-2.106228037243336
1761476166835210800,3.569210693359375,-0.40917935130596156,0.058418578960001466,-1.5071112204931676
1761476166845246700,3.579246826171875,0.20465514210462568,0.2609440155595541,-0.9046242697227745
1761476166855283700,3.58928369140625,0.6653250266730785,0.4366182701125741,-0.33344358071163294
1761476166865319700,3.599319580078125,1.0011883818775416,0.7419181447491049,0.2953655597951263
1761476166875355600,3.609355712890625,1.3179261808514595,1.0830205696508288,0.42525721040368075
1761476166885391600,3.6193916015625,1.7467314391255377,1.5476549739360808,0.2958108193445951
1761476166895427600,3.629427490234375,2.503902974846959,2.03640002938807,0.3070619158729911
1761476166905463800,3.6394638671875,3.641634501111507,1.8147022748067974,0.0025876053404062984
1761476166915500000,3.6495,4.810128829908371,1.981818836633861,0.3238030611850321
1761476166925536000,3.659535888671875,5.768664064973592,2.0685952028110624,0.5694492621086538
1761476166935572000,3.669572021484375,6.9947273701637975,2.221705158856511,0.8040275410510599
1761476166945609000,3.67960888671875,8.102895532813667,2.1634467388942835,0.9774120041664689
1761476166955645000,3.68964501953125,8.857550701799989,2.2146470570385457,1.1856024807903915
1761476166965681000,3.699680908203125,9.356883202239871,2.283722346830368,1.314310620702803
1761476166975716900,3.709716796875,9.830309108006954,2.4094974289655684,1.322243313398212
1761476166985752800,3.7197529296875,10.018130019688606,2.60407015299499,1.2173366856381296
1761476166995788800,3.729788818359375,10.123837296307086,2.7531732114866374,1.115892911683023
1761476167005824800,3.73982470703125,10.293028326320648,2.9296757335573433,1.0389084562018513
1761476167015860700,3.74986083984375,10.288278501445054,3.135030840624869,0.9106810124784708
1761476167025896700,3.759896728515625,10.082041643106937,3.3781998377799987,0.7432590379640459
1761476167035932700,3.7699326171875,9.95684056146741,3.507516830305755,0.6153554193675518
1761476167045969700,3.7799697265625,10.041720154112577,3.6078088038772345,0.5331507450200617
1761476167056005600,3.790005615234375,9.942558353614807,3.744846746043861,0.47765207209475335
1761476167066041600,3.80004150390625,9.648731474629043,3.8971769498884674,0.47737661615423854
1761476167076077800,3.810077880859375,9.174445737162232,3.878960325196385,0.4384398595165461
1761476167086113800,3.82011376953125,8.538462540307641,3.7322318868815896,0.4280583854295313
1761476167096150000,3.83014990234375,8.01865131546259,3.418615434798598,0.3085303809903562
1761476167106186000,3.84018603515625,7.433230431109666,3.052702978289127,0.2800807873038575
1761476167116222000,3.850221923828125,6.656750383806228,2.5477158130884168,0.4267655326073989
1761476167126258000,3.8602578125,5.796286231392622,1.8837208659753202,0.6897453283108771
1761476167136295000,3.870294921875,5.10401766821444,0.7602753469556569,1.2177926127120853
1761476167146331000,3.880330810546875,4.161565552943944,-0.8647299931645392,1.9998278099246323
1761476167156366800,3.890366943359375,2.359665184304118,-2.276426052342355,2.661749311764538
1761476167166402800,3.90040283203125,0.7461281636595726,-3.345636123305559,2.4430057308137414
1761476167176438800,3.910438720703125,-0.9273772957354783,-3.6245354822725053,1.3763551350750027
1761476167186474800,3.920474853515625,-3.02442497830987,-3.1396640533834694,-0.2130390126336366
1761476167196510700,3.9305107421875,-5.592774414104223,-2.698141644616425,-1.9009547632403672
1761476167206546700,3.940546630859375,-8.590211432245374,-2.3906629646360873,-3.607036065939069
1761476167216582700,3.950582763671875,-11.844669739544392,-1.5626029522210358,-4.737337149941921
1761476167226619600,3.96061962890625,-14.301900395065545,-1.8833675224930047,-5.489278968316317
1761476167236655600,3.970655517578125,-16.141528729075194,-2.063593741261959,-4.363315036734939
1761476167246691600,3.980691650390625,-17.250336358672378,-2.825125225758552,-2.39003314229995
1761476167256727800,3.990727783203125,-18.611221391284463,-3.6821059199705717,-0.5868907377097755
1761476167266764000,4.000763916015625,-19.41338883755207,-4.35987249506563,-0.05533274177387357
1761476167276800000,4.010800048828125,-19.732289952039718,-5.091071677401661,-0.14084358152728527
1761476167286836000,4.0208359375,-19.437340206503865,-5.619721457740664,-0.572757363743335
1761476167296872000,4.030871826171875,-18.484160360991954,-5.705974092304706,-1.2682286684855817
1761476167306908000,4.040907958984375,-17.30014814506769,-5.526718179872632,-1.9705083380684256
1761476167316945000,4.05094482421875,-15.702032565438747,-5.0655964598834515,-2.622047123712301
1761476167326976500,4.0609765625,-13.94030463271141,-4.224473552277684,-2.8767168813079596
1761476167337012500,4.071012451171875,-12.5129571231544,-3.3911841147765514,-2.392036006554961
1761476167347048400,4.08104833984375,-11.158464421927928,-2.7867598392680284,-1.408567990285158
1761476167357084400,4.09108447265625,-9.30766762817204,-2.247343750242889,-0.6088919955071062
1761476167367120400,4.101120361328125,-7.121042550525069,-1.7646514189586042,-0.22505546751134095
1761476167377156600,4.111156494140625,-4.558470529088377,-1.4739038012877106,-0.28803434012420476
1761476167387192600,4.121192626953125,-1.7765110758394003,-1.021730819168687,-0.5372293195705861
1761476167397228500,4.131228515625,0.798477944099903,-0.3169081871047616,-0.6486122306726873
1761476167407265500,4.141265625,2.8032833963066337,0.3352349941730499,-0.4000103217486292
1761476167417301500,4.151301513671875,4.579981519150734,0.8831047310277819,-0.04396203745380044
1761476167427337500,4.16133740234375,6.168645379823446,1.4257482576668261,0.2325189352598041
1761476167437373400,4.17137353515625,7.393692201447487,2.105153832140565,0.41598676629848774
1761476167447409700,4.18140966796875,8.240354038479923,2.7634806704893706,0.42029425423406064
1761476167457445600,4.191445556640625,8.881634172698854,3.3502924246788024,0.6017472383189946
1761476167467481600,4.201481689453125,9.085906452965736,3.7457124229624865,1.007297950799018
1761476167477517600,4.211517578125,9.03934869993031,3.9356016653507946,1.4238072066016494
1761476167487553500,4.221553466796875,9.272264890879391,4.089229507790505,1.6712345918536184
1761476167497590500,4.231590576171875,9.837461317849158,4.359774003127217,1.7104907897040247
1761476167507626500,4.24162646484375,10.57589015917778,4.7754026767030355,1.6225301821783185
1761476167517662500,4.251662353515625,11.288034220170974,5.0536009016633034,1.448281284253299
1761476167527698400,4.261698486328125,11.923106731921434,5.167137264472246,1.2942176807448267
1761476167537734400,4.271734375,12.471286557638644,5.219301751473545,1.2767916219085453
1761476167547770600,4.2817705078125,12.635046210253238,5.304032291036844,1.2567943974100053
1761476167557806600,4.291806640625,12.607117754364014,5.306663808584213,1.1614822580777109
1761476167567842600,4.301842529296875,12.421425671404599,5.28693736385107,0.9589613515228033
1761476167577878500,4.31187841796875,11.937694060200451,5.389728460761904,0.7864577628951519
1761476167587915500,4.32191552734375,11.143806951022148,5.514270201709866,0.6166350839145481
1761476167597951500,4.331951416015625,10.163030658054351,5.536898797625303,0.5227215593338013
1761476167607987500,4.341987548828125,9.238422242510318,5.468442516514658,0.4069700412260368
1761476167618023700,4.352023681640625,8.45832400470972,5.323805497521161,0.1994820503156632
1761476167628059600,4.3620595703125,7.652016974419355,5.148846405500174,-0.017261406326480207
1761476167638095600,4.372095703125,7.0797297124058005,4.8210690338566895,-0.22100071222782133
1761476167648131600,4.382131591796875,6.6142737626045935,4.379599232059717,-0.2987747837167233
1761476167658167600,4.39216748046875,5.839244498631357,3.7950083687901492,-0.14578797912690789
1761476167668203500,4.40220361328125,5.041178057941794,2.8571093867793675,0.06169036717228591
1761476167678240500,4.412240478515625,4.0677737550467254,1.6261483726754784,0.49226157567296175
1761476167688276500,4.4222763671875,2.9154139839708804,0.37097178572565315,0.9127182904597372
1761476167698312400,4.4323125,1.5901520534038542,-0.6099433311909437,0.9701221394192426
1761476167708348400,4.442348388671875,-0.03965864117145538,-1.7486843267589807,0.8648864258352666
1761476167718384400,4.45238427734375,-1.5053168844223022,-3.0218720789566635,0.6576556610889732
1761476167728420600,4.462420654296875,-3.046563744881749,-3.819269242082536,0.35293530337344853
1761476167738456600,4.47245654296875,-5.090765387931466,-3.9453225566372274,0.15733937377613036
1761476167748492500,4.482492431640625,-7.278757077756524,-3.781012576663494,-0.09415887764394283
1761476167758528500,4.492528564453125,-9.61505775308609,-3.6895197033584117,-0.0123450109786354
1761476167768565500,4.5025654296875,-11.61199495613575,-3.929083369497955,0.16888019223241135
1761476167778601500,4.5126015625,-13.15526835398674,-4.329195909512043,-0.18279095469042658
1761476167788637400,4.522637451171875,-14.440844755375384,-4.6059047726973885,-0.5845560842171311
1761476167798673700,4.532673583984375,-14.883310290211439,-4.966708215630054,-0.8059149622328579
1761476167808709600,4.542709716796875,-15.17441505075693,-5.113681568616628,-0.8367296410828828
1761476167818745600,4.55274560546875,-15.159060829758642,-5.247531236135959,-0.41220739389024674
1761476167828781600,4.562781494140625,-15.323625953537224,-5.408483430114388,-0.04143451000386849
1761476167838817500,4.572817626953125,-15.641917996215819,-5.4324143408000465,0.05594225197434425
1761476167848853500,4.582853515625,-15.795934837973117,-5.543595080393552,-0.049535070079471916
1761476167858890500,4.592890380859375,-15.42234936261773,-5.543962160140276,-0.40889688110277056
1761476167868929500,4.602929443359375,-14.687043037223814,-5.203528428280353,-0.9212462456345558
1761476167878965500,4.612965576171875,-13.335408648037909,-4.749671730858087,-1.4057824512198567
1761476167889001700,4.623001708984375,-11.28033723592758,-4.119144169060886,-1.7651941475331783
1761476167899037700,4.63303759765625,-9.068584731286764,-3.3685642866894603,-1.9636267618611454
1761476167909073700,4.64307373046875,-6.587029781848192,-2.6289301612243055,-1.721331624931097
1761476167919109600,4.653109619140625,-3.932915202745795,-2.0393930737242103,-1.3251741061531006
1761476167929145600,4.6631455078125,-1.2694856828093528,-1.384319391952455,-0.8426329468425363
1761476167939182600,4.6731826171875,1.4503361709564924,-0.7232090603649616,-0.4649768610473722
1761476167949218600,4.683218505859375,3.952177537098527,-0.02952800004035234,-0.13896755852233617
1761476167959254500,4.693254638671875,5.742918798342346,0.7168237432420254,0.29556586814019825
1761476167969290500,4.70329052734375,7.040933825543522,1.3973933930590747,0.7887161362811923
1761476167979326500,4.713326416015625,7.704792871317267,2.2210911186113953,1.3034792839564382
1761476167989362400,4.723362548828125,7.711251253676414,3.040409313905239,1.2601396161846816
1761476167999398400,4.7333984375,7.652872129943966,3.7845579941853877,1.0256403938278555
1761476168009434400,4.743434326171875,7.914796388712525,4.213668080624938,1.0039419183693825
1761476168019470300,4.75347021484375,8.54038444828093,4.474744782653451,0.9806786778122186
1761476168029507300,4.76350732421875,9.302655937489867,4.670654015983641,1.2018164604231714
1761476168039543600,4.77354345703125,10.02132735442519,4.598347196924686,1.6302578538209198
1761476168049579500,4.78357958984375,10.867865857338904,4.597374260239302,1.9279715111121534
1761476168059615500,4.793615478515625,11.46965686173439,4.6157793932408095,2.069516117048263
1761476168069651700,4.803651611328125,11.76615442123413,4.565557272478938,2.0410019702255724
1761476168079687700,4.813687744140625,11.884701305681466,4.588137645338476,1.872842913608253
1761476168089723600,4.8237236328125,11.63340365486741,4.696851702557504,1.6291361563146114
1761476168099759600,4.833759521484375,11.098958924514054,4.847238078857958,1.2973564171619714
1761476168109796600,4.843796630859375,10.697257946264743,4.816029578384756,0.9856879573415964
1761476168119832600,4.85383251953125,10.280462274736166,4.713338434717059,0.8328388441894203
1761476168129868500,4.86386865234375,9.814428817307949,4.644000986857712,0.7036915822073817
1761476168139904500,4.873904541015625,9.494587791621685,4.500288973754644,0.6295068404473364
1761476168149940500,4.8839404296875,9.016773295506834,4.305585316821933,0.6221726981669664
1761476168159976400,4.8939765625,8.279833815953134,4.2348458932101725,0.4600668771740049
1761476168170012400,4.904012451171875,7.957775698739289,4.156460923281312,0.30300653953496365
1761476168180048400,4.91404833984375,7.779448007068037,3.9395501107156274,0.22228940033148972
1761476168190085400,4.92408544921875,7.328169051179289,3.562722292438149,0.24440803743079303
1761476168200121300,4.934121337890625,6.447080043888092,3.1188711484625933,0.2854429719241336
1761476168210157600,4.944157470703125,5.579259683492779,2.5363524152919648,0.17585600432809442
1761476168220193500,4.954193603515625,4.711002100723982,1.7299731965482235,0.1360607676975429
1761476168230229500,4.9642294921875,3.4561738888204094,0.7663152116417884,0.1357300013732165
1761476168240265700,4.974265625,2.1583084992229935,-0.22932781106829642,-0.03089516020771116
1761476168250301700,4.9843017578125,0.6679968762308359,-1.631236927986145,0.13614102985952048
1761476168260337700,4.994337646484375,-1.3062100240945815,-3.1560856113523243,0.01838083881046623
1761476168270373600,5.00437353515625,-4.117438826447725,-3.568631224220991,-0.8331034134097397
1761476168280410600,5.01441064453125,-7.909990449735522,-2.930918134833872,-1.5202496651381254
1761476168290446600,5.024446533203125,-11.519876644408702,-2.63535581035763,-1.9637712848983704
1761476168300482600,5.034482666015625,-14.449404493927954,-2.491764793285727,-2.479145550209284
1761476168310518500,5.0445185546875,-16.183912411296365,-2.051815625184774,-2.823809174723923
1761476168320554800,5.0545546875,-17.490974668306112,-1.8669719757482408,-2.9603794993788
1761476168330590700,5.0645908203125,-18.346318408966063,-2.5001310550928113,-2.8135025925040242
1761476168340626700,5.074626708984375,-18.985902260661124,-3.2135707088544962,-2.0387807870447636
1761476168350662700,5.08466259765625,-19.55941409603357,-3.8983652828902002,-0.8674084185935557
1761476168360699600,5.09469970703125,-19.630541057658196,-4.575293361334502,-0.07307948393188417
1761476168370735600,5.104735595703125,-19.277197575342655,-4.99148259140253,0.23251115381214765
1761476168380771600,5.114771484375,-18.06864011622667,-5.3126218402057885,-0.2031030538244173
1761476168390807600,5.1248076171875,-16.37858859570026,-5.386085720345378,-1.0309264444719999
1761476168400843500,5.134843505859375,-14.697847339832782,-5.3576247650146485,-1.8407079459398983
1761476168410879500,5.14487939453125,-12.94153909406662,-5.0797442277014255,-2.339209840774536
1761476168420915700,5.154915771484375,-11.269687247097492,-4.555918798778951,-2.1990509901084003
1761476168430951700,5.16495166015625,-9.458276707312464,-3.8575034034088254,-1.777884117758274
1761476168440987600,5.174987548828125,-7.328056822976469,-3.028727059417963,-1.330431003767997
1761476168451025000,5.18502490234375,-5.0830795096039765,-2.249932013170421,-0.8175796810634434
1761476168461060900,5.195060791015625,-3.075204732954502,-1.5735104229435324,-0.2558844671476632
1761476168471096800,5.205096923828125,-1.296611590144038,-0.7710825721740722,-0.008270473282411693
1761476168481132800,5.2151328125,0.3191962980419397,0.14308160624504088,0.10195749563090503
1761476168491168800,5.225168701171875,1.8188222773462532,0.9565811783879995,0.08292984681688248
1761476168501204700,5.235204833984375,3.426845503005385,1.563408131124079,0.18574885464794932
1761476168511240700,5.24524072265625,5.106486104154587,2.052554753114283,0.35779673539735374
1761476168521276700,5.255276611328125,6.701810007238388,2.438437399984896,0.5028269184269011
1761476168531313700,5.265313720703125,8.05637577370107,2.812520595729351,0.6421449343547224
1761476168541349600,5.275349609375,9.081057259368896,3.1604493595197796,0.8528803462211042
1761476168551385600,5.285385498046875,10.017014751923083,3.3263340414643285,1.1302090948704628
1761476168561421600,5.295421630859375,10.670271739661693,3.4187267862185835,1.3694132069826126
1761476168571457500,5.30545751953125,10.97147353132963,3.61202174539715,1.5680651631496845
1761476168581493500,5.315493408203125,11.101575244492292,3.8293501988530156,1.7855897236995397
1761476168591529700,5.32552978515625,11.172920817303657,3.998557887740433,2.001955323472619
1761476168601565700,5.335565673828125,11.36031035183072,4.212695143939555,2.059614316236973
1761476168611602700,5.345602783203125,11.407482437372208,4.461069600783288,2.0024428147286177
1761476168621638700,5.355638671875,11.490158382493258,4.604288569672406,1.7926129003345965
1761476168631675000,5.3656748046875,11.735836439859867,4.730901856197416,1.5783857738949358
1761476168641710800,5.3757109375,11.849156529569624,4.846386722725629,1.3880983259692787
1761476168651746800,5.385746826171875,11.868950778841972,4.916018477356434,1.155672402755171
1761476168661782800,5.39578271484375,11.756541374236345,4.96763059117198,0.9923487304050475
1761476168671818800,5.40581884765625,11.402221740365027,5.029024678811431,0.8929739447437226
1761476168681854700,5.415854736328125,10.652331593823432,5.075819747734069,0.8012099994122982
1761476168691891700,5.4258916015625,10.02233740825057,4.979693953931331,0.722971817542985
1761476168701927700,5.435927734375,9.599972412157058,4.841363341605663,0.5576398010451347
1761476168711963600,5.445963623046875,9.119688311058283,4.808176234535873,0.34735059857629236
1761476168721999600,5.45599951171875,8.597115804806352,4.778576630564034,0.18467877773102373
1761476168732035600,5.46603564453125,7.984965318959951,4.630448554584384,0.02192877708300948
1761476168742071600,5.476071533203125,7.408927179980277,4.284356650832295,-0.04067596498783677
1761476168752107500,5.486107421875,6.669968177297711,3.886998085701465,0.011167765626497565
1761476168762143500,5.4961435546875,5.843608539059757,3.3875516034930944,0.2226260849399492
1761476168772180700,5.5061806640625,4.904940618503093,2.536967916841805,0.4628666274277493
1761476168782216700,5.516216796875,3.7617175090849395,1.452401286792755,0.760353672888875
1761476168792252700,5.526252685546875,2.167615841272473,0.08062865720242261,1.1007942728810012
1761476168802289000,5.536288818359375,0.5577192229568958,-1.7858359535455703,1.1583751589078455
1761476168812324900,5.546324951171875,-0.9682371293902396,-3.4338834388181567,1.1016726631507276
1761476168822360800,5.55636083984375,-3.594280629262328,-4.264872782683372,0.9287839476630091
1761476168832396800,5.566396728515625,-7.341976042735576,-4.22124553014189,-0.17489961691871284
1761476168842432800,5.576432861328125,-10.964583187294005,-3.528431315779686,-1.898755061239004
1761476168852469800,5.5864697265625,-14.480545482122897,-3.0529724428802725,-3.1928017693310973
1761476168862505700,5.596505615234375,-18.06248626977205,-2.620012987536192,-3.9329511508420105
1761476168872541700,5.606541748046875,-20.304754324185847,-2.3989538231194016,-4.233732671271264
1761476168882577700,5.61657763671875,-21.768118903541563,-2.4702520496577023,-3.4128315907001494
1761476168892613600,5.626613525390625,-22.949823427045345,-2.892428245180845,-1.9410408360436557
1761476168902649600,5.636649658203125,-24.016049806022643,-3.570677050834894,-0.7586009109374136
1761476168912685600,5.646685546875,-24.594069474208354,-3.8174540093541145,-0.47448502289857714
1761476168922721500,5.656721435546875,-24.07459785658121,-3.9053251850306987,-0.8817721672497689
1761476168932758500,5.666758544921875,-22.566858713448045,-4.040784625834227,-1.3611860613852738
1761476168942794800,5.676794677734375,-20.15614080277681,-4.0773090606331825,-1.8278287367530166
1761476168952830700,5.686830810546875,-17.202828757566213,-3.8468893626749514,-2.4032643797948956
1761476168962866700,5.69686669921875,-14.08596047335863,-3.5745927629739045,-2.904433740273118
1761476168972902700,5.706902587890625,-11.26249295167923,-3.174266872470081,-2.7845494697421787
1761476168982939000,5.71693896484375,-8.740800053119658,-2.654133283802867,-2.3202966121204196
1761476168992974800,5.726974853515625,-6.295584829562902,-2.2120872895531356,-1.9307118958614766
1761476169003010800,5.7370107421875,-3.8299312136113643,-1.6999055366732179,-1.5702952602893112
1761476169013047800,5.7470478515625,-1.4046394186645745,-1.177643265414238,-1.2392936659023166
1761476169023083800,5.757083740234375,0.8629238205254077,-0.7152059327818453,-0.8683456263784318
1761476169033119700,5.76711962890625,2.903383938959241,-0.20671119785159825,-0.7145294217597693
1761476169043155700,5.77715576171875,4.415501735568046,0.39036929076537485,-0.564610151514411
1761476169053191700,5.787191650390625,5.675570770734549,0.8778709220275283,-0.2948254615690559
1761476169063227600,5.7972275390625,7.170572597369551,1.4138669734761118,-0.19389738205112517
1761476169073263600,5.807263671875,8.694794673269987,1.9066487370982765,0.06562595305554568
1761476169083299600,5.817299560546875,10.140152471292017,2.2516844097957014,0.46658385785259304
1761476169093336600,5.827336669921875,11.620035639250277,2.502858726491034,0.9760072519350796
1761476169103372500,5.83737255859375,12.56273500728011,2.757487567554414,1.5371300727903843
1761476169113408500,5.847408447265625,13.102166878396272,2.9931662089541553,1.9294833769798279
1761476169123444700,5.85744482421875,13.479148425930738,3.2642186538130042,2.273812070451677
1761476169133480700,5.867480712890625,13.55941380277872,3.596758417552709,2.5811782299682497
1761476169143516700,5.8775166015625,13.58354988064766,3.9066459122404456,2.592627260221541
1761476169153553000,5.887552978515625,13.630229798758029,4.239678135672212,2.412315993517637
1761476169163589600,5.897589599609375,13.642538660711049,4.624627301084995,2.2180714785292746
1761476169173625600,5.90762548828125,13.450800283324718,5.019412216335534,1.900325671556592
1761476169183661800,5.917661865234375,12.91296298792362,5.484772304546833,1.3591003411523996
1761476169193697800,5.92769775390625,12.57623863197565,5.758405121287703,1.1459949852842837
1761476169203733800,5.937733642578125,12.286333310347795,5.7579603001296515,1.2309276963561773
1761476169213769700,5.947769775390625,11.556264301085472,5.620402425742149,1.4149970004193484
1761476169223805700,5.9578056640625,10.705703118526936,5.522924048286676,1.4767811102896928
1761476169233841700,5.967841552734375,9.93816976326704,5.671728123831748,1.454917069005966
1761476169243878700,5.977878662109375,9.367706794071196,5.629198311138153,1.400720199394226
1761476169253914600,5.98791455078125,8.765577351501584,5.349563039112091,1.2699240742266178
1761476169263950600,5.99795068359375,8.166941596266627,5.17114007037282,1.0975665430061519
1761476169273986600,6.007986572265625,7.791236644539237,5.005525145280361,0.6376826211836188
1761476169284022500,6.0180224609375,7.408807352992892,4.841834173987806,0.17914200372882186
1761476169294058800,6.028058837890625,6.836923995605111,4.332536744372546,0.1371045411294326
1761476169304094700,6.0380947265625,5.7112447261840105,3.5954511343464253,0.35895306582562625
1761476169314131700,6.048131591796875,4.487858531248569,2.624596808195114,0.7273118195086717
1761476169324168000,6.05816796875,3.3951381130993363,1.359951258893311,1.228080197970569
1761476169334204000,6.068203857421875,2.1972803271740675,0.009190437671542167,1.712138849171996
1761476169344239900,6.078239990234375,0.8078817322611809,-1.6789786301091312,2.0301820316560564
1761476169354275800,6.08827587890625,-0.6222539467096329,-3.2847818416312333,1.858781801160425
1761476169364311800,6.098311767578125,-2.8903263044655323,-4.05009342918843,1.0899446698255837
1761476169374348000,6.10834814453125,-6.681144820350408,-4.050173800948262,-0.4062759580146521
1761476169384384000,6.118384033203125,-10.82843050352931,-3.653106619979441,-1.9820158205106853
1761476169394420700,6.128420654296875,-13.98245333713293,-3.7216634388551113,-3.1031489709347486
1761476169404457000,6.13845703125,-16.949760005426405,-3.5063933792337774,-3.5340573389679193
1761476169414493000,6.148492919921875,-19.29167968968153,-2.600901752091944,-3.5706147992536423
1761476169424529000,6.15852880859375,-20.40802998974323,-2.704551803919673,-3.2316029168903824
1761476169434564900,6.16856494140625,-20.98326031947136,-3.1782533117577434,-2.2924513044700023
1761476169444600800,6.178600830078125,-20.64077023960352,-4.003217988505959,-1.068391886448115
1761476169454636800,6.18863671875,-19.87617352231741,-5.301308419030905,0.43842930158991367
1761476169464672800,6.1986728515625,-19.177619595259426,-6.397220326697826,1.5056035924091935
1761476169474710000,6.2087099609375,-18.263608561575413,-6.931122620737552,1.7219133703418075
1761476169484746000,6.21874609375,-16.491850233221054,-7.092904835799336,1.225510347482562
1761476169494782000,6.228781982421875,-14.200052131962776,-6.987407402539253,0.2797233887009323
1761476169504818000,6.23881787109375,-12.859566913300752,-5.823341411578655,-1.2260659355387091
1761476169514854000,6.24885400390625,-10.770212123316526,-4.84137035586834,-1.9158783377364277
1761476169524889900,6.258889892578125,-8.393436814257502,-4.315776748229563,-2.2145631781473756
1761476169534925800,6.26892578125,-6.861865544638038,-3.2324370296269653,-2.019852214691043
1761476169544962800,6.278962890625,-5.919698676049709,-1.8940294940218327,-1.5272500454194844
1761476169554998800,6.288998779296875,-5.019302910742163,-0.8574632170319557,-0.8564798320177942
1761476169565034800,6.29903466796875,-3.5103339335530994,-0.38234950430840253,-0.16821546297967432
1761476169575071000,6.309071044921875,1.2967565515726804,-1.3311270232081414,0.2606250127382576
1761476169585107000,6.31910693359375,0.14216799853146075,-0.14532996969372033,1.0835032386012375
1761476169595143000,6.329142822265625,-0.17002748083770275,1.2979893082380294,1.939055361314863
1761476169605179000,6.339178955078125,4.183965600800514,0.9089803460404277,1.5941816011808811
1761476169615214800,6.34921484375,6.7711839877158395,0.8679504165157675,1.1255534510843455
1761476169625252000,6.359252197265625,7.321480951717495,1.424036485312879,0.9592309622444212
1761476169635288000,6.3692880859375,7.212846973997354,1.9243603348776697,0.8195623793132603
1761476169645324000,6.379323974609375,7.407723649409413,2.1337638405531645,0.6918513606794178
1761476169655360000,6.389360107421875,7.965826318725943,1.2834341286629438,0.9415564816050231
1761476169665396000,6.39939599609375,7.300479664742946,2.164063117226958,1.5576597967304289
1761476169675432000,6.409431884765625,6.583364245077967,3.1963580005079506,2.0347731588386
1761476169685468000,6.419468017578125,6.462262415450811,3.8404584528446195,2.370185993796587
1761476169695505000,6.4295048828125,6.820449830666184,3.9249110522493718,2.4052127373836933
1761476169705540900,6.439540771484375,7.26041302729249,3.654279463151097,2.1977724946051835
1761476169715576800,6.449576904296875,7.684625112557411,3.352711760780215,1.936159786003828
1761476169725612800,6.45961279296875,8.241971410548686,3.0745728647917505,1.534129721930623
1761476169735648800,6.469648681640625,8.847070224317907,2.9703812534332275,1.1788818672984838
1761476169745684700,6.479684814453125,9.211204565238953,3.112659726601839,0.8962909603372216
1761476169755721000,6.489720947265625,9.204353384169936,3.5724405533760786,0.6981628819137812
1761476169765757000,6.4997568359375,9.056881434011459,4.291759620565176,0.7887513537250459
1761476169775793700,6.509793701171875,9.049072806087135,4.739329492802917,1.005256215838343
1761476169785830000,6.519829833984375,8.824419416570663,4.592634079974889,1.2474252421706915
1761476169795865900,6.529865966796875,8.521161861416697,4.191035100795328,1.4038357010662554
1761476169805902000,6.539902099609375,8.506479840591549,4.000178766940534,1.3933799196340142
1761476169815938000,6.54993798828125,8.638087866663932,3.9994402235329147,1.2015975569754838
1761476169825974000,6.55997412109375,8.601228500822186,4.1725002039343115,0.9488037493195384
1761476169836010000,6.570010009765625,8.21499981699288,4.4236292201831935,0.6553188887044787
1761476169846046000,6.5800458984375,7.615851436060667,4.720316749297083,0.4512935689359903
1761476169856083000,6.5900830078125,7.094758354711532,4.88760253021121,0.4582160616755485
1761476169866119000,6.600118896484375,6.86044281835854,4.524233328443765,0.5420438071802258
1761476169876155000,6.61015478515625,7.977319772642851,3.761900464436412,0.6283215761855244
1761476169886190800,6.62019091796875,8.723220557287334,3.387112335292995,0.5524501965127885
1761476169896226800,6.630226806640625,8.253665939995646,3.0491198591053483,0.3868940158702433
1761476169906262800,6.6402626953125,5.6499751417070625,2.319590363547206,0.6704711573898792
1761476169916298800,6.650298828125,0.024941549032926558,0.9219017869338393,1.6775151334278284
1761476169926335000,6.6603349609375,-4.158393937170505,-1.6469959303930402,2.349504148034751
1761476169936371700,6.670371826171875,-1.2826269039332865,-4.272580872842669,2.340901447123289
1761476169946407700,6.68040771484375,0.3300765884965658,-5.812713050058484,1.7202134345561264
1761476169956444000,6.69044384765625,-3.1365415374487635,-5.510274994593859,-0.24206984027419237
1761476169966480000,6.70047998046875,-5.834766476434469,-3.8021065103575586,-2.604639477315545
1761476169976516000,6.71051611328125,-6.657126815903187,-1.7734505192250012,-3.7838784874886273
1761476169986552000,6.720552001953125,-9.2602944671005,-0.35491263132840395,-3.7285622584581373
1761476169996588000,6.730588134765625,-11.095596754604577,-0.20130875428616998,-2.4836557211101056
1761476170006624000,6.7406240234375,-11.086039821708201,-1.2452882301419972,-0.9425636858861893
1761476170016661000,6.750660888671875,-12.149575061905383,-2.525129887270927,-0.10654933519950135
1761476170026697000,6.760697021484375,-13.935932408976553,-3.3254040671378373,0.7035229476422071
1761476170036733000,6.77073291015625,-16.110318767297265,-3.479502449698746,1.22510140135549
1761476170046769000,6.780768798828125,-17.846489064919947,-3.280114434342086,1.3146380990914999
1761476170056804900,6.790804931640625,-19.081013324463367,-3.0375398959487674,1.0525635451320559
1761476170066840800,6.8008408203125,-19.233669399261473,-3.0730291424810883,0.5248448716307058
1761476170076876800,6.810876708984375,-18.16072335664034,-3.3060204444929955,-0.2137419002059847
1761476170086912800,6.820912841796875,-16.46962904906273,-3.3693349788010116,-0.9128833448283373
1761476170096948700,6.83094873046875,-14.34793850814104,-3.233175865295529,-0.6663283584967256
1761476170106985000,6.84098486328125,-11.968925064766406,-3.3951059643954036,0.005167009108047932
1761476170117021700,6.851021728515625,-9.35291079147756,-3.5934891866236924,0.47187381748687474
1761476170127057700,6.8610576171875,-6.794334561678767,-3.352122562715411,0.8474062987241894
1761476170137094000,6.871093994140625,-4.356360979813337,-2.9169132826179265,1.077666129945591
1761476170147129900,6.8811298828125,-2.289956272783875,-2.4955504493042824,1.0373867995925248
1761476170157166000,6.891166015625,-0.4185387158036232,-1.933898416943103,0.7949019853092729
1761476170167202000,6.9012021484375,1.103999352532625,-1.1658847308203577,0.4638575016286224
1761476170177238000,6.911238037109375,2.381922608819604,-0.4292018563762307,0.12079042559042573
1761476170187274000,6.92127392578125,3.6012253338336944,0.33585108024477955,0.09787219907864927
1761476170197310000,6.93131005859375,4.529405762645602,1.0971946409538387,0.14936558188535273
1761476170207347000,6.941346923828125,5.309120554086566,1.7289445841528475,-0.08916633005365729
1761476170217383000,6.9513828125,6.024550797143578,2.539815415227413,-0.1264745356414467
1761476170227419000,6.9614189453125,6.197567522925138,3.0705063460052013,0.04394815505892038
1761476170237454800,6.971454833984375,6.549370790061354,3.091937548829615,0.3424445602256804
1761476170247490800,6.98149072265625,7.126438272088766,2.8888752288743853,0.6752030812826008
1761476170257526800,6.99152685546875,7.614848981019854,2.7874668184936047,0.976631886639446
1761476170267562800,7.001562744140625,8.193817328232527,2.97605491515547,1.231306466540694
1761476170277599000,7.011598876953125,8.827479973185062,3.2000112623184918,1.2618347296647727
1761476170287635000,7.021635009765625,9.348129402419925,3.3945562215581533,1.265312342647463
1761476170297671000,7.0316708984375,9.930724123436212,3.59550754070878,1.2982494204789399
1761476170307707000,7.041706787109375,10.348933168894051,3.719514444127679,1.3288878659792243
1761476170317743900,7.051743896484375,10.53525069027543,3.6123701204434036,1.2585998393967748
1761476170327780000,7.061780029296875,10.507191301482916,3.412560372543335,1.0730592937372625
1761476170337816000,7.071816162109375,10.330194566154479,3.3901398664206264,0.7551078811898827
1761476170347852000,7.08185205078125,10.12498880442977,3.630180502422154,0.4167132904747501
1761476170357888000,7.091887939453125,9.831127438652516,3.9625022394970055,0.1502279160694219
1761476170367924000,7.101924072265625,9.38431949069798,4.003220034332573,-0.08246023827744647
1761476170377960000,7.1119599609375,9.175342393741012,3.8564658770546316,-0.18535170855652539
1761476170387996000,7.121995849609375,8.845376279881597,3.8065655355930326,-0.11686068492606282
1761476170398032000,7.132031982421875,8.162527871477604,3.8070448435425757,0.14028107054000719
1761476170408067800,7.14206787109375,7.724469631689787,3.5721550144329663,0.3277637449769303
1761476170418103800,7.152103759765625,7.404411748382449,3.048163873554766,0.3340870297143236
1761476170428140800,7.162140869140625,7.0243433407485485,2.23360602453053,0.12376531321536749
1761476170438176800,7.1721767578125,7.100230648642778,1.3684344250783322,-0.1951546521032229
1761476170448212700,7.182212646484375,7.126109770786762,0.5068488674193621,-0.4593409740522504
1761476170458249000,7.1922490234375,5.816812302070856,-0.4551467372328043,-0.28595044652223583
1761476170468285000,7.202284912109375,3.8883337182193993,-1.9759677725180982,0.7517894042916595
1761476170478321000,7.21232080078125,1.5538491524010896,-4.682642559941113,2.3347839871563014
1761476170488356900,7.22235693359375,-1.8754454973220824,-7.95091224271059,3.7485716117858883
1761476170498392800,7.232392822265625,-5.429631432083249,-9.902052155703306,4.045752769635618
1761476170508428800,7.2424287109375,-7.98298963497281,-9.081882604277133,2.6745930112466216
1761476170518464800,7.25246484375,-10.902232237321138,-6.497092905813455,-0.1734284118549898
1761476170528500700,7.262500732421875,-12.941977485483884,-3.4107541999042033,-3.9083804809480904
1761476170538536700,7.27253662109375,-13.388609492349623,0.3533279924854636,-6.971613621079921
1761476170548574000,7.282573974609375,-14.20464998114705,2.902114649675786,-6.765482561203837
1761476170558610000,7.29260986328125,-16.599603336453438,1.0300468120932578,-3.3052614428192375
1761476170568646000,7.30264599609375,-19.448035788041352,-2.1133435683369637,0.6411646911457181
1761476170578681900,7.312681884765625,-20.250912843883036,-3.0956036701217293,2.8725986323341726
1761476170588717800,7.3227177734375,-20.323255611038206,-3.0131442903608083,3.6105373520582913
1761476170598754000,7.332754150390625,-19.70011319105625,-3.479056459496915,3.28328692689836
1761476170608790000,7.3427900390625,-17.357978402745722,-3.786320035421848,2.075987797280401
1761476170618826000,7.352825927734375,-13.574199868500232,-3.1129619244188067,0.24397757359165698
1761476170628862000,7.362862060546875,-9.63967430794835,-2.3737135834008454,-1.5149246707230806
1761476170638898000,7.37289794921875,-5.933781561937928,-1.649647175554186,-2.073270793406665
1761476170648934000,7.382933837890625,-2.899358921226859,-1.3648967524714768,-2.0626988382488487
1761476170658969900,7.392969970703125,-1.5485761804342268,-1.1628614374764263,-1.973482823834568
1761476170669005800,7.403005859375,-1.9647890836387871,-0.767722155830264,-1.608837026260048
1761476170679042800,7.413042724609375,-0.04117313738763332,0.2960622368223965,-0.6655183572880924
1761476170689078800,7.423078857421875,-0.09747954649925232,1.073477519149333,-0.4124434676684439
1761476170699114800,7.43311474609375,0.8391279343962669,0.9588103987447917,-0.08391600831001997
1761476170709150700,7.443150634765625,2.3089228390604255,0.734387164722383,0.3845179343886673
1761476170719186700,7.453186767578125,3.4716409225434064,0.6933052127495407,0.5948246725142001
1761476170729222700,7.46322265625,4.878047935402393,0.8458157415971159,0.789705512644723
1761476170739259000,7.4732587890625,5.930913897547126,0.8351666295498609,1.1042827725838869
1761476170749295000,7.483295166015625,6.686410193532705,0.6601145985484123,1.5520231060177088
1761476170759331000,7.4933310546875,7.249528060662746,0.5229074372947216,1.9359481890797614
1761476170769367000,7.503366943359375,7.784746113476157,0.581435175717622,2.1251456498116252
1761476170779403000,7.513403076171875,8.302485208222269,0.7123037815995514,2.2393413533121347
1761476170789439000,7.52343896484375,8.662529649481177,0.8039864783883094,2.332596267853677
1761476170799475000,7.533474853515625,9.058525694087146,0.8113551074601709,2.31467321928069
1761476170809512000,7.543511962890625,9.487163779100776,0.7737905159585178,2.118944749344885
1761476170819548000,7.5535478515625,9.71701590630412,0.7308220195867121,1.883985946652293
1761476170829584000,7.563583984375,9.59655412814617,0.7621554616138339,1.7281372132927177
1761476170839619800,7.573619873046875,9.449908691939712,0.871244051233679,1.465942174758762
1761476170849655800,7.58365576171875,9.323014834907651,1.187685936000943,1.131817479915172
1761476170859691800,7.59369189453125,9.119819828483461,1.5239976194947957,0.866804096024856
1761476170869727700,7.603727783203125,8.96005012228787,1.6628876192688942,0.6717094670131802
1761476170879764000,7.613763916015625,8.91325446884334,1.69537446911484,0.5587071014830842
1761476170889800000,7.623800048828125,8.85930017581582,1.7515329941883682,0.44312597150616345
1761476170899836000,7.6338359375,8.77651200249195,1.8723212278217076,0.20659301483202724
1761476170909871900,7.643871826171875,8.603736099728941,1.968379217085242,-0.02764638754483312
1761476170919907800,7.653907958984375,8.388973989629745,2.067275060123205,-0.2712535203889012
1761476170929943800,7.66394384765625,7.922039783969521,2.2047265515267847,-0.5407479221507907
1761476170939979800,7.673979736328125,7.027396883100271,2.3460417326211926,-0.6326381242103875
1761476170950015700,7.684015625,6.544672403112053,2.252283252471685,-0.626571590713039
1761476170960053000,7.694052978515625,6.194675308614969,1.992952517327666,-0.6506006280109286
1761476170970089000,7.7040888671875,5.891020278576016,1.6766051789760588,-0.5745416168116033
1761476170980125000,7.714125,5.303846413075924,1.2594222616955637,-0.45163766966592517
1761476170990161000,7.724160888671875,4.405928436058759,0.6567620732501149,-0.20460227940622716
1761476171000196900,7.73419677734375,3.1263901457905767,-0.32998657212555405,0.3675007120816037
1761476171010232800,7.74423291015625,1.437365630224347,-1.835889439742267,1.2324461380951106
1761476171020268800,7.754268798828125,-0.8926742311447858,-3.07678498788327,2.221116691444069
1761476171030305000,7.764304931640625,-3.3254841466367244,-3.3767025849595664,2.36001589743793
1761476171040341000,7.774341064453125,-5.71890956172347,-2.6459967390984294,1.2386786027438939
1761476171050377000,7.784376953125,-8.295857314515114,-1.4857663807779549,-0.3079795787071809
1761476171060413000,7.794412841796875,-10.762586450743674,-0.502990146164596,-1.3537557652540504
1761476171070449000,7.804448974609375,-12.634178779768943,-0.08281886072307824,-1.8643892657786607
1761476171080484900,7.81448486328125,-13.823615358829498,-0.20351620120257138,-1.9904213914148507
1761476171090520800,7.824520751953125,-14.74292800605297,-0.6374976930707693,-1.9556657198540865
1761476171100556800,7.834556884765625,-15.62321095765829,-0.9530112109467387,-1.6374259918846188
1761476171110592800,7.8445927734375,-17.07788252747059,-1.1194432976409792,-1.3222915364541112
1761476171120629800,7.854629638671875,-18.028427348303794,-1.2573320114180444,-0.8800790265310555
1761476171130665700,7.864665771484375,-17.942060731971264,-1.3683151826128364,-0.23173615085165947
1761476171140702000,7.874701904296875,-17.004256150245666,-1.9085776593342423,0.311932261855714
1761476171150738000,7.884738037109375,-15.772252349090575,-3.0110230604231356,0.7203234949912876
1761476171160774000,7.89477392578125,-14.200363097608088,-4.119339399372041,0.7299756318904459
1761476171170810000,7.90481005859375,-12.252196062946318,-4.441871563838422,0.39948151210155336
1761476171180846000,7.91484619140625,-10.353386056649684,-4.033566657279431,-0.024694670732924712
1761476171190882000,7.924882080078125,-8.470822251755,-3.4212931295752522,-0.38433928988613186
1761476171200918000,7.93491796875,-6.411006275466084,-2.858239559853077,-0.4338080349974334
1761476171210954000,7.9449541015625,-4.191668430262804,-2.3248446308135984,-0.2867202983835712
1761476171220990000,7.954989990234375,-2.3347926088541744,-1.6932931327961385,-0.16590356930810957
1761476171231026000,7.96502587890625,-0.9011959757745266,-1.0504024946406483,-0.13562146296482533
1761476171241062000,7.975061767578125,0.26546938402950765,-0.3952136620566249,-0.022837672088854014
1761476171251097900,7.985097900390625,0.9136381087183951,0.1909602326206863,-0.006524068006500601
1761476171261133800,7.9951337890625,1.6995605226278303,0.6783265470653772,-0.13593206328395754
1761476171271170800,8.0051708984375,2.5942747351676223,1.057136625201255,-0.19076123944986612
1761476171281204000,8.015203857421875,3.661508245360851,1.2994511974841356,-0.05020849409531802
1761476171291240000,8.025239990234375,4.817966099405289,1.3906884885929525,0.11794778604302554
1761476171301276000,8.03527587890625,5.937221473258734,1.4241343927294015,0.27081483671069145
1761476171311312000,8.045311767578125,6.862552357858419,1.509621595878899,0.388508574927412
1761476171321347800,8.055347900390625,7.629449168780446,1.681431868480146,0.4497874386893585
1761476171331384000,8.065384033203125,8.316363511449097,1.8480813973173498,0.48344293045587833
1761476171341420300,8.075420166015626,8.785628790405392,2.0212939379319548,0.5603066456342116
1761476171351456300,8.085456298828126,9.037765814653039,2.189109003417194,0.681152418141067
1761476171361492200,8.0954921875,9.157236243686079,2.3132667134836313,0.8279112515941262
1761476171371528200,8.105528076171876,9.291072467201948,2.286562538692355,0.8906677866932005
1761476171381564200,8.115564208984376,9.461320312792061,2.2608608189418913,0.884246010017395
1761476171391600000,8.12560009765625,9.598467268291115,2.318658635655045,0.6801280435293913
1761476171401636000,8.135635986328126,9.893061039996146,2.5242343997359273,0.3419083344571292
1761476171411672000,8.145672119140626,10.164978284990786,2.83815684902817,0.028096432867273688
1761476171421708000,8.1557080078125,10.198775340652466,3.100501963557303,-0.11211973747666924
1761476171431744000,8.165743896484376,10.161403349113463,3.1963752439036965,-0.13846370978658087
1761476171441781000,8.175781005859376,10.010070631873607,3.146230864553153,-0.13521331142219714
1761476171451817000,8.18581689453125,9.746780929970742,3.128331050725281,-0.1489894420493394
1761476171461853000,8.19585302734375,9.38922246030867,3.35254429525882,-0.13416770222624763
1761476171471889200,8.20588916015625,8.946768615910411,3.5915023967206476,-0.12632941894917749
1761476171481925400,8.21592529296875,8.515866677618027,3.5600904826298354,-0.23307636821316555
1761476171491961300,8.22596142578125,8.001437730333208,3.390482103987038,-0.39664669053442775
1761476171501997300,8.235997314453124,7.777053220885992,3.384816333310306,-0.6113346394188702
1761476171512033300,8.246033203125,7.48016636980772,3.4625106906265017,-0.7646215594664215
1761476171522069200,8.2560693359375,7.154628593784571,3.3712978033065792,-0.7359691732168198
1761476171532105200,8.266105224609374,6.819163882508874,2.9053645913824435,-0.404914935327135
1761476171542141200,8.27614111328125,6.268517374417185,2.0347294658273456,0.20420911537017672
1761476171552177200,8.28617724609375,5.44094894491136,0.8157239701941609,0.9853795489795505
1761476171562213000,8.296213134765624,4.393019854646921,-0.5138678062707186,1.8525766629099845
1761476171572249000,8.3062490234375,2.8655232871204612,-1.9076330719605088,2.6184023374691603
1761476171582285000,8.31628515625,0.5787573348104953,-3.023881665213406,3.2692282986685632
1761476171592321300,8.3263212890625,-2.2589573234081266,-3.5508921539127827,2.756165379039943
1761476171602358000,8.33635791015625,-4.768912437900901,-3.1124504677653313,1.2708522949874401
1761476171612394000,8.34639404296875,-6.807406809219717,-2.349148174203932,-0.5575732020823284
1761476171622430200,8.35643017578125,-8.737237392202019,-1.9045599481254816,-2.4176781050726768
1761476171632466200,8.366466064453125,-11.022367852264642,-1.4991802813634276,-3.5967785835579034
1761476171642502100,8.376502197265625,-14.466502928245067,-1.2047349782183765,-3.4117931875631213
1761476171652538000,8.3865380859375,-17.696227191781997,-1.8726424226000904,-2.2098910946831105
1761476171662574000,8.396573974609375,-20.401852762413025,-2.849707001568377,-0.682957348671183
1761476171672610000,8.406610107421875,-21.831527838134765,-3.3308772378519174,0.6407922776367515
1761476171682646000,8.41664599609375,-22.149460984373093,-3.669285309103131,1.283022479122132
1761476171692682000,8.426681884765625,-21.845946824109554,-4.166992838689684,1.465121798286587
1761476171702718200,8.43671826171875,-20.581562848353386,-4.9207583653599025,1.131369443886727
1761476171712754200,8.446754150390625,-18.26023470122814,-5.363967412039638,0.3544772355858236
1761476171722790100,8.4567900390625,-15.333470471203325,-5.201011477023362,-0.7449564164664596
1761476171732826000,8.466826171875,-12.389240727114677,-4.6805809512361884,-1.6135926963545382
1761476171742862300,8.4768623046875,-10.084659132128953,-4.178935789939761,-1.9957748812720177
1761476171752898300,8.486898193359375,-8.130057680505514,-3.5483421771690247,-1.7314271947488187
1761476171762934300,8.496934326171875,-6.25075316966772,-2.83314954226017,-1.393491709445417
1761476171772970200,8.50697021484375,-4.774376548525691,-1.858971770774573,-0.8930076278176158
1761476171783007200,8.51700732421875,-3.2596675663799046,-1.098477081979811,-0.3114017717082053
1761476171793043200,8.527043212890625,-1.4686983415991066,-0.5993276830218732,-0.11501246324349194
1761476171803079200,8.5370791015625,0.20779753178358076,0.06722045570537448,-0.06098981768749654
1761476171813115100,8.547115234375,1.5888140827983617,0.7855284461557864,0.13478643691278994
1761476171823151000,8.557151123046875,2.7502579085618257,1.285594375436753,0.30386472726687785
1761476171833187000,8.56718701171875,3.9528152504801746,1.5740177879437802,0.41879904724024236
1761476171843223000,8.57722314453125,5.044855869671702,1.7934078501045703,0.5749618880502879
1761476171853259000,8.587259033203125,5.914690492498874,2.0091028571397067,0.6574994476139545
1761476171863295000,8.597294921875,6.779038792869448,2.258896825392544,0.7210305472820997
1761476171873332000,8.60733203125,7.558457231712341,2.471875266945362,0.8399776100281625
1761476171883369200,8.617369140625,8.221721234202384,2.5504791403219103,1.0359300979781896
1761476171893405200,8.6274052734375,8.79247880243063,2.5704060760632155,1.1991012101151048
1761476171903441200,8.637441162109376,9.189801711726188,2.6676927303388713,1.3489417891010642
1761476171913477000,8.64747705078125,9.463477198565005,2.7191423470690843,1.4703333954550326
1761476171923513000,8.65751318359375,9.665180505126715,2.634805775259435,1.5714759945064782
1761476171933549000,8.667549072265626,9.752914318159222,2.6592230081573125,1.6837750706054269
1761476171943585300,8.677585205078126,9.93427217130661,2.807083665372431,1.7926552781715988
1761476171953621200,8.687621337890626,10.07229766320586,2.871590916596353,1.8141946175456045
1761476171963657200,8.6976572265625,10.208564913260936,2.869574608337879,1.7425173285618423
1761476171973693200,8.707693115234376,10.367952342140674,2.9871991172432897,1.638411641921103
1761476171983729200,8.717729248046876,10.511244376266003,3.1042732987895607,1.5007437312878666
1761476171993765000,8.72776513671875,10.595794298565387,3.1523809116154906,1.1925548572115598
1761476172003801000,8.737801025390626,10.601578727185725,3.294478767520189,0.8577183608368039
1761476172013837000,8.747837158203126,10.521459480810165,3.4280203920036554,0.8036269974261522
1761476172023873000,8.757873046875,10.291567021596432,3.413485378433764,0.7282033615209161
1761476172033909000,8.767908935546876,9.870760360860825,3.4632442655980586,0.6867812178082764
1761476172043945000,8.777945068359376,9.174012606441973,3.454721936446428,0.7390285607874393
1761476172053981200,8.787981201171876,7.929160429629683,3.083139909867942,0.8341277880214154
1761476172064017200,8.79801708984375,6.668116411951184,2.5882716953605414,0.870725580317527
1761476172074053000,8.80805322265625,5.895434587886929,2.267408340889215,0.7190682342331856
1761476172084089000,8.818089111328124,5.021472071474791,2.0174714570343495,0.20330423895232377
1761476172094125000,8.828125,3.862645150211453,1.5943211557820438,-0.2516217316692695
1761476172104161000,8.8381611328125,2.319136190038919,0.8614803437188268,-0.16522026321906597
1761476172114197200,8.848197265625,0.5151560925155878,-0.18050708153694867,0.11648830794971436
1761476172124233200,8.858233154296874,-1.7340870616078377,-1.0591235612347722,0.5672768134403974
1761476172134269200,8.868269287109374,-3.747753865662217,-1.7934174947157502,1.2250932911142707
1761476172144305200,8.87830517578125,-5.342396800744533,-2.683708630116284,1.32918509536013
1761476172154341000,8.888341064453124,-6.317380481785535,-3.0911700715884565,0.7838087827563285
1761476172164378000,8.898378173828124,-7.507572847649454,-3.057331807133555,-0.1297095720399171
1761476172174414000,8.9084140625,-8.538986856442689,-2.773403221827745,-1.1709803003937005
1761476172184450000,8.918449951171874,-9.966002357566357,-2.2413275586932895,-2.014371737453341
1761476172194486000,8.928486083984374,-11.271622014552355,-1.789204553195834,-2.428366964608431
1761476172204522200,8.938522216796875,-12.403562682455778,-2.046507874165475,-2.3101794149927795
1761476172214558200,8.94855810546875,-13.220926528811454,-2.858880780366063,-1.6337012722730635
1761476172224594200,8.95859423828125,-13.417049989414215,-3.4777556060314176,-1.0574834658775478
1761476172234630100,8.968630126953125,-13.735735999846458,-3.3975361141517757,-0.9338136123932897
1761476172244666000,8.978666015625,-13.663379204165935,-3.0395430524647233,-0.6131640468031168
1761476172254702000,8.9887021484375,-13.250711426222324,-3.2972488167554137,-0.20351039251629263
1761476172264738000,8.998738037109375,-12.650531364154816,-4.005419882464409,0.06637034168206155
1761476172274774000,9.00877392578125,-11.680094094371794,-4.303378746688366,-0.04367535229979548
1761476172284810000,9.01881005859375,-10.191303981858491,-3.7128228375345467,-0.349864846419543
1761476172294846000,9.028845947265625,-8.629839093756676,-2.7494658814013,-0.4532275326732546
1761476172304882200,9.038882080078125,-7.383229844143986,-2.148993850649893,-0.3642072600267827
1761476172314918100,9.048918212890625,-6.115020757141709,-2.039002174710482,-0.17429158628927544
1761476172324954000,9.0589541015625,-4.7477726192384955,-2.2556848776087164,-0.11475070703476667
1761476172334990000,9.068989990234375,-3.2737633117496965,-2.5846657798230646,-0.2428888650394976
1761476172345026300,9.0790263671875,-1.730246168270707,-2.7297560955420135,-0.6898770649317651
1761476172355062300,9.089062255859375,-0.41313773354291916,-2.3790026297196745,-1.1899951627913863
1761476172365098200,9.09909814453125,0.754741678225994,-1.5688140818208456,-1.5051828827790914
1761476172375134200,9.10913427734375,1.6427859114825725,-0.7504371128998696,-1.5759760824047029
1761476172385170200,9.119170166015625,1.942752608397603,-0.12535612607076763,-1.215995207901299
1761476172395206100,9.1292060546875,2.1625445293575525,0.28148820641636846,-0.5923100593447684
1761476172405242000,9.1392421875,2.7203338949412106,0.5637592337734997,-0.14363419862650334
1761476172415278000,9.149278076171875,3.5776252625375986,0.942145971930772,0.03883846562867984
1761476172425314300,9.159314208984375,4.579792718580365,1.4093988881513475,-0.005139956704340875
1761476172435350300,9.169350341796875,5.493260146906971,1.8858039558596909,-0.014097352804988621
1761476172445386200,9.17938623046875,6.340225350800156,2.2851067869260904,0.08352795884050429
1761476172455422200,9.189422119140625,7.088167285883427,2.5541332789152857,0.2987681347802281
1761476172465458200,9.199458251953125,7.59258804937303,2.6553885445609686,0.6555545240912586
1761476172475494100,9.209494140625,8.029650848382712,2.58478619133234,1.016294181072712
1761476172485530000,9.219530029296875,8.344352173092961,2.5090377073869106,1.3023957265034318
1761476172495566000,9.229566162109375,8.700710619315505,2.489374975539744,1.4057147928111253
1761476172505602000,9.23960205078125,9.086446551191806,2.470890639822185,1.306179336695373
1761476172515638000,9.249637939453125,9.333125310033559,2.5410364814549684,1.1847502478752285
1761476172525674000,9.259674072265625,9.420403195992112,2.623404675801098,0.9718138188332319
1761476172535710200,9.269710205078125,9.455816454678773,2.7325010103359815,0.7241899611610919
1761476172545746200,9.27974609375,9.3940722384274,2.931599102835357,0.5339200488921254
1761476172555782100,9.2897822265625,9.33338249966502,3.1322339033827182,0.34569771680273115
1761476172565818000,9.299818115234375,9.307862858483194,3.284077200493216,0.4070737573288381
1761476172575854000,9.30985400390625,9.168876997119188,3.177556853926182,0.31648462793044746
1761476172585890000,9.31989013671875,8.891511423590778,2.9420737350985404,0.1686692528954707
1761476172595926000,9.329926025390625,8.609792331027984,2.9523052062556148,0.11706157779302448
1761476172605962000,9.3399619140625,8.260964280310272,3.021256869667768,-0.033015440297313035
1761476172615998000,9.349998046875,7.78912184434235,2.8977523628130553,-0.11388641835562884
1761476172626034200,9.3600341796875,7.041275770848989,2.601590318877995,-0.07657996633350848
1761476172636070100,9.370070068359375,6.219133458045125,2.206155123025179,-0.07281180943902582
1761476172646106400,9.3801064453125,5.2604170211941,1.6949881001457572,0.010394991155713795
1761476172656142300,9.390142333984375,3.9052965434581037,0.9597323358952998,0.3312869141343981
1761476172666178300,9.40017822265625,1.722950166043639,-0.13222206631749867,0.9710627082049846
1761476172676214300,9.41021435546875,0.12034136664867401,-1.7074448461368679,2.109327610693872
1761476172686250200,9.420250244140625,-1.5325620342224835,-3.3886399832516907,3.1509587698578834
1761476172696286200,9.4302861328125,-3.781700558927655,-4.455202170054615,2.9398601507022977
1761476172706322200,9.440322265625,-5.96693798160851,-4.230806846952438,1.928697779560089
1761476172716358100,9.450358154296875,-8.319778288328648,-3.1983310541465877,0.4020386127058416
1761476172726394000,9.46039404296875,-10.747031154215335,-2.1434952532336116,-1.1860093080256133
1761476172736430000,9.47043017578125,-12.735055567491054,-1.5931167484283446,-2.4313914269961416
1761476172746466000,9.480466064453125,-14.156435108554362,-1.4666297186315058,-3.3088758339241147
1761476172756502300,9.490502197265625,-15.232624078619478,-1.7361293810904026,-3.4070389787733553
1761476172766538200,9.500538330078125,-15.897248848068713,-2.2714719370663166,-2.562593941007554
1761476172776574200,9.51057421875,-16.55373590376973,-2.7907623529076573,-1.1799812068425117
1761476172786610200,9.520610107421875,-16.85892997994423,-3.177072869801521,0.31621757449209686
1761476172796646100,9.530646240234375,-16.634709721148013,-3.6468370381906627,1.3558064141735433
1761476172806682000,9.54068212890625,-15.941971786892413,-4.472813814590871,1.6690933420412242
1761476172816718000,9.550718017578125,-14.4127269143939,-5.148370604681968,1.2728075207084417
1761476172826754000,9.560754150390625,-12.179771462726592,-5.046150585657358,0.4852451575722545
1761476172836790000,9.5707900390625,-9.72643430751264,-4.511286460848153,-0.5488982761848717
1761476172846826000,9.580825927734375,-7.418250888642668,-4.000317883150279,-1.0215937487855553
1761476172856862000,9.590862060546876,-5.270377858716249,-3.5030464068934317,-1.0177700988441705
1761476172866898200,9.600898193359376,-3.6791380100756883,-2.7902891824379563,-0.7269520462855696
1761476172876934100,9.61093408203125,-2.398411971327662,-1.8628443744242191,-0.15687235905257985
1761476172886969000,9.620968994140625,-1.3795219285428524,-1.0403478413552045,0.22200988927036522
1761476172897005000,9.631005126953125,-0.40543958025574683,-0.48375616112351416,0.4658831622373312
1761476172907041000,9.641041015625,0.3530243333637714,-0.0815595083117485,0.6604050328623503
1761476172917077000,9.651076904296875,1.1871335628151893,0.42762247823029753,0.5972988075427711
1761476172927113000,9.661113037109375,2.126328722116351,0.9729416538193821,0.34923422036580737
1761476172937149000,9.67114892578125,3.0731758574754,1.2923048328608273,0.20545378166902808
1761476172947185200,9.68118505859375,3.9027924516826866,1.4784943439483642,0.1979199155654758
1761476172957221000,9.69122119140625,4.699593987002968,1.6341571993470192,0.16280154817216097
1761476172967257000,9.701257080078125,5.42860325807929,1.8234513984516263,0.13360150144454092
1761476172977293300,9.711293212890626,5.795366193938255,2.0720202088236808,0.2153271235708147
1761476172987329300,9.721329345703126,6.143658822605014,2.292276532424986,0.2697612360045314
1761476172997365200,9.731365234375,6.711828712427616,2.5498630542501806,0.3131565429536626
1761476173007401200,9.741401123046876,7.38366998912692,2.7556644437804816,0.3507558404425159
1761476173017437200,9.751437255859376,7.864583035778999,2.7851564957246184,0.37909981833007184
1761476173027473200,9.76147314453125,8.235778401127456,2.7348163015410303,0.5037887857289984
1761476173037509000,9.771509033203126,8.584159292599558,2.720022052513063,0.5925201949641108
1761476173047545000,9.781545166015626,8.780029655224084,2.6706185546576977,0.5377504208352416
1761476173057581300,9.791581298828126,9.003851270091532,2.6197189730256794,0.37467400124445555
1761476173067617300,9.8016171875,8.981070698484778,2.7694971542999145,0.2615280990578234
1761476173077653200,9.8116533203125,8.988263824859262,2.92248260718286,0.1046563062608242
1761476173087689200,9.821689208984376,9.007037498912215,2.9226185085222123,0.020205241226032376
1761476173097725200,9.83172509765625,9.107725486063957,2.925720858451724,-0.17256194948507472
1761476173107761200,9.84176123046875,9.203335147038102,2.955115002979338,-0.4424485837012529
1761476173117797000,9.851797119140626,9.190646930378675,3.0022642921671268,-0.620656667580828
1761476173127833000,9.8618330078125,9.034481386154889,2.964682457269728,-0.7836177902288735
1761476173137869000,9.871869140625,8.596044960704445,2.887273638896644,-0.870486072473228
1761476173147905000,9.881905029296876,7.607327353343367,2.8543779159888625,-0.5635547241773456
1761476173157940200,9.891940185546876,6.446431809112429,2.4509523059040306,-0.04829766463846899
1761476173167976200,9.90197607421875,6.184554896616936,1.9228318101361392,0.2975234136824496
1761476173178012200,9.91201220703125,5.351086887678504,1.5383663365870712,0.5290035622127354
1761476173188048100,9.922048095703126,4.885347444760799,0.9937877502322197,0.5724535219585523
1761476173198084000,9.932083984375,4.56186075604856,0.19871406161785124,0.5191197354495525
1761476173208120000,9.9421201171875,3.8932565615743395,-0.7973875185146927,0.7537564665809273
1761476173218156000,9.952156005859376,2.782464480161667,-2.120170784008503,1.442110194402933
1761476173228192000,9.96219189453125,0.5865250462025403,-3.3507930676773188,1.995060303261876
1761476173238228000,9.97222802734375,-2.002767808899283,-3.728808926695585,1.945922762866318
1761476173248264200,9.98226416015625,-4.376826844736933,-3.201828833134472,1.0574357542783022
1761476173258300200,9.992300048828126,-5.914487663403153,-1.9746873773187397,-0.5596066441386938
1761476173268336000,10.002336181640626,-6.93771018243432,-0.458435257384181,-2.317408489463478
1761476173278372000,10.0123720703125,-8.222207556414604,0.529273757456243,-3.5114030240893364
1761476173288408000,10.022407958984376,-9.400215563488006,0.5813771619200706,-3.048374885956943
1761476173298444000,10.032444091796876,-11.157828462111949,-0.41358635409325356,-1.5474033372625708
1761476173308480000,10.04247998046875,-12.998721701490878,-1.6732283960193395,0.22846648153122512
1761476173318516200,10.05251611328125,-14.102787689518928,-2.5511539708435533,1.340329151317477
1761476173328555500,10.062555419921875,-14.58462778788805,-3.1500618210181592,1.5678095809534192
1761476173338591500,10.072591552734375,-14.699289939856529,-3.52640887004137,1.743427283013612
1761476173348627500,10.08262744140625,-14.652673150110244,-4.250178779159486,1.8842663710288703
1761476173358662700,10.09266259765625,-14.130769921422004,-5.212680872029066,1.5525987139485775
1761476173368698600,10.10269873046875,-13.078358132785558,-5.601883603233099,0.9501272530082613
1761476173378734600,10.112734619140625,-11.78905598887205,-5.248298128855228,-0.17041374020893127
1761476173388770600,10.1227705078125,-10.327365480208396,-4.037656849202514,-1.4027622266158462
1761476173398806500,10.132806640625,-9.25499869877994,-2.5500661756068466,-1.6338824740588664
1761476173408842800,10.1428427734375,-7.868778733903169,-1.980324798683822,-0.9614400165960192
1761476173418878700,10.152878662109375,-6.116802964383363,-1.7624207372970877,-0.20486259257653727
1761476173428914700,10.162914794921875,-4.219918373191357,-1.2857573109135032,0.5467054057830945
1761476173438950700,10.17295068359375,-2.293345915222168,-0.9190944744281471,1.0971540166825056
1761476173448987000,10.18298681640625,-0.2400245616495609,-0.6955388170205056,1.0949531456373631
1761476173459022800,10.19302294921875,1.5880296544224022,-0.2410939444467425,0.8419190264195203
1761476173469058800,10.203058837890625,2.9803455980867146,0.32197233862653374,0.5792617772012949
1761476173479094800,10.2130947265625,4.002609501218796,0.898235372403264,0.5392017886873335
1761476173489130800,10.223130859375,4.424918967732787,1.3969357124194501,0.6256929812476039
1761476173499166700,10.233166748046875,4.6435400913476945,1.7605073048911988,0.6630934682287275
1761476173509201700,10.24320166015625,4.930290748336911,1.984000856848061,0.6922320305600762
1761476173519237600,10.253237548828125,5.305724481907487,2.013306300178915,0.663473845848441
1761476173529273900,10.26327392578125,5.583709648638964,2.049092483831197,0.6379254169635474
1761476173539309800,10.273309814453125,6.04329056892693,2.086203340215981,0.592984670670703
1761476173549345800,10.283345703125,6.63873015846908,1.9963607183359562,0.47368068424575027
1761476173559381800,10.2933818359375,6.914595264306664,1.7728562065936624,0.45567368371635675
1761476173569417700,10.303417724609375,6.854477772474288,1.408994252873212,0.36244408627916125
1761476173579453700,10.31345361328125,8.980268734452128,1.2840703807398677,0.5623881646160036
1761476173589489700,10.32348974609375,9.970353538513184,1.5526786473169922,0.5035320344889537
1761476173599525600,10.333525634765625,8.655774914523958,1.4802613536208866,0.12568225275259465
1761476173609561600,10.3435615234375,8.786759255740046,1.3905816672176121,0.3494472785945982
1761476173619597600,10.35359765625,8.75616654907763,1.4566136437907815,0.47848779226653276
1761476173629633800,10.3636337890625,8.286644080489873,1.60668408600986,0.4087593723282218
1761476173639669800,10.373669677734375,8.211010455095767,1.7055866510495543,0.3559758401131257
1761476173649704700,10.38370458984375,8.097004721209407,1.7273671057030557,0.2510218295473605
1761476173659740700,10.39374072265625,8.106000513091683,1.8144632053539156,0.02860365173704922
1761476173669776600,10.403776611328125,8.187577557060122,1.975511260922253,-0.3528312584770843
1761476173679812600,10.4138125,8.062917742690443,2.196592637170851,-0.6438878324992955
1761476173689848600,10.4238486328125,7.703283635798096,2.399121288640797,-0.6451201507732272
1761476173699884500,10.433884521484375,7.308146253848076,2.4545985534518957,-0.4740359274242073
1761476173709920800,10.443920654296875,6.719809189787506,2.2719193885728717,-0.0892198777386453
1761476173719956700,10.453956787109375,6.065454469940066,1.6814692778810858,0.42455227700471876
1761476173729992700,10.46399267578125,5.362655160397291,0.8405237726688385,0.9119250211901962
1761476173740028700,10.474028564453125,4.996791803726554,-0.028437282194197177,1.2957396296150983
1761476173750064600,10.484064697265625,4.4675896502017975,-0.7652206944033503,1.5148165341734885
1761476173760100600,10.4941005859375,3.46967575995028,-1.189780570192635,1.425679576344788
1761476173770136600,10.504136474609375,2.161174994570017,-1.152194935902953,1.034529364334792
1761476173780171500,10.514171630859375,0.436885104355216,-0.870278859463334,0.6935832259733229
1761476173790207700,10.524207763671875,-1.3607517616212368,-0.8200874261006712,0.3714076929248869
1761476173800243700,10.53424365234375,-2.7187176919162273,-0.7601207409158348,-0.12670180505868048
1761476173810279700,10.54427978515625,-3.3300375721573827,-0.35598756708353757,-0.490941213789396
1761476173820315600,10.554315673828125,-4.170013063293696,-0.1573585534006357,-0.6811210000894964
1761476173830351600,10.5643515625,-4.940561966982483,-0.4314189479038119,-0.8650305835463106
1761476173840387600,10.5743876953125,-6.295156375017762,-0.5682715966314077,-1.0178843728736042
1761476173850423600,10.584423583984375,-7.59216076387167,-0.5113251360505819,-0.8644097482342272
1761476173860459500,10.59445947265625,-8.405663843145966,-0.7884352735131979,-0.6969398429248481
1761476173870495700,10.604495849609375,-8.894033635544776,-1.1519240100070833,-0.4739928189348429
1761476173880531700,10.61453173828125,-8.941138501068949,-1.5270748349830507,-0.24569089858187362
1761476173890566700,10.624566650390625,-8.717530236691236,-1.9117434298887848,-0.19571961077591404
1761476173900602600,10.6346025390625,-8.999128917744756,-1.7905448618888853,-0.12681416112566365
1761476173910638600,10.644638671875,-9.216593272539972,-1.7626944396719335,0.21701456520110368
1761476173920674800,10.6546748046875,-9.12536343408525,-2.0653853008538485,0.5654557720256969
1761476173930710800,10.664710693359375,-9.041193451014161,-2.2257643711194395,0.8713529915008693
1761476173940746800,10.674746826171875,-8.927356059432029,-2.3365365299120544,1.2676141898490487
1761476173950782700,10.68478271484375,-8.797305784195661,-2.4543469167783853,1.4663915259614586
1761476173960818700,10.694818603515625,-8.650130186635256,-2.398605886464566,1.4356462590858339
1761476173970854700,10.704854736328125,-8.309186167165636,-2.2484486427448687,0.9645688161410391
1761476173980890600,10.714890625,-7.782399842610955,-2.017849204305559,0.3086975542508065
1761476173990926800,10.7249267578125,-6.98881200864017,-1.5484866024546324,-0.01734261833652854
1761476174000961800,10.7349619140625,-6.270727451682091,-1.1469926910847426,-0.12714447079226374
1761476174010997800,10.744997802734375,-5.070094940346479,-0.7267977325066923,-0.15497089107912032
1761476174021033700,10.75503369140625,-3.923689693760872,-0.48319589689224957,-0.23004560394883156
1761476174031069700,10.765069580078125,-2.965627921426296,-0.3435387121379375,-0.1663674604928121
1761476174041105700,10.775105712890625,-1.8707342508912086,-0.22976269535422325,-0.2079307297091931
1761476174051141600,10.7851416015625,-0.7124462588101625,0.030780630449950695,-0.16209168286975473
1761476174061177900,10.795177734375,0.26034838775396346,0.4211575199998915,-0.09569945814944804
1761476174071213800,10.8052138671875,0.9618915597558021,0.4686636598013341,-0.1224604411618784
1761476174081249800,10.815249755859375,1.5528180557876825,0.4944675247520208,-0.04040708491858095
1761476174091285800,10.82528564453125,2.159606137818098,0.6188258719570935,-0.10968542300183326
1761476174101320700,10.83532080078125,2.6918279314249753,0.7115184764407575,-0.24079790237592533
1761476174111356700,10.845356689453125,3.2473540282517668,0.7432723358370363,-0.36804859175533056
