time,seconds_elapsed,z,y,x
1761476138136281000,0.096281005859375,-0.15610709203481674,-0.12255875043720006,-0.04169365413039922
1761476138146317000,0.106317138671875,-0.7885650373727082,-0.23989377487674354,0.000616834990400821
1761476138156353000,0.11635302734375,-0.6486772587329149,-0.22497794529572127,0.053820154386991635
1761476138166389000,0.126388916015625,-0.06794716254472732,-0.15306173298954961,0.1069484631854575
1761476138176425000,0.136425048828125,0.09490005140006541,-0.0799791072525084,0.0382886862588115
1761476138186461000,0.1464609375,-0.4198451222270727,-0.02859013466835022,-0.0842831428556703
1761476138196497000,0.156496826171875,-0.7781845131337642,-0.04808174773231148,-0.022209769998455885
1761476138206534000,0.166533935546875,-1.0191840572953224,-0.1839542993813753,0.11217663702936842
1761476138216569900,0.17656982421875,-0.5315203673392533,-0.3323347426868975,0.033580453768931325
1761476138226606000,0.186606201171875,-0.465145568677783,-0.10941022278964518,-0.09194554897602647
1761476138236642000,0.19664208984375,-0.6888257292479276,0.28850495331063863,-0.022457824192102998
1761476138246678000,0.206677978515625,-1.3878081108510494,-0.2706238441832363,-0.47009237743020055
1761476138256714000,0.2167138671875,1.0181137977153063,-0.2489579558201134,-0.04962519604833796
1761476138266751000,0.2267509765625,1.8388392294585705,0.054122343070805067,0.499415940939635
1761476138276787000,0.236786865234375,0.9190437671542168,0.07617489266395569,0.39758718625493344
1761476138286823000,0.246822998046875,0.23492986885905265,-0.10286956897452473,0.27086832046359777
1761476138296863000,0.256863037109375,-0.46197979812324047,-0.08990501959174871,0.37867812231928105
1761476138306899000,0.26689892578125,-0.9513719193071126,-0.0013069909453392028,0.28043608528124164
1761476138316935200,0.27693505859375,-1.3109949202835558,0.2245239179179072,-0.41213403639309104
1761476138326971100,0.28697119140625,-1.3685884465962648,0.7849012541681528,-0.8265648054212331
1761476138337007900,0.2970078125,-0.8932154984146357,1.127667666759342,-0.8427284431062638
1761476138347044000,0.307044189453125,-0.20592764625847337,1.1152977222688496,-0.6505135342493653
1761476138357080000,0.317080078125,-0.02780804437994957,0.7275134795606136,-0.46383488793801514
1761476138367116000,0.327115966796875,-0.24102584764659404,0.32612492826133965,-0.5942349629927426
1761476138377152000,0.337152099609375,-0.03660626786351204,0.003707622346282005,-0.2047713158302009
1761476138387188000,0.34718798828125,0.4655781148761511,-0.17700944867953658,0.37248467450663447
1761476138397225000,0.357224853515625,0.9248591754347085,-0.4625887238018214,0.49683198886103924
1761476138407261000,0.367260986328125,1.1384908201992512,-0.8799122185967863,0.4690799124520272
1761476138417297000,0.377296875,1.0017641359388827,-1.177113396321237,0.4250932520136237
1761476138427332900,0.387332763671875,1.057808679243922,-1.030509607299417,0.5439326166015118
1761476138437368800,0.397368896484375,1.112802252191305,-0.5199889194995164,0.6570576951958239
1761476138447404800,0.40740478515625,1.4445686934709547,-0.14435177231132984,0.5344252950005233
1761476138457441000,0.41744091796875,1.9138193593800066,0.058968467927724116,0.17195333433374763
1761476138467478000,0.42747802734375,3.2172651794582605,-0.16042042518928645,0.2933414335563779
1761476138477514000,0.437513916015625,2.133627062430978,-0.7932328830532729,0.951832960947603
1761476138487550000,0.447550048828125,0.8227198204308748,-0.7191521861895919,1.1384477117098868
1761476138497586000,0.4575859375,1.5758528944164514,-0.32863150425478815,0.6157147541992366
1761476138507622000,0.467621826171875,2.0307558860212565,-0.06260550925582647,0.35163726291954517
1761476138517658000,0.477658203125,2.0879946075469253,-0.013515169002860783,0.4050288074977696
1761476138527694000,0.487694091796875,1.8812720115184782,-0.22276202281191942,-0.03501636832356453
1761476138537730800,0.497730712890625,1.8349042280972003,-0.1296725279651582,0.5884301491715014
1761476138547767000,0.50776708984375,1.400606217625737,0.11643164585903286,0.7961249512329697
1761476138557803000,0.517802978515625,1.1221207001566886,0.20994404229298233,0.29121874231398104
1761476138567839000,0.5278388671875,1.7861884202450513,0.41789106554985045,0.11386822511181234
1761476138577875000,0.537875,3.0237042628198862,0.7458981542959809,0.36894027989804745
1761476138587911000,0.547910888671875,4.327509563860297,0.9927562882926314,0.8559995742201805
1761476138597948200,0.5579482421875,5.124297655177116,0.7482320771362632,1.3082006133899091
1761476138607984000,0.567984130859375,5.2395285469442605,0.12032478084005414,1.3948691352784632
1761476138618020000,0.57802001953125,5.260549707663059,-0.5586259625382721,1.4475883335530757
1761476138628056000,0.58805615234375,5.000201319909095,-1.0386486362218856,1.8204551392450927
1761476138638092000,0.598092041015625,4.51074022514224,-0.9445905155386776,2.5354215641826388
1761476138648128000,0.6081279296875,4.126143526428938,-0.6760676622226834,2.859517032442987
1761476138658164000,0.6181640625,4.15605468056798,-0.521275232983008,2.5987343449249862
1761476138668201000,0.628200927734375,4.169075490182638,-0.2563521577246487,2.158768517950177
1761476138678237000,0.63823681640625,4.11459571197629,-0.002898278724774718,1.8845505947977303
1761476138688273000,0.64827294921875,4.506019626361131,-0.17972126492150126,1.9326491475343703
1761476138698308900,0.658308837890625,4.750358544078469,-0.8983647709365934,2.242491049514711
1761476138708344800,0.6683447265625,3.656732117000222,-1.4952990560159087,2.017069305974245
1761476138718381000,0.678381103515625,1.423855575788021,-1.8951203579984603,0.8369853694096208
1761476138728417800,0.688417724609375,-1.5749486390531062,-1.5106199592664837,0.70323770096004
1761476138738453800,0.698453857421875,-3.9830198346078394,-1.1061351955175398,-0.29384762951284643
1761476138748490000,0.708489990234375,-7.097020454424619,-0.012676599286869168,-2.168869348464906
1761476138758526200,0.718526123046875,-11.23436809643507,1.3672617280371486,-4.4423517485707995
1761476138768562200,0.728562255859375,-13.519246627563238,2.2334540488392114,-6.3175236896485085
1761476138778598100,0.73859814453125,-14.559703774511814,2.2913228849619625,-7.474750189977883
1761476138788634000,0.748634033203125,-14.889465305709837,1.9854612847894428,-8.671968508955835
1761476138798671000,0.758671142578125,-14.87513750514984,1.6936115510955452,-9.10837372083962
1761476138808707000,0.76870703125,-14.613601368916035,1.2785685684531927,-9.347716145443917
1761476138818743000,0.778742919921875,-14.625930104613303,0.7829306116823107,-9.552190085762739
1761476138828779000,0.788779052734375,-14.90434372588992,0.7476388604834675,-9.66100877240002
1761476138838815000,0.79881494140625,-15.000688130879402,1.1186221174512059,-9.5569983628273
1761476138848851000,0.808850830078125,-14.617052386152743,1.4249267121508717,-8.94389627534449
1761476138858888000,0.818887939453125,-13.435870425218344,1.4191010747373103,-8.12877874661088
1761476138868924000,0.828923828125,-11.477716249549388,1.210206103105843,-7.260028996410965
1761476138878959900,0.8389599609375,-9.170797736048698,0.6391810430478304,-6.168524383792281
1761476138888995800,0.848995849609375,-7.163379470995068,-0.0009094429951161146,-4.935598791617155
1761476138899031800,0.85903173828125,-5.211307245588302,-0.4789977876152843,-3.6801252675473686
1761476138909067800,0.86906787109375,-3.261282015839219,-0.7856463734470307,-2.503856213095784
1761476138919105000,0.87910498046875,-1.803365765017271,-0.921185674553737,-1.470477041709423
1761476138929141000,0.88914111328125,-0.5135504108846187,-1.0484341171771288,-0.5397475129365921
1761476138939177000,0.899177001953125,0.6990741515398025,-1.242541269521415,0.4291121322661638
1761476138949213000,0.909212890625,1.8241519479364157,-1.5483460249401628,1.374007549035549
1761476138959249000,0.919248779296875,2.9310715718299147,-1.5567032266579568,2.2568220649451014
1761476138969285000,0.92928515625,3.839851134601235,-1.2781092803783713,3.144627228748798
1761476138979321000,0.939321044921875,4.559091875857114,-1.049579633950442,4.18526031678617
1761476138989357800,0.94935791015625,5.11377100046575,-0.7801192805886268,5.110961788263917
1761476138999394000,0.95939404296875,5.473612028107047,-0.4656007650993764,5.932515487524867
1761476139009430000,0.969429931640625,5.849711532109976,-0.24063363345861433,6.556423631182312
1761476139019466000,0.979466064453125,6.411942679533362,-0.026074352455139158,6.935459188637137
1761476139029502000,0.989501953125,6.981459892311692,0.2514598556384444,7.224992169821262
1761476139039538000,0.999537841796875,7.510574952074885,0.6034788113519549,7.37759037695229
1761476139049575200,1.0095751953125,8.035376824814081,0.9855318169318139,7.359857151862978
1761476139059611100,1.019611083984375,8.580811151215434,1.29753615764305,7.346968444195389
1761476139069647000,1.029647216796875,8.953793984502553,1.5498314411923289,7.3975371864378445
1761476139079683000,1.03968310546875,9.154595958310365,1.6901967742159962,7.438898539873957
1761476139089719000,1.049718994140625,9.336524889343977,1.7162591439723967,7.407945183205604
1761476139099755000,1.059755126953125,9.56192062166035,1.7352188421167432,7.295458621710538
1761476139109792000,1.0697919921875,9.69799147236049,1.77422223424986,7.108989709159731
1761476139119828000,1.079827880859375,9.575770867836475,1.7455153413340447,6.845722219088673
1761476139129864000,1.089864013671875,9.358815631607174,1.697694436495006,6.558670533326268
1761476139139900000,1.09989990234375,9.08477949476242,1.8268769889861345,6.113204063108563
1761476139149935900,1.109935791015625,8.792361898052691,1.956197488643229,5.645970582240819
1761476139159971800,1.119971923828125,8.542906075713038,1.9532140889182685,5.216747975337505
1761476139170008800,1.1300087890625,8.338383620077371,1.9276915251269935,4.833549745245278
1761476139180044800,1.140044921875,7.876748105347156,1.8507827652305364,4.475718596121668
1761476139190080800,1.150080810546875,7.321289228537679,1.7153268315583468,4.210217063388228
1761476139200117000,1.160116943359375,6.775944333985447,1.5726619894206524,3.9403950371071694
1761476139210153000,1.170153076171875,6.172226745441556,1.5681275608614087,3.5740441891804338
1761476139220189200,1.180189208984375,5.599868756279349,1.806483897037804,3.2184710481166836
1761476139230226000,1.190225830078125,4.985950091716647,1.9708897386014461,2.8499329192787406
1761476139240262100,1.20026220703125,4.6878871825963255,1.9489792278274893,2.473409929166734
1761476139250298000,1.210298095703125,4.272451693505048,1.7138260716065763,2.279362398055196
1761476139260334000,1.220333984375,3.9773990721166133,1.3177742051601409,2.1147662946164605
1761476139270370000,1.2303701171875,3.355577087083459,1.054198672053218,1.9901158325970172
1761476139280406000,1.240406005859375,1.9999568431317805,0.8491554074138402,1.703110324063897
1761476139290439200,1.250439208984375,0.3225000157624483,0.64424775185287,1.1416495764911174
1761476139300475100,1.26047509765625,-1.5157716429412365,0.4180938946455717,0.4907368137910962
1761476139310511000,1.270510986328125,-4.444498112949729,-0.34261604433506726,-0.07233692193627357
1761476139320547300,1.28054736328125,-7.481302095839381,-1.0092077299430966,-0.8846063677623868
1761476139330583300,1.290583251953125,-10.098588288760185,-0.7344570150882005,-2.6628864991009236
1761476139340619300,1.300619384765625,-12.682395990449189,-0.4103691456124186,-4.769125203868747
1761476139350656300,1.31065625,-15.438553478443621,-0.6328530821353197,-6.748691000878811
1761476139360692200,1.320692138671875,-17.132480379098652,-0.5791007414206862,-8.3201266633749
1761476139370728200,1.330728271484375,-16.944049226564168,0.14866758968383073,-9.321611397850512
1761476139380764200,1.34076416015625,-15.453262387275695,0.5848021679326891,-9.53486251886487
1761476139390800100,1.350800048828125,-14.016889859741925,0.08093304697647691,-8.72032191323638
1761476139400836400,1.36083642578125,-12.953091584694384,-0.883536254312843,-7.425674901163577
1761476139410873000,1.370873046875,-11.987164485812187,-1.4370973346769809,-6.29810762603879
1761476139420909000,1.380908935546875,-11.119235988867283,-1.5985063325121998,-5.359432106697559
1761476139430945300,1.3909453125,-10.62454809936285,-1.940811849593371,-4.759335631260275
1761476139440981200,1.400981201171875,-10.431835908508301,-2.41925748321861,-4.3975805866912
1761476139451017200,1.411017333984375,-9.917361953037977,-2.7962124350070954,-4.250435676530003
1761476139461053200,1.42105322265625,-8.821187595042586,-2.753515741313994,-4.278803108358383
1761476139471090400,1.43109033203125,-7.350749131777882,-2.429629970281571,-4.440756003811956
1761476139481126400,1.44112646484375,-6.132647599247098,-2.1296426689699293,-4.493431655205786
1761476139491162400,1.451162353515625,-5.390951280555129,-1.9096597554825245,-4.27947092461735
1761476139501198300,1.4611982421875,-4.542451706701517,-1.974577194942534,-3.2437419752344487
1761476139511234300,1.471234375,-3.4643858368486162,-2.402585311489552,-1.7376733956620096
1761476139521270300,1.481270263671875,-2.7582068217396736,-2.7463670386031267,-0.39873803679049014
1761476139531307300,1.491307373046875,-2.1935686131745578,-2.320994385126233,0.43448622651994223
1761476139541343200,1.50134326171875,-1.261967562264204,-1.6921040691420435,0.878779561305046
1761476139551379200,1.511379150390625,0.369142524471879,-1.045709514518827,1.6696534601420163
1761476139561415200,1.521415283203125,1.2693880676537752,-0.817820065690577,1.6939613874465227
1761476139571451100,1.531451171875,2.605857620933652,-0.5344075766807421,1.9223498718380927
1761476139581487000,1.541487060546875,3.443655183508992,-0.5930612065056339,2.1879086877167224
1761476139591524000,1.551524169921875,4.477982449400424,-0.7751554476361722,2.8871079269409177
1761476139601560000,1.56156005859375,5.779246833786368,-0.7010377066977321,3.655307344894111
1761476139611596300,1.57159619140625,7.085726322472095,-0.4993192756321281,4.15468309995383
1761476139621632300,1.58163232421875,8.037759336036443,-0.37620099161602555,4.642876366741955
1761476139631668200,1.591668212890625,8.60909207380414,-0.301956555557996,5.071097979909181
1761476139641704400,1.601704345703125,9.04710705897212,-0.1466071500226855,5.3412090522646904
1761476139651741200,1.6117412109375,9.305567441022395,0.054041094528138635,5.436224254477024
1761476139661777200,1.621777099609375,9.454313648900389,0.29849355562254787,5.354234538054466
1761476139671813400,1.6318134765625,9.555309094566105,0.5529141607627273,5.137769715690612
1761476139681849300,1.641849365234375,9.649082187762856,0.7826222033202648,4.920541507738829
1761476139691885300,1.65188525390625,9.765826406702399,0.9567549275197088,4.816362755861878
1761476139701922300,1.66192236328125,9.723028298461436,0.9562589606963098,4.689632272697985
1761476139711958300,1.671958251953125,9.535161794072389,1.0444019390515982,4.408295457451045
1761476139721994200,1.681994140625,9.344411843201517,1.1396209932729602,4.352949417804181
1761476139732030200,1.6920302734375,9.142267807134985,1.1460532182775438,4.268801354303956
1761476139742066200,1.702066162109375,8.837568821001053,1.1441082216896117,4.065130547061562
1761476139752102100,1.71210205078125,8.423011283788085,1.2930780091904104,3.893792860408127
1761476139762139400,1.722139404296875,8.035030787855387,1.4876640310928224,3.7349145500943064
1761476139772175400,1.73217529296875,7.655996399444342,1.606609559468925,3.461398929992318
1761476139782211300,1.74221142578125,7.279423432710766,1.7172447940088809,3.1482182389780875
1761476139792247300,1.752247314453125,6.8482058525979514,1.817226240326464,2.8955963538229463
1761476139802283300,1.762283203125,6.233967454561591,1.8199188404113054,2.6796359738498925
1761476139812320300,1.7723203125,5.625300134655833,1.797399842350185,2.3938588380679486
1761476139822356200,1.782356201171875,5.026327694812417,1.7749711529210208,2.158338017578423
1761476139832392200,1.79239208984375,4.437510738280415,1.5951207817271351,2.0342302841335536
1761476139842428200,1.80242822265625,3.5995424953132864,1.2330904273480177,1.8965289096221327
1761476139852464000,1.812464111328125,2.443808279368281,0.8202008233472704,1.8462667491108178
1761476139862500000,1.8225,1.2022417000979184,0.2646434545993805,1.7461673755019902
1761476139872537000,1.832537109375,-0.16890402976572513,-0.4416051186144352,1.5099357763946055
1761476139882573000,1.842572998046875,-2.213047805148363,-1.2077023035913705,1.2035095280766486
1761476139892609000,1.852609130859375,-5.160504110068082,-1.7647393895030021,0.21840251242816447
1761476139902645000,1.86264501953125,-8.845963139858842,-1.5212833921000362,-1.406238962815702
1761476139912681200,1.87268115234375,-12.164601950645446,-1.1208590096578002,-3.1542420293122526
1761476139922717400,1.882717529296875,-14.723809464085102,-1.0190794278770685,-5.215121835440397
1761476139932754200,1.892754150390625,-16.608111637079716,-0.8384428747415542,-7.162186461818218
1761476139942790100,1.9027900390625,-17.239039888632295,-0.546965189230442,-8.372450724852085
1761476139952826400,1.912826416015625,-16.29110671160221,-0.7480284443229437,-8.689303674638271
1761476139962862300,1.9228623046875,-15.316443348556756,-1.5294117534980176,-8.29314104129374
1761476139972898300,1.932898193359375,-14.490122288763523,-2.2499366893455384,-7.426704828733206
1761476139982935300,1.942935302734375,-13.320054427039622,-2.6561241653591394,-6.6270028957962985
1761476139992971300,1.95297119140625,-12.521135753434896,-3.0022564011216164,-5.823098250472546
1761476140003007200,1.96300732421875,-11.94334638687372,-3.5594410788103934,-4.899841541798413
1761476140013043200,1.973043212890625,-11.129010363906621,-4.032344129747152,-4.216437545338273
1761476140023079200,1.9830791015625,-10.23824927290678,-4.11857718282789,-3.7649481615692375
1761476140033115100,1.993115234375,-9.115352327680588,-3.9128690245389937,-3.4612966386616226
1761476140043152400,2.00315234375,-7.744840804067254,-3.561820082901418,-3.186472274048626
1761476140053188400,2.013188232421875,-6.382627153199911,-3.0354663045451042,-2.9770421726271508
1761476140063224300,2.023224365234375,-5.024860544869304,-2.40625888543576,-2.625586696015298
1761476140073260300,2.03326025390625,-3.689089495247602,-1.7802597608484327,-1.9415929169684647
1761476140083296300,2.043296142578125,-2.613419580620527,-1.1685239932827651,-1.1269511890530586
1761476140093333200,2.053333251953125,-1.6577274600267409,-0.9292255539506673,-0.46329614141881464
1761476140103369200,2.063369140625,-0.632824440562725,-0.9744827457815408,0.19719225887805222
1761476140113405200,2.0734052734375,0.5091571443617343,-1.0618071012303232,0.8396206863492727
1761476140123441200,2.083441162109375,1.620160238176584,-0.9852953778274357,1.463680805698037
1761476140133477000,2.09347705078125,2.3445354197114705,-0.587762186782062,1.9395026666909456
1761476140143513000,2.10351318359375,2.621403565111756,0.15805486510172487,1.8311285089507698
1761476140153550000,2.113550048828125,3.056026569753885,0.8474887893758714,1.5828475756093858
1761476140163586000,2.1235859375,3.8334085343331097,1.2991489996671677,1.7025801627099513
1761476140173622000,2.1336220703125,4.872646368619799,1.4270723458774388,2.2423852510526774
1761476140183658200,2.143658203125,5.956428862553834,1.3760634586520493,2.948583263123035
1761476140193694200,2.153694091796875,6.936179319605231,1.276824062873423,3.482296464331448
1761476140203731200,2.163731201171875,7.686970214378833,1.293014150173962,3.909007380674779
1761476140213767200,2.17376708984375,8.220528225025534,1.3735324788697063,4.211568770258128
1761476140223803400,2.183803466796875,8.71770676230192,1.4344253389887511,4.383585963608324
1761476140233839400,2.19383935546875,9.16674699935317,1.4491587977401912,4.515451471573114
1761476140243875300,2.203875244140625,9.567487608137727,1.4830528840355575,4.58029569966644
1761476140253912300,2.213912353515625,9.948908599424362,1.5842556888416408,4.539204395343363
1761476140263948300,2.2239482421875,10.166312163943052,1.6097753300234674,4.318807494227588
1761476140273984300,2.233984375,10.02140568035841,1.5676552671745418,3.9831873001292344
1761476140284020200,2.244020263671875,9.720850954422355,1.5772043090254066,3.6669367001503703
1761476140294059300,2.254059326171875,9.607703298670053,1.6692802429154514,3.384828608269989
1761476140304095200,2.26409521484375,9.472280682745575,1.713157378564775,3.1658000728979703
1761476140314132200,2.27413232421875,9.160355837011338,1.6865896896347403,3.11389803622514
1761476140324168200,2.284168212890625,8.828338051319122,1.7219801519677043,3.118857704459131
1761476140334204200,2.2942041015625,8.48809078194201,1.7425690587490796,3.0257810690939424
1761476140344240000,2.304240234375,7.993835438635945,1.7333298134997486,2.8179715546116233
1761476140354276000,2.314276123046875,7.472789119037985,1.8013219842299817,2.5538953785061835
1761476140364313300,2.324313232421875,7.102361815452575,1.8264993878453968,2.2128490677058696
1761476140374349300,2.334349365234375,6.669950057119131,1.8019988605782389,1.89815621856302
1761476140384385300,2.34438525390625,6.096572661781311,1.7617568665608763,1.6575187857121227
1761476140394421200,2.354421142578125,5.466631667700409,1.7812535941913723,1.4847164333336054
1761476140404457200,2.364457275390625,4.921001526466012,1.760375641335547,1.4031930192485451
1761476140414494200,2.374494140625,3.9643712482392788,1.4520251469567418,1.079310609216988
1761476140424530200,2.3845302734375,2.335281853675842,0.9272691591858864,0.5844258819662034
1761476140434566100,2.394566162109375,0.4285661888211965,0.44168665941804647,0.31268180158138276
1761476140444602400,2.404602294921875,-1.6035399427652357,-0.039625323423743246,0.4671547165431082
1761476140454638300,2.414638427734375,-3.3082653008103367,-0.6615498920485376,0.11278013761416077
1761476140464675000,2.424675048828125,-5.043472306358814,-1.3293860247597098,-0.43832814277037974
1761476140474711300,2.434711181640625,-7.672234417539834,-2.2284198540642857,-0.7114552019461989
1761476140484747300,2.444747314453125,-10.538915642523765,-2.883228747420013,-1.0826046823263167
1761476140494783200,2.454783203125,-12.639894234806299,-2.9713787400379776,-2.108237331239134
1761476140504819200,2.464819091796875,-14.855803859126567,-2.764287602958083,-3.251249866646528
1761476140514856400,2.4748564453125,-17.123264806985855,-2.4676810301259158,-4.250139908453822
1761476140524892400,2.484892333984375,-17.42409951890707,-2.301527468112111,-5.32198062018156
1761476140534928400,2.494928466796875,-16.272900023782253,-2.0585852654501795,-5.867294535073637
1761476140544964400,2.50496435546875,-15.075008920109271,-2.1504235911920664,-5.463431410354375
1761476140555000300,2.515000244140625,-13.929006993627548,-2.781287253075838,-4.373203101281821
1761476140565036300,2.525036376953125,-13.06820966373682,-3.4605624791681766,-3.0589649612933396
1761476140575073300,2.5350732421875,-12.3392173437953,-3.682139237718284,-1.9091703645303844
1761476140585109200,2.545109130859375,-11.587639098036288,-3.4996956351608035,-1.3375412741646169
1761476140595145200,2.555145263671875,-10.440512551438808,-3.4378505888834594,-0.8282869530387222
1761476140605181200,2.56518115234375,-8.599104932796955,-3.3972356699004767,-0.2545780607242137
1761476140615217200,2.575217041015625,-6.238915432357787,-3.0009824356630443,0.20208361111618578
1761476140625254100,2.585254150390625,-3.945269072884321,-2.3677865314394233,0.44889322979599233
1761476140635290400,2.595290283203125,-2.043904705929756,-1.9153510989919305,0.6502104596495628
1761476140645326300,2.605326416015625,-0.40046354540884493,-1.5571262743756173,0.6827019856706261
1761476140655362300,2.6153623046875,0.920158450397849,-1.0742781680077313,0.5700878522731363
1761476140665398300,2.625398193359375,1.9180097968071699,-0.6755009682506322,0.5010834357604385
1761476140675435300,2.635435302734375,2.72399066388309,-0.38347368603274223,0.5399187778502702
1761476140685471200,2.64547119140625,3.44179348129034,-0.22520985435545443,0.6211028769783675
1761476140695507200,2.655507080078125,4.0338586259633304,-0.15987068235203622,0.7620731901578605
1761476140705543200,2.665543212890625,4.560352689573168,0.023977234045416115,0.9953165672346949
1761476140715579400,2.675579345703125,4.9661307080030435,0.36670316849574447,1.2739794870972632
1761476140725616000,2.6856162109375,5.243797894826531,0.7230318041019141,1.5111812464110552
1761476140735652000,2.695652099609375,5.397540595817565,0.9412972461469471,1.6537841292284428
1761476140745688300,2.705688232421875,5.668620220944285,1.0859567692331968,1.843309214479476
1761476140755724300,2.715724365234375,6.104446171635389,1.2116069098144768,2.0892481147393585
1761476140765760300,2.72576025390625,6.569065086090564,1.192658171455562,2.297599481013417
1761476140775797200,2.73579736328125,6.976624727240204,1.0828897828780113,2.4881144540846347
1761476140785833500,2.74583349609375,7.340130707129836,1.0880769762575626,2.6398475688189267
1761476140795869400,2.755869384765625,7.74438020081818,1.194716419159621,2.59304840824306
1761476140805905400,2.765905517578125,8.16878342474103,1.3140091535381972,2.5036852404430507
1761476140815941400,2.77594140625,8.47499690709114,1.3748577361240981,2.5040602112352848
1761476140825978400,2.785978271484375,8.714465588423609,1.3908403181537985,2.5060993158474565
1761476140836014300,2.796014404296875,8.955386222130059,1.400362910389155,2.4547850159347058
1761476140846050300,2.80605029296875,9.07424056509137,1.4749356285534798,2.327402498602867
1761476140856086300,2.816086181640625,9.016340749308466,1.5116978176310658,2.149510129608959
1761476140866123300,2.826123291015625,8.89943461780548,1.5283827027112245,2.010647602363676
1761476140876159200,2.8361591796875,8.72490631841719,1.460758488510549,1.8942036815449594
1761476140886195200,2.8461953125,8.466181147950888,1.4144289912730454,1.6925255094245075
1761476140896231200,2.856231201171875,8.157593337684869,1.7487094612002372,1.1923495438978076
1761476140906267100,2.86626708984375,7.686107460069656,1.9256141343310473,1.028800903685391
1761476140916303000,2.87630322265625,7.204129999056458,1.957036569815874,0.8977243541412055
1761476140926340400,2.88634033203125,6.7451207411766045,1.9191651043221354,0.6494802456788719
1761476140936376300,2.896376220703125,6.228060276344418,1.8132345403417944,0.4494242679327726
1761476140946412300,2.906412353515625,5.533883833718299,1.7696838601678608,0.3542041907981038
1761476140956448300,2.9164482421875,4.803108722013235,1.7070394802063702,0.23864172898903488
1761476140966485200,2.9264853515625,3.9778047303080557,1.5654352530375122,0.09225523597970604
1761476140976521200,2.936521240234375,2.973607814264297,1.3295964526399968,-0.1095413018234074
1761476140986557200,2.94655712890625,1.6651970652550458,0.8805635221123694,-0.15286496830843388
1761476140996593200,2.95659326171875,0.10118483075797557,0.1287251641124487,0.08255356085039675
1761476141006629000,2.966629150390625,-1.8113392281144856,-0.8375526479035615,0.17576229816265404
1761476141016666000,2.976666015625,-3.978700802364945,-1.7688754663944244,0.08596336929388344
1761476141026702000,2.9867021484375,-5.890517005228996,-2.3468682465732096,-0.2728607363898307
1761476141036738000,2.996738037109375,-7.932308664527535,-2.600911688964069,-0.8322890282869339
1761476141046774300,3.006774169921875,-10.48013962842822,-2.852109386534989,-1.4753005163431168
1761476141056810500,3.016810546875,-12.78181848770976,-3.1730119039729234,-2.3638418854668735
1761476141066847200,3.02684716796875,-14.343748655235766,-2.987709989374876,-3.306679492923617
1761476141076883200,3.03688330078125,-15.275471871221065,-2.312660856544971,-3.988703140941262
1761476141086919400,3.04691943359375,-15.912197410875558,-1.6200047553539276,-4.634201185116171
1761476141096955400,3.056955322265625,-16.030459048640726,-1.3701827300503848,-4.645252155962586
1761476141106991400,3.066991455078125,-15.277223098802565,-1.7233941104188562,-3.911629545871913
1761476141117028400,3.0770283203125,-14.03763921778202,-2.3980963295072315,-2.787180695028603
1761476141127064300,3.087064208984375,-12.6621224332273,-3.2578570098266004,-1.7985636254325508
1761476141137100300,3.097100341796875,-11.370462328010797,-4.151836770612001,-1.0888116472076623
1761476141147136300,3.10713623046875,-10.260224957871436,-4.609255836690962,-0.6510930877029896
1761476141157172200,3.117172119140625,-9.538325226539373,-4.494949366292357,-0.6295679960500449
1761476141167209500,3.12720947265625,-8.822071392139792,-3.8555762347385283,-0.6652046882290392
1761476141177245400,3.137245361328125,-7.649300116676092,-3.0690941411197183,-0.6018643618926406
1761476141187281400,3.147281494140625,-6.12350392332673,-2.268290968942642,-0.6043073711305856
1761476141197317400,3.1573173828125,-4.2408588698893785,-1.3981608703002333,-0.6735842479091138
1761476141207354400,3.167354248046875,-2.538969027531147,-0.8435572951458394,-0.6682943248074501
1761476141217390300,3.177390380859375,-1.2087836690872906,-0.8610143336422741,-0.3603806874759495
1761476141227426300,3.18742626953125,-0.07610767264664173,-1.1280812159962952,0.23448022539541125
1761476141237462300,3.197462158203125,1.0772434475541115,-1.8330477865755557,1.425832428818941
1761476141247498200,3.207498291015625,1.8660288496792314,-1.1829064466394483,1.0711953995615244
1761476141257535200,3.21753515625,2.745541985955834,-0.1243190381079912,0.6276239493101835
1761476141267571200,3.2275712890625,4.061395452186465,0.27748452373296023,0.805326494820416
1761476141277607200,3.237607177734375,5.613417389160395,0.301043678496778,1.1441150898218155
1761476141287643100,3.24764306640625,6.011092180633544,0.28110797492712736,1.0399738934762774
1761476141297677300,3.25767724609375,6.542756340357661,0.5634646347410976,1.123215655786544
1761476141307713500,3.267713623046875,7.097046173387765,0.9111426386408508,1.7445194621644913
1761476141317749500,3.27774951171875,7.421385679537058,1.0158521363936364,2.195925843825191
1761476141327785500,3.287785400390625,8.133263198548555,1.1859088433258236,2.371444907816499
1761476141337821400,3.297821533203125,8.693268486616015,1.4269495962806045,2.506528647175431
1761476141347858400,3.3078583984375,9.079433457559347,1.5472621752262115,2.7047558020591733
1761476141357894400,3.317894287109375,9.316782077997923,1.5905004284501074,2.8716140052109953
1761476141367930400,3.327930419921875,9.52167512051165,1.5465173482082784,2.945413400915265
1761476141377966300,3.33796630859375,9.799290284886956,1.5278759222328662,2.9399142189770937
1761476141388002300,3.348002197265625,9.945880776035786,1.5759382346123456,2.9080057535409924
1761476141398039300,3.358039306640625,9.921227980816363,1.5926958926677703,2.8145301819860933
1761476141408075300,3.3680751953125,9.79497417525351,1.5760060391515494,2.664578397710621
1761476141418111200,3.378111328125,9.604715807291864,1.5275708018064498,2.472123104226589
1761476141428147200,3.388147216796875,9.273459069100022,1.4988018034398556,2.245887267824262
1761476141438184400,3.398184326171875,8.798255632266402,1.4629583366423844,2.0099585971862077
1761476141448220400,3.408220458984375,8.348152734419703,1.4906313564658165,1.7860061955459414
1761476141458256400,3.41825634765625,7.9748507521808145,1.5457760283216833,1.6051599451825023
1761476141468292400,3.428292236328125,7.394522222530841,1.512378201110661,1.4120209072180092
1761476141478328600,3.43832861328125,6.727219758304953,1.5186317085474728,1.1012088450312614
1761476141488365300,3.448365234375,5.896196804431081,1.7188801401257514,0.7887769265577197
1761476141498401300,3.4584013671875,4.967420747813582,1.9506965531393885,0.4855279931016266
1761476141508437500,3.4684375,4.006003819832205,1.911578886976838,0.13814641486518084
1761476141518473500,3.478473388671875,3.0796763254106043,1.662889665095508,-0.10728957737386226
1761476141528510200,3.48851025390625,1.9513474182635544,1.1900041498154401,-0.0434744000673294
1761476141538546400,3.49854638671875,0.8917436722964048,0.41801118479818106,0.3198226132467389
1761476141548582400,3.50858251953125,0.39549218673706055,-0.6295099091872572,0.9183724437639117
1761476141558618400,3.518618408203125,-0.31852526691257954,-1.7414537909835577,1.4258949726611374
1761476141568654300,3.528654296875,-1.9049305350035428,-2.3748010863766074,1.6695556988559663
1761476141578691600,3.538691650390625,-4.392839237383008,-2.653916718442738,1.375607969969511
1761476141588727600,3.5487275390625,-7.2087787016451355,-2.919633355231583,0.7738851354394107
1761476141598763500,3.558763427734375,-10.453888750362395,-2.995615355671942,-0.36203707638084887
1761476141608799500,3.568799560546875,-13.46573364856243,-2.893030594988167,-1.9342416774228215
1761476141618836500,3.57883642578125,-14.956796382182835,-2.6050886823877692,-3.7012042959332465
1761476141628872400,3.58887255859375,-14.754450101542472,-1.9878829589784144,-5.2281531664490695
1761476141638908400,3.598908447265625,-13.612017265719174,-1.8619480101063846,-5.8859624106645585
1761476141648944400,3.6089443359375,-13.095305760455132,-2.5244071259543297,-5.2934962839752435
1761476141658980400,3.61898046875,-11.876177807486057,-3.2930881899446245,-3.977956413738429
1761476141669017300,3.629017333984375,-10.835513739788531,-3.8202906940847634,-2.458625909271836
1761476141679053300,3.63905322265625,-10.770028583443164,-4.2179494112059475,-1.195070639424771
1761476141689089300,3.64908935546875,-11.17886423587799,-4.369007695418596,-0.4270967007905245
1761476141699125200,3.659125244140625,-11.40369005935192,-4.334704736061394,-0.2384562163542956
1761476141709162500,3.66916259765625,-11.271723721361159,-3.857908477078378,-0.3689996819350868
1761476141719198500,3.679198486328125,-9.403688792556524,-3.364932652188837,-0.46970827348344024
1761476141729234400,3.689234375,-8.931841095891594,-1.1774091643974185,-0.694184187541157
1761476141739270400,3.6992705078125,-6.134131115803122,-0.6810895820379257,-1.104907991810143
1761476141749306400,3.709306396484375,-3.6510879736334085,-0.8557432613715529,-1.0578953346140683
1761476141759343400,3.71934326171875,-1.6703052020490168,-0.7518892114043235,-0.6152152802444995
1761476141769379300,3.72937939453125,0.42328970972299573,-0.8376379880994558,-0.06089402916282415
1761476141779415300,3.739415283203125,1.5309394014567135,-0.5447445905715227,0.5729295054398477
1761476141789451300,3.749451171875,1.9840952571332453,0.005751987655460834,0.7318330963253975
1761476141799488300,3.75948828125,2.773907664218545,0.19391221429407596,0.6820826847285032
1761476141809524200,3.769524169921875,3.549906065484881,0.15486176814883945,0.9129194390550255
1761476141819560200,3.779560302734375,3.4350264713734386,0.3964828052096069,1.2782719235941766
1761476141829596200,3.78959619140625,3.1726123832613227,1.1350944557592273,1.13909901522547
1761476141839633400,3.79963330078125,3.218121504026651,1.7088054669655859,0.8818842493221163
1761476141849669400,3.80966943359375,3.602473288068175,1.7981826632909477,0.9125763247057795
1761476141859705300,3.819705322265625,4.976280930617452,1.4246695225194095,1.3299433663815259
1761476141869741300,3.8297412109375,5.771753263160586,1.0521136824727058,1.7595479583397506
1761476141879777500,3.839777587890625,5.828049150878191,0.9775267896525561,2.2298501791283485
1761476141889814300,3.849814208984375,6.2089680378615855,1.1031216929152607,2.709501827542484
1761476141899850500,3.8598505859375,6.992406233739852,0.9785852126643061,2.94963715609014
1761476141909886500,3.869886474609375,7.759292523267865,1.0492061244629323,3.1080373274981974
1761476141919922400,3.87992236328125,8.292090070936084,1.364874979031086,3.1233804425805807
1761476141929959400,3.88995947265625,8.644909237116575,1.2592302462548017,2.807506859220564
1761476141939995400,3.899995361328125,9.080288028562068,1.0522880161263048,2.729562326535582
1761476141950031400,3.91003125,9.32178383180797,1.0040846878409384,2.829271824043989
1761476141960067600,3.920067626953125,9.164981743246317,1.1025181740641594,2.668569805434346
1761476141970104600,3.9301044921875,9.007484073635935,1.149979305680096,2.461869421237707
1761476141980140500,3.940140625,8.828329868012666,1.191371346515417,2.332622571338713
1761476141990176500,3.950176513671875,8.470398473384975,1.2118804660588502,2.074639305280894
1761476142000212500,3.96021240234375,8.16572286812663,1.1929179914355277,1.82366343376711
1761476142010248400,3.97024853515625,8.096696678173542,1.1415157209783793,1.6307579122975469
1761476142020285400,3.980285400390625,8.068067380538583,1.1026377087906003,1.3926217947430908
1761476142030321400,3.9903212890625,7.821397389525175,1.1383727467775344,1.0944957572586833
1761476142040354600,4.0003544921875,7.3198314309448,1.2207146376386284,0.8377949322268367
1761476142050390500,4.010390625,6.613425036820769,1.0936182437717914,0.8782092140711844
1761476142060427500,4.020427490234375,5.897770337358117,1.0578101405486464,0.7627111958004534
1761476142070463500,4.03046337890625,5.111245281380414,1.2998556866317987,0.5286168279174714
1761476142080499500,4.04049951171875,4.124982081434131,1.34899585737586,0.4767992546577006
1761476142090535400,4.050535400390625,3.2924434623003003,1.135372688178718,0.3447849858719855
1761476142100572400,4.060572509765625,2.4219454071283337,0.7255246438309549,0.4243635494995862
1761476142110608400,4.0706083984375,1.5426298392504452,0.050805181346833705,0.7770270867269485
1761476142120644400,4.080644287109375,0.64383741748631,-0.9071832334905863,0.9326136620189994
1761476142130680300,4.090680419921875,-1.0440057793408632,-1.7460101391136644,0.9986737687081098
1761476142140716300,4.10071630859375,-3.7237148184269664,-2.3373159898519513,1.3132725098267197
1761476142150753500,4.11075341796875,-7.48227298669815,-2.6365587564066053,0.6596287147276103
1761476142160789500,4.12078955078125,-11.754805344223975,-2.0682298766300082,-1.2110118665307759
1761476142170825500,4.130825439453125,-14.597033680474757,-1.3965528505817055,-3.4567426286190748
1761476142180861400,4.140861328125,-16.5754672585845,-0.9169964792355895,-5.389042816585302
1761476142190898400,4.1508984375,-17.960279110229013,-0.5221916902408004,-6.762506175741553
1761476142200934400,4.160934326171875,-18.441140718954802,-0.6904901553288102,-7.019265599092841
1761476142210970400,4.170970458984375,-18.686598996090886,-1.3265455406367779,-6.0713107947528355
1761476142221006300,4.18100634765625,-18.503241493558882,-2.147274771772325,-4.466620512908697
1761476142231043300,4.191043212890625,-18.26074206622839,-2.8478958604931828,-3.113933107538521
1761476142241079300,4.201079345703125,-17.676968364560604,-3.1383529707849025,-2.3662998000130058
1761476142251115300,4.211115234375,-16.87496926059723,-3.159557671377063,-2.0981082975432277
1761476142261151200,4.221151123046875,-15.80297832674384,-3.0899560196235774,-2.038134598095715
1761476142271188500,4.2311884765625,-14.19230487883687,-2.9165806896626947,-1.8948530853644012
1761476142281224400,4.241224365234375,-11.87505084928274,-2.755837169998884,-1.5989235350109636
1761476142291260400,4.251260498046875,-9.07737710955143,-2.4963787168219684,-1.3978798614017665
1761476142301300700,4.26130078125,-6.30616292220056,-2.097854907304048,-1.0631696217551827
1761476142311337700,4.271337646484375,-3.5764164712697264,-1.9141392389841376,-0.5844026472210884
1761476142321373700,4.281373779296875,-1.7145494174450635,-1.9939641785882412,-0.011963701777160166
1761476142331409700,4.29140966796875,-0.9029419426590204,-1.7505480748042463,0.6563949935033917
1761476142341445600,4.301445556640625,-0.4417664466559887,-0.9885149243958293,0.9398866486966609
1761476142351482600,4.311482666015625,0.34998891119062897,-0.3136659903131425,0.9950792513474821
1761476142361518600,4.3215185546875,1.4443547584593295,0.12561214665845036,1.1510834675297141
1761476142371554600,4.331554443359375,2.8924492879688737,0.3332286227867007,1.3376732299812137
1761476142381590800,4.3415908203125,4.511947847366333,0.5490693219028413,1.5683125620394944
1761476142391627800,4.351627685546875,5.997415537458658,0.9523629761710762,1.8979367305934427
1761476142401663700,4.361663818359375,7.408195943096279,1.3445550984494388,2.278280594167858
1761476142411699700,4.37169970703125,8.776774452820419,1.6095882830187678,2.476873513624072
1761476142421735700,4.381735595703125,9.764807585048676,1.7997842532686887,2.7337159390836954
1761476142431772700,4.391772705078125,10.475632964658736,1.9064269110411405,3.1699913871079684
1761476142441808600,4.40180859375,11.039392636823653,2.053691063667834,3.6136809107810257
1761476142451844600,4.4118447265625,11.373899316722154,2.1844024331614373,3.875969326686859
1761476142461880600,4.421880615234375,11.469930417978762,2.276506716363132,3.941723947623372
1761476142471917600,4.43191748046875,11.493941408163309,2.378314939716458,3.872643397134542
1761476142481953500,4.44195361328125,11.532729111719132,2.4889558733448385,3.6668408385604616
1761476142491989500,4.451989501953125,11.531316906833649,2.593469556264579,3.4523850179314612
1761476142502025700,4.462025634765625,11.629855606997012,2.6321087912604213,3.311101401019096
1761476142512062700,4.472062744140625,11.6229021345973,2.689154036040604,3.155600750444829
1761476142522098700,4.4820986328125,11.565998928636311,2.752514163056016,3.0737396288380023
1761476142532134700,4.492134765625,11.376610329246521,2.8236142366737127,2.960471269315481
1761476142542171000,4.5021708984375,11.212404101908206,2.8944194189980625,2.7962039594396946
1761476142552206800,4.512206787109375,10.97512796218395,2.8220331049621104,2.681861833205819
1761476142562243600,4.52224365234375,10.571779801249503,2.761312971061468,2.4473998741194603
1761476142572279800,4.53227978515625,10.125260022586584,2.8121196137130258,2.139440571015328
1761476142582315800,4.542315673828125,9.669705289074779,2.9179838344588873,1.896158907265961
1761476142592352500,4.5523525390625,9.141012838637828,2.925670589569211,1.7384703912585973
1761476142602388700,4.562388671875,8.628253285869956,2.8196570234805343,1.544884194048494
1761476142612424700,4.5724248046875,8.112302243584393,2.7500439735502002,1.2215664321623743
1761476142622461000,4.5824609375,7.261742230069637,2.797775446540117,0.953434843186289
1761476142632500700,4.592500732421875,6.2798635288178914,2.665513340473175,0.7513814080126583
1761476142642536700,4.60253662109375,5.3903521456182,2.2097511016905305,0.5105806012935936
1761476142652572700,4.61257275390625,4.559850000748038,1.6254446083202958,0.27907530005574227
1761476142662608600,4.622608642578125,3.78057184715867,0.7909156921520829,0.2126306510284543
1761476142672646000,4.63264599609375,2.6411218265384435,-0.2725111192345619,0.2853631481535733
1761476142682681900,4.642681884765625,0.7589303620874881,-1.4557394913047552,0.5468244655855
1761476142692717800,4.6527177734375,-1.7225947767347096,-2.821281994333863,0.7928108582489192
1761476142702753800,4.66275390625,-4.9364673911452295,-3.6636692227870222,0.6814920253589749
1761476142712790800,4.672790771484375,-8.39166922006309,-3.666297817724943,-0.28980098447054625
1761476142722826800,4.68282666015625,-11.90795124836564,-3.3788995104819533,-2.1303224679276345
1761476142732862700,4.69286279296875,-15.800613351178168,-2.9285858924940227,-4.4706051986306905
1761476142742898700,4.702898681640625,-18.914557856893538,-2.2036671056017276,-6.457399193328619
1761476142752935700,4.712935791015625,-20.45980460064411,-1.913070879100263,-7.452201673561334
1761476142762971600,4.7229716796875,-20.411546473431585,-2.514430798602104,-7.4875021195232865
1761476142773007600,4.733007568359375,-19.868759446668623,-3.143109225401282,-6.467154863667488
1761476142783043600,4.743043701171875,-19.88592568552494,-3.359082757116854,-4.923027479335666
1761476142793080800,4.753080810546875,-20.39129863517284,-3.2600539353489872,-3.3558144029706716
1761476142803116800,4.76311669921875,-20.37325327539444,-3.0512051409468053,-1.9023983861774205
1761476142813152800,4.77315283203125,-19.74502551497221,-2.9196938532471655,-1.0986942318618298
1761476142823188700,4.783188720703125,-18.36433804978132,-2.7056694097727534,-0.8899589808367192
1761476142833225700,4.793225830078125,-16.267316670691965,-2.4110905433759093,-0.9270261442102491
1761476142843261700,4.80326171875,-13.689118041056394,-2.2268682407081126,-1.35310884565264
1761476142853297700,4.813297607421875,-10.781242051374912,-1.984349816416204,-1.7043141468957066
1761476142863333600,4.823333740234375,-7.884873544135689,-1.6784838323295115,-1.9516805957406758
1761476142873370600,4.83337060546875,-4.934301153022051,-1.4063501681052148,-1.8162581259466706
1761476142883406600,4.843406494140625,-2.1998124760001896,-1.2775602681934832,-1.2656705084353685
1761476142893442600,4.853442626953125,0.3037678427636623,-1.2279535028509796,-0.5150058703899383
1761476142903478500,4.863478515625,2.5315140353500842,-1.0695156297810375,0.3673806293658912
1761476142913515800,4.873515869140625,4.130888090607524,-0.769034261342138,1.248210401199013
1761476142923551700,4.8835517578125,4.82370785792768,-0.20418474811390042,2.0257402498163284
1761476142933587700,4.893587646484375,4.775233457615971,0.47897827919721603,2.447467386397719
1761476142943623700,4.903623779296875,4.70751601217389,1.1140485989905893,2.576806006233394
1761476142953660700,4.91366064453125,5.161224825558066,1.5942466292411088,2.428436668843776
1761476142963696600,4.923696533203125,5.961556873092055,1.867477294921875,2.1868676542311904
1761476142973732600,4.933732666015625,6.9184075160712,1.969651428978145,2.122209450229257
1761476142983768600,4.9437685546875,8.049769507303834,2.028361976622045,2.2780526306308806
1761476142993805600,4.9538056640625,9.135994718214869,2.1970707760766146,2.479192019699514
1761476143003841500,4.963841552734375,10.015544094848632,2.342220420767367,2.6995915511637922
1761476143013877500,4.97387744140625,10.806697979670762,2.4221543737038966,2.9372271718502043
1761476143023913700,4.983913818359375,11.38851119492054,2.466418170583248,3.150152129650116
1761476143033950700,4.99395068359375,11.71622573046088,2.4296137497991324,3.2992116412609813
1761476143043986700,5.003986572265625,11.88807048985362,2.4069831080570814,3.393748120045662
1761476143054023000,5.01402294921875,11.962137596583366,2.420697452893853,3.407533776552975
1761476143064059000,5.024058837890625,11.700407399082183,2.4137211841404436,3.2690994115918874
1761476143074095600,5.034095703125,11.193721613270043,2.427329730515182,3.0037045541033147
1761476143084131800,5.0441318359375,10.73473281365633,2.3825068384483457,2.603272280615568
1761476143094167800,5.054167724609375,10.204629911899566,2.3050921748563646,2.2336028096601366
1761476143104204500,5.06420458984375,9.561392798393964,2.3442890437349675,1.925267074459046
1761476143114240800,5.07424072265625,8.933768264561891,2.4934037926644086,1.666552571517229
1761476143124276700,5.08427685546875,8.539848441708088,2.5620079578131434,1.4878266743086277
1761476143134312700,5.094312744140625,8.247811953270435,2.3892452067926526,1.4545979200541972
1761476143144349700,5.104349609375,7.969921479085087,2.2424819894254204,1.3165455401480197
1761476143154386000,5.114385986328125,7.811723552250862,2.2713988718301055,1.0944549868568778
1761476143164422000,5.124421875,7.470788885131478,2.1979349916905164,0.8960849163711071
1761476143174457900,5.134457763671875,6.836951468133926,1.7930545066222547,0.8018728472352027
1761476143184494800,5.144494873046875,6.070602354222536,1.2901619756132363,0.609725450656563
1761476143194530800,5.15453076171875,5.434194209954142,0.9304162250399589,0.4261722794219851
1761476143204566800,5.16456689453125,4.94845885771215,0.6443713782325386,0.4360641433611512
1761476143214602800,5.174602783203125,3.9006145231217144,0.21383359707742927,0.3982436774022877
1761476143224639700,5.1846396484375,2.0084891091555357,-0.24773966607153414,0.3099082452148199
1761476143234675700,5.19467578125,-0.6973620869249105,-0.9824705296650529,0.6059919632166624
1761476143244711700,5.204711669921875,-3.7495202908128498,-2.1952821390941737,1.1195194316171109
1761476143254747600,5.21474755859375,-6.955925053560733,-3.427680784785747,0.9266311535432934
1761476143264785000,5.224784912109375,-9.804827460747957,-3.3648373751208185,-0.6754011611379682
1761476143274820900,5.23482080078125,-12.899818259668349,-1.6177381255961953,-2.4529420184165236
1761476143284856800,5.24485693359375,-14.656845467358826,-0.03981163977608084,-5.287518378609419
1761476143294888000,5.254887939453125,-17.213751133596897,1.2304159474417566,-7.704376107209921
1761476143304925200,5.26492529296875,-19.71069069917202,2.1983412344038484,-8.273663602885604
1761476143314961200,5.274961181640625,-20.216302133750915,1.437501823824644,-7.104573646283149
1761476143324997000,5.2849970703125,-18.69610799819231,-0.526014609529823,-5.010754278105497
1761476143335033000,5.295033203125,-16.615369060862065,-1.7455714554354547,-3.331197263586521
1761476143345070000,5.305070068359375,-14.72724294566512,-2.1203942175008357,-2.5098159982830284
1761476143355106000,5.31510595703125,-13.020301080614328,-2.432690234635025,-1.9368395849615334
1761476143365142000,5.32514208984375,-11.630621330672502,-2.849419709059596,-1.04978618937321
1761476143375179000,5.335178955078125,-10.765181727933882,-3.0831878406628963,-0.3799360134258866
1761476143385215000,5.345215087890625,-10.144551583033799,-2.895413982993364,-0.3806460613913834
1761476143395251000,5.3552509765625,-9.181381673905253,-2.4266709743455053,-0.7431289818435907
1761476143405287000,5.365286865234375,-7.521635275271534,-1.949621032862365,-0.954571592131257
1761476143415324200,5.37532421875,-5.322124997088313,-1.7029083717510103,-1.134181140306592
1761476143425360100,5.385360107421875,-4.107233658775687,-1.4490551912352443,-1.1964612170003355
1761476143435396000,5.39539599609375,-2.95058817320466,-1.208000117494166,-0.9577332710325718
1761476143445432000,5.40543212890625,-1.678231318873167,-1.0341095314875244,-0.580442949809879
1761476143455469000,5.415468994140625,-0.4348766871422529,-0.7633616225332022,-0.1521576237566769
1761476143465505000,5.425505126953125,0.9303957667738199,-0.5354939471453428,0.2605726980291307
1761476143475541000,5.435541015625,2.2631150276094676,-0.389372242552042,0.7955553346514701
1761476143485577200,5.4455771484375,3.326930253791809,-0.21168854787275193,1.358420834455639
1761476143495614000,5.455614013671875,4.116614066061377,0.08317921846807003,1.7152692561522125
1761476143505650000,5.46564990234375,4.793870938068628,0.4612674120701849,1.8413124877043068
1761476143515686100,5.47568603515625,5.623503314366936,0.7957378516115248,1.827537790982425
1761476143525722000,5.48572216796875,6.667814214134216,1.0110745467282831,1.9495697410665451
1761476143535759000,5.495759033203125,7.496082316341996,1.0943228849098086,2.0844433448061346
1761476143545795300,5.50579541015625,8.226825863865017,1.1468148502998052,2.110826178688556
1761476143555831300,5.515831298828125,8.797824255111813,1.2289666254162788,2.1060003659673034
1761476143565868000,5.525867919921875,9.118023592716455,1.376436968139559,2.1348225558258593
1761476143575904300,5.535904296875,9.306923531806468,1.5308021849431097,2.1555749826058745
1761476143585940200,5.545940185546875,9.529377365452051,1.6772746026702223,2.2164412469789383
1761476143595976200,5.55597607421875,9.768758368501066,1.6422162949010728,2.3453553577922284
1761476143606013200,5.56601318359375,9.893638547623157,1.6256221568442881,2.457326517111063
1761476143616049200,5.576049072265625,10.00950481468439,1.6289545161373913,2.4027608141869305
1761476143626085000,5.586085205078125,10.141952798712254,1.7085756037324666,2.21890456835255
1761476143636121000,5.59612109375,10.321555332624913,1.8055378483593463,1.9421495279379188
1761476143646158300,5.606158447265625,10.251347239410876,1.914848117905855,1.5477394373491407
1761476143656194300,5.6161943359375,10.151187075525522,1.9576161232694982,1.3261566874496638
1761476143666230300,5.626230224609375,9.93636008349657,1.894676267492771,1.3047735615506768
1761476143676266200,5.636266357421875,9.473591765344143,1.8304767670437692,1.29050494383201
1761476143686303200,5.64630322265625,8.946513764366507,1.8980746777594089,1.2446492015860975
1761476143696339200,5.656339111328125,8.522598616221547,1.9386668003886938,1.1724462082277982
1761476143706375200,5.666375244140625,8.024620453000068,1.9161621231138706,1.0618448759574441
1761476143716412200,5.676412109375,7.421465759035945,1.8747046158269047,0.7839698185369371
1761476143726448000,5.6864482421875,6.7766825851321215,1.7613848183780907,0.4287758129838854
1761476143736484000,5.696484130859375,6.290419409623742,1.5523109830483792,0.2211717579457909
1761476143746520000,5.70652001953125,5.649197727593779,1.0369213740378618,0.22788440732695162
1761476143756557000,5.71655712890625,4.566797043406963,0.2549161335721612,0.3195852242942899
1761476143766593300,5.72659326171875,3.242115543076396,-0.6643737172976136,0.6275655701864511
1761476143776629200,5.736629150390625,1.6101105533272027,-1.4834493360072374,0.9857686213623732
1761476143786665200,5.746665283203125,-0.641166736972332,-2.1906521412059665,1.0766262655038386
1761476143796702200,5.7567021484375,-3.8208196863949295,-2.862081037712097,0.760598368364945
1761476143806738200,5.76673828125,-7.55614544763863,-3.325813232460618,0.25884170951806007
1761476143816774100,5.776774169921875,-11.201835946142673,-3.4342636703073977,-0.5028093097049743
1761476143826811100,5.78681103515625,-13.627966530001162,-2.6574758722290395,-2.1814671103619037
1761476143836847000,5.79684716796875,-15.918691449069977,-0.930498058104515,-4.156998098897934
1761476143846883000,5.806883056640625,-18.102155432337522,0.06376578520685434,-5.518723673987388
1761476143856919000,5.8169189453125,-19.18397334820032,0.16125541470870375,-5.7148179084956645
1761476143866956000,5.8269560546875,-19.09544633896351,0.1955887692041695,-5.184157957378029
1761476143876992000,5.836991943359375,-18.6080228875041,-0.3463105149388313,-3.832516261668503
1761476143887028200,5.8470283203125,-17.39575020725727,-0.998713370066136,-2.5206086104542016
1761476143897064200,5.857064208984375,-16.12131713117361,-1.6938465288951992,-1.4110270738750694
1761476143907101200,5.86710107421875,-14.792342317563294,-2.254436484982818,-0.8891510254546999
1761476143917137200,5.87713720703125,-13.587508262884617,-2.3863898173615334,-0.758347739893943
1761476143927173000,5.887173095703125,-12.47834407493472,-2.366660450018942,-0.868892592736706
1761476143937209000,5.897208984375,-11.089890651917457,-2.294196832963079,-0.9983903486568481
1761476143947246000,5.90724609375,-9.233545576384664,-2.1204593916915355,-1.055020802091062
1761476143957282000,5.917281982421875,-7.3393959631145,-1.8266070860035717,-0.9916381709828972
1761476143967318000,5.927318115234375,-5.011837397167087,-1.729277177108079,-0.6173093299143017
1761476143977355000,5.93735498046875,-2.8219103553652762,-1.4792030767396092,-0.21910466934815048
1761476143987391000,5.947390869140625,-0.9750590843647717,-1.1386904344245792,0.08833017149046063
1761476143997427000,5.957427001953125,0.6507593257039785,-0.6500406560406089,0.04736848489642143
1761476144007463200,5.967463134765625,1.8545131839305162,-0.7277497725345194,0.6648888272128999
1761476144017500200,5.977500244140625,2.980457241767645,-0.2744862186998129,0.7222969139561056
1761476144027536100,5.9875361328125,4.1698336150735615,0.3535587325014174,0.8134874433137476
1761476144037572000,5.997572021484375,5.23410184572041,0.640576223733276,1.1883576977826653
1761476144047608000,6.007608154296875,5.613161368572712,0.8353815874747932,1.5320187211260199
1761476144057645000,6.01764501953125,6.224541454568505,1.0901428227461873,1.4826970563352107
1761476144067681000,6.027680908203125,7.119321133559942,1.3974457077682017,1.3191688743889332
1761476144077717000,6.037717041015625,7.967019912424683,1.5745654849544166,1.324411451217532
1761476144087754000,6.04775390625,8.827654745230078,1.5779698865704237,1.3952636875540017
1761476144097790000,6.0577900390625,9.741510296091437,1.5652867844775318,1.6183555268421768
1761476144107826000,6.067825927734375,10.421415052258968,1.6307419840760529,1.9682681579262018
1761476144117862000,6.07786181640625,11.185777960789203,1.5190065332092344,2.2657278404563663
1761476144127899100,6.087899169921875,11.587828483128547,1.4627895559467374,2.2070571864314377
1761476144137935000,6.09793505859375,11.631129864716529,1.4549877961546183,1.9640204373538492
1761476144147971000,6.10797119140625,11.471966892242431,1.4298423951126635,1.7677086145721375
1761476144158007000,6.118007080078125,11.170274102187156,1.4565785724774003,1.5842701557584107
1761476144168044000,6.1280439453125,10.746109947717189,1.5298964682750402,1.3704979334793983
1761476144178080000,6.138080078125,10.180368746346234,1.48668510305807,1.2496806198820472
1761476144188116000,6.148115966796875,9.717474171465634,1.4858789012417197,1.0710376517165452
1761476144198153000,6.158153076171875,9.604895255511998,1.6169363076940177,0.9813836842764169
1761476144208189000,6.16818896484375,9.572493453601002,1.6049366578206419,0.9906535438597202
1761476144218225000,6.178224853515625,9.139412417703866,1.6761767244309187,0.9604752632170915
1761476144228261000,6.18826123046875,8.857333844178914,1.6880970254577696,0.8744300608586519
1761476144238298000,6.198298095703125,8.380282149130105,1.5959110553219913,0.6225245803445577
1761476144248334000,6.208333984375,7.614729738554358,1.639022321165353,0.20768406147174537
1761476144258370000,6.2183701171875,6.811255885863304,1.7038772167831657,-0.20810462497137486
1761476144268407000,6.228406982421875,5.733629576471448,1.616493093971163,-0.14262290269210934
1761476144278443000,6.238443115234375,4.531444574996828,1.211236469066888,0.048956192479282616
1761476144288479000,6.24847900390625,4.33787430600822,0.5892952415682375,-0.09459507710412145
1761476144298515500,6.258515380859375,3.7436651350438592,-0.24321926603764293,0.2300494764063507
1761476144308552400,6.268552490234375,2.1736936998814342,-0.5090905088663101,0.5308951481129974
1761476144318588400,6.27858837890625,0.571361379340291,-1.5155220520943402,1.2649646982535718
1761476144328624400,6.288624267578125,-1.7051853767722844,-2.939189119572937,1.876155837548524
1761476144338660600,6.29866064453125,-4.890153383737802,-3.294366539317369,1.699803391472995
1761476144348697600,6.308697509765625,-7.628141008791327,-3.0110289056420325,0.6242476047448814
1761476144358733600,6.318733642578125,-10.35279802762866,-2.818833432137966,-0.682585154357925
1761476144368769500,6.32876953125,-13.025628413116932,-2.3573842337600888,-1.8889558440193532
1761476144378806500,6.338806640625,-15.729533151304722,-1.4191208023510873,-2.7323683238670227
1761476144388842500,6.348842529296875,-18.108615568262337,-0.6842196967571973,-3.059688014870882
1761476144398878500,6.35887841796875,-18.996883088880775,-0.5990307459019124,-3.054855772408843
1761476144408914700,6.368914794921875,-18.502005814284086,-0.8912517971262335,-2.654450094667077
1761476144418951400,6.378951416015625,-17.20394987055063,-1.4496033266372979,-2.1461621343553063
1761476144428987400,6.3889873046875,-15.954993765550851,-1.9423057414129374,-1.4870220799274743
1761476144439023600,6.399023681640625,-15.021228230082988,-2.3622646992780267,-0.832235033077374
1761476144449059600,6.4090595703125,-14.152104970395564,-2.6842311926856635,-0.34067375116087495
1761476144459096600,6.4190966796875,-13.42806238181591,-2.723072672255337,-0.24000936408042906
1761476144469132500,6.429132568359375,-12.444839280217884,-2.564271518830955,-0.4656487689595669
1761476144479168800,6.439168701171875,-11.102560748398304,-2.312406005001068,-0.7145285449769347
1761476144489205500,6.44920556640625,-9.381347781410813,-2.0367596564806996,-0.7611179352596402
1761476144499241500,6.459241455078125,-7.403501647800207,-1.8330562621429562,-0.7622996193248778
1761476144509277700,6.469277587890625,-5.41513704278469,-1.5927011533647775,-0.724655459780991
1761476144519313700,6.479313720703125,-3.41622532479167,-1.355614252602309,-0.42895716090016067
1761476144529350400,6.489350341796875,-1.3898498458117245,-1.178597789660096,-0.11273980560377239
1761476144539386600,6.49938671875,0.4946709383696317,-0.9746100254230201,0.2365565932780504
1761476144549422600,6.509422607421875,1.9936200413256882,-0.8044657863378525,0.47525450943373143
1761476144559458600,6.51945849609375,3.2841742311269044,-0.6293836524590849,0.5592740511834621
1761476144569495600,6.52949560546875,4.462645764058828,-0.2725616803780198,0.545080179201439
1761476144579531800,6.53953173828125,5.267735235252976,0.09546996024250984,0.513464559232071
1761476144589567700,6.549567626953125,5.398758154913783,0.47543826850280163,0.45233679437860846
1761476144599604500,6.5596044921875,5.555132957974076,0.8211920263417065,0.3564706744253635
1761476144609640700,6.569640625,5.98251081379354,1.132259378463775,0.43636159193776547
1761476144619676700,6.5796767578125,6.517022764164209,1.4416099897958337,0.4677931605771184
1761476144629712600,6.589712646484375,7.254059274351596,1.6030170879349113,0.5655024972442537
1761476144639749600,6.59974951171875,8.26350578148663,1.618321624572575,0.7679333143629133
1761476144649785600,6.60978564453125,9.31534883032441,1.515746216239035,0.9215330997519194
1761476144659821600,6.619821533203125,10.038317067670821,1.4745748324170709,0.9309337461080401
1761476144669858800,6.62985888671875,10.47184058663845,1.588605554614216,0.9464665385436266
1761476144679894800,6.639894775390625,10.717531503486633,1.699406501109898,0.9884064955852925
1761476144689930800,6.6499306640625,10.835137307691573,1.6620375783108174,0.9928824719555676
1761476144699966700,6.659966796875,10.816148529583215,1.5777923380464314,0.9305981574781238
1761476144710003700,6.670003662109375,10.677689322441816,1.5181114840656518,0.8159279683336615
1761476144720039700,6.680039794921875,10.430234318530559,1.615655035711825,0.59825775223542
1761476144730075600,6.69007568359375,10.176733020192383,1.7757438908591865,0.4938044577334076
1761476144740111600,6.700111572265625,9.946976170057058,1.8139201845183968,0.4731041995320469
1761476144750148600,6.710148681640625,9.64525240034163,1.7879110062539576,0.3615676322381943
1761476144760184600,6.7201845703125,9.3490716517061,1.7632900674775243,0.18447996722329407
1761476144770220500,6.730220458984375,8.93156929321289,1.820522067001462,-0.11104995282068848
1761476144780257800,6.7402578125,8.282704402953385,1.9398241537302732,-0.2680793107995763
1761476144790293800,6.750293701171875,7.757254879960417,1.8351634635552763,-0.3185866782436147
1761476144800329700,6.760329833984375,7.019241633695364,1.651681165599823,-0.42399731000307944
1761476144810365700,6.77036572265625,6.013476445421576,1.6367358176633715,-0.5379242795648053
1761476144820402700,6.780402587890625,5.1048447666883465,1.5164832983419299,-0.49592342264875766
1761476144830438700,6.790438720703125,3.9474031623035666,1.0212629093959926,-0.28818496410865335
1761476144840474600,6.800474609375,2.691729731747508,0.27130232796669007,-0.13456439165994524
1761476144850510600,6.810510498046875,1.3492302506536245,-0.5393737111881375,0.10962039494160562
1761476144860547600,6.820547607421875,-0.19059563709199429,-1.5164523186817764,0.8202897437397391
1761476144870583600,6.83058349609375,-1.8466133705914018,-2.5719188187137245,1.588141882625222
1761476144880619500,6.84061962890625,-4.400553172761201,-3.0832547684192657,1.9270991121917962
1761476144890656800,6.85065673828125,-7.409414086714387,-2.7371076273486015,1.2412019837416708
1761476144900692700,6.860692626953125,-10.401247878021001,-1.7813412724748252,-0.1829741292376071
1761476144910728700,6.870728759765625,-12.91598613513708,-1.0752777004390954,-1.8507048776887356
1761476144920764700,6.8807646484375,-14.60044027404785,-0.6425868329033255,-3.162348763400316
1761476144930801700,6.8908017578125,-15.948831735789774,-0.1927344026863575,-3.5311809067487716
1761476144940837600,6.900837646484375,-16.544295875251294,-0.2607414787247777,-3.3597049806684254
1761476144950873600,6.91087353515625,-16.366858410418033,-0.8432593351125717,-2.5452941388994454
1761476144960909600,6.92090966796875,-15.464977374988793,-1.7727154829487204,-1.2233594530589877
1761476144970946600,6.930946533203125,-14.42248141568899,-2.7317402550965544,-0.22635018349699676
1761476144980982500,6.940982421875,-13.481832550448178,-3.0666318426594135,0.21240789338955654
1761476144991018500,6.9510185546875,-12.357115404057502,-3.203571000626683,0.3950160571252927
1761476145001055700,6.9610556640625,-11.430026277613639,-3.1417560572266576,0.4673984256384894
1761476145011091700,6.971091796875,-10.723629235839843,-2.9343372956275937,0.4609160413492471
1761476145021127700,6.981127685546875,-10.27797104244232,-2.6284040915235876,0.38719745579622683
1761476145031163600,6.99116357421875,-9.55905178822577,-2.22859754871875,0.1375994485069066
1761476145041200600,7.00120068359375,-8.220036642116307,-1.8278380891032515,-0.11337631340902297
1761476145051236600,7.011236572265625,-6.536700109058618,-1.4509575177252292,-0.2392346899135038
1761476145061272600,7.0212724609375,-4.537738122183084,-1.015887646098435,-0.28334512286204844
1761476145071309600,7.0313095703125,-2.577652686190605,-0.523916468206793,-0.2647156795853749
1761476145081345500,7.041345458984375,-0.9994424149930476,-0.19477906025648115,-0.20543620947971938
1761476145091381500,7.051381591796875,0.5520984604656696,-0.023799831651896235,-0.0673542746854946
1761476145101417500,7.06141748046875,2.0702222194910047,0.22765666298568246,-0.029817082647420463
1761476145111454500,7.071454345703125,3.6128584884822366,0.6876989171750844,-0.06951894190609455
1761476145121490700,7.08149072265625,4.943690912657976,1.0998448632016777,-0.08285100942701101
1761476145131526700,7.091526611328125,5.941635198047757,1.3659578058317303,-0.04513400384262204
1761476145141562600,7.101562744140625,6.760919783332944,1.6338269444793463,0.10470942468754947
1761476145151599600,7.111599609375,7.455857857981324,1.9004922602951526,0.2815642673272639
1761476145161635600,7.121635498046875,8.025833920443057,2.2258359750509262,0.4316306909583509
1761476145171671600,7.131671630859375,8.463315237125753,2.4453128387123346,0.5246056925799697
1761476145181708500,7.14170849609375,8.939791762635112,2.4002374331891536,0.783575704652816
1761476145191744500,7.15174462890625,9.625411389318108,2.3014812908828257,1.1011559458002447
1761476145201780500,7.161780517578125,10.019621719551086,2.3997452657580376,1.2734586780935526
1761476145211816400,7.17181640625,10.267405224764346,2.4996184293955563,1.3634407084442675
1761476145221853400,7.181853515625,10.566886183989048,2.506823538468778,1.3651103952221573
1761476145231889400,7.191889404296875,10.720504381817578,2.4897315338924524,1.2509294508993625
1761476145241925600,7.201925537109375,10.783642098253965,2.516659288306534,1.0304822809010743
1761476145251961600,7.211961669921875,10.759698912608624,2.4839208017870784,0.7654581564210354
1761476145261998600,7.22199853515625,10.693574289315938,2.4747499455988407,0.5593116067148745
1761476145272034600,7.23203466796875,10.456215147483348,2.478305299992859,0.41143991664908824
1761476145282070500,7.242070556640625,9.987019426631926,2.3864088143229485,0.41279893004260954
1761476145292107500,7.252107421875,9.417761741572617,2.2378683581501244,0.4731382479321211
1761476145302146600,7.262146484375,8.765796547210217,2.160021732881665,0.45248000224158164
1761476145312182800,7.272182861328125,8.058644887676834,2.137380277484655,0.3453741474041715
1761476145322218800,7.28221875,7.438570038571953,2.0538325179651378,0.15589129385966807
1761476145332255500,7.29225537109375,7.126265253609419,1.9383245628222823,-0.06098875824157148
1761476145342291700,7.302291748046875,6.736357589006423,1.708292987398803,-0.2959315413811244
1761476145352327700,7.31232763671875,6.202628313446045,1.2765905463784932,-0.4482921951629221
1761476145362364400,7.322364501953125,5.72198765399456,0.8526558167502284,-0.4060411994107067
1761476145372400600,7.332400634765625,5.160679466634988,0.22148206600397824,-0.17947123568318782
1761476145382436600,7.3424365234375,4.239565322947502,-0.7862889091342687,0.1142240710784681
1761476145392472600,7.35247265625,2.9414696317255493,-2.043334212565422,0.7638557627256959
1761476145402509600,7.362509521484375,1.1137544383496045,-3.439289681775868,1.5602398763515055
1761476145412545800,7.3725458984375,-1.3519102835178374,-4.177095130509138,1.7600975550465285
1761476145422581800,7.382581787109375,-4.583474621963501,-3.4633974103331564,1.1424087242953478
1761476145432617700,7.39261767578125,-7.844271484634279,-2.371175881616771,-0.20244743945989757
1761476145442654700,7.40265478515625,-10.647921960687636,-1.4985986820831894,-1.6548653485938907
1761476145452690700,7.412690673828125,-12.97184070882797,-0.5194729328013956,-2.834336706218123
1761476145462726700,7.4227265625,-14.387101474750041,0.4468878813229501,-3.6507711627691983
1761476145472763600,7.432763671875,-15.385158572864531,1.1014116741269826,-3.582086918121576
1761476145482799600,7.442799560546875,-16.31905854836702,0.8711505277313292,-3.03181888795346
1761476145492835600,7.452835693359375,-16.578106959438323,0.20863442099913954,-2.4311422745406626
1761476145502871600,7.46287158203125,-15.991298420119284,-0.4720039101399481,-1.8362603188812732
1761476145512908800,7.47290869140625,-14.809049122214317,-1.2644251845493912,-1.4311062775686383
1761476145522944800,7.48294482421875,-12.833690129244326,-2.3885415885679424,-0.984756887036562
1761476145532980700,7.492980712890625,-12.430173626005649,-2.619266553083062,-0.4343595314003527
1761476145543017700,7.503017822265625,-12.310185310578346,-2.1893673620924354,0.09223660434447228
1761476145553053700,7.5130537109375,-11.073147606909274,-2.256634433418512,0.7460449423555284
1761476145563089700,7.523089599609375,-7.2174354708313935,-3.1799533936738964,1.177096079860255
1761476145573125600,7.533125732421875,-6.725991677814721,-3.1357822435140608,1.920859341019392
1761476145583162600,7.54316259765625,-9.662490535390376,-1.6636455980293452,1.4735592256337404
1761476145593198600,7.553198486328125,-8.955002191248536,-0.7015049588833003,0.7579199429359287
1761476145603234600,7.563234619140625,-5.923238540613651,-0.4043594568688422,0.5462253306485713
1761476145613270500,7.5732705078125,-4.2262107513338325,0.6423737746745347,0.6377781174473464
1761476145623307800,7.583307861328125,-2.5565064377874136,1.8168959854587912,0.8666185833901167
1761476145633343700,7.59334375,0.8260404892861842,2.1256296339362857,1.0995661923907696
1761476145643379700,7.603379638671875,3.511939030662179,2.4977485438704488,0.7084953292272984
1761476145653416700,7.613416748046875,5.12859856724143,2.974033346199989,-0.08822364237606525
1761476145663452700,7.62345263671875,4.885497082364559,3.175573571154475,-0.7091276357814669
1761476145673488600,7.633488525390625,2.21932030954659,1.6453727131053804,-1.2024798927679656
1761476145683524600,7.643524658203125,5.087758607330918,0.6028565878003835,-0.33630320792645213
1761476145693561600,7.6535615234375,8.661605520373582,0.5901370992198586,0.5223030416607857
1761476145703597600,7.66359765625,7.552219214105605,0.8360682545647025,1.2559320814922452
1761476145713633500,7.673633544921875,5.894269051238894,1.438180745999515,1.7397276978433132
1761476145723670800,7.6836708984375,4.977582076343894,1.8962901324301957,1.9746081746026873
1761476145733706800,7.693706787109375,5.372639378795028,1.9513234528660772,2.06739181837067
1761476145743742700,7.70374267578125,6.719812112396955,1.6964236859068273,1.9140417699590324
1761476145753778700,7.71377880859375,8.011202168500423,1.4096359117776154,1.8463365994766354
1761476145763815700,7.723815673828125,8.828444434303044,1.5790303554087877,1.8098244396373628
1761476145773851600,7.7338515625,9.140083448833227,2.4498259322226046,1.3824455609045923
1761476145783887600,7.7438876953125,8.573604580837488,3.527923366257548,1.0355331345498562
1761476145793924600,7.753924560546875,7.642171287709474,4.528785584920644,1.1292274634219706
1761476145803960600,7.763960693359375,7.642023988193273,4.498886705741286,1.5537582592472434
1761476145813996500,7.77399658203125,7.7210139382779595,3.5511750625073906,1.9187562312602995
1761476145824032500,7.784032470703125,7.633265512198209,2.701561682192981,1.8496593141585587
1761476145834069500,7.794069580078125,7.299411158728599,2.430380642518401,0.979721230956912
1761476145844105700,7.804105712890625,7.315091542941332,2.5570430288821457,-0.2759556336652487
1761476145854141700,7.8141416015625,5.6339019587844605,2.7095865832164883,-0.975846216154471
1761476145864178700,7.8241787109375,5.588081872373819,3.1902973852947354,-1.2747703452140091
1761476145874214700,7.834214599609375,6.322099327000975,3.697412210173905,-0.9737102270390838
1761476145884250600,7.844250732421875,6.1652118982434265,3.9822684317186474,-0.23173516447097062
1761476145894286600,7.85428662109375,6.464383645388484,2.972332679761946,0.018999103139550423
1761476145904323600,7.864323486328125,5.859872276118398,1.299288115876913,-0.10921585099501535
1761476145914359600,7.874359619140625,4.562085796976089,0.2513032037720084,-0.23341179244630036
1761476145924395500,7.8843955078125,2.9544857651650904,-0.856446148943901,-0.36033955174796284
1761476145934431500,7.894431396484375,1.213303776860237,-2.3837018934518097,0.06789034975699615
1761476145944468500,7.904468505859375,0.13381050455272198,-3.610125848647952,1.281237933792919
1761476145954504400,7.91450439453125,-0.750289959514141,-4.769140401437879,2.2894551913939414
1761476145964540700,7.924540771484375,-2.293487369519472,-4.587153602737188,1.6119167259663343
1761476145974577700,7.93457763671875,-5.510633306512236,-4.099328584739566,-0.7331751585841179
1761476145984613600,7.944613525390625,-8.73598768440187,-3.356600292651355,-2.6088638170123097
1761476145994649600,7.954649658203125,-9.726926474943756,-2.8196584847852586,-3.3660645788282153
1761476146004685600,7.964685546875,-10.335646986341477,-3.257081349278986,-3.1371234289899466
1761476146014722600,7.97472265625,-11.026572902739048,-2.403342413467169,-2.610857621178031
1761476146024758500,7.984758544921875,-11.710395709133147,-1.748276915001869,-2.276550117113441
1761476146034794500,7.99479443359375,-12.600381724107265,-2.159480465611815,-1.3234766545854508
1761476146044828700,8.00482861328125,-13.034487426877021,-3.051542702338099,-0.004389990003698039
1761476146054864600,8.01486474609375,-12.471445547592639,-3.772473880898952,1.0227618427168577
1761476146064900600,8.024900634765626,-11.49463114399314,-4.223538024993241,1.5680232237040996
1761476146074936600,8.0349365234375,-10.026673391628265,-4.777371054166555,1.6072870203390717
1761476146084973600,8.0449736328125,-8.641592659914494,-5.403950462859869,1.2178501881182193
1761476146095009500,8.055009521484376,-7.320178052425384,-6.511566836845875,-0.12399901237338781
1761476146105045500,8.06504541015625,-7.326879595890641,-7.007516124588251,-1.1354375701084731
1761476146115082500,8.07508251953125,-5.6783776448488235,-2.9324183102637527,-1.286818802665174
1761476146125118500,8.085118408203124,-4.025957643580436,0.4486640972152352,-1.4568357621088623
1761476146135154400,8.095154541015624,-3.385301194217801,2.7382082820668816,-0.7288667938657104
1761476146145190700,8.105190673828124,-3.2070787164866923,2.8439938846185804,0.6518750318609178
1761476146155227600,8.1152275390625,-3.7387797010898587,-0.21230331877022982,1.443784118964523
1761476146165263600,8.125263671875,-3.340061538043618,-1.8805957196921108,1.6776025194503366
1761476146175299600,8.135299560546875,-1.82308051931262,-1.09345282407701,1.3888630267314612
1761476146185336600,8.145336669921875,0.0901905585348606,0.3853115689843893,0.7539356225401163
1761476146195372500,8.15537255859375,1.9471645796209573,1.0757871112659574,0.2955544334307313
1761476146205408500,8.165408447265625,2.624307469859719,0.035410920599102974,-0.2690788066983223
1761476146215444500,8.175444580078125,3.9914609152168032,0.14215923070311545,-0.40953072202689944
1761476146225481500,8.1854814453125,4.929236270847916,1.5000556028932333,-0.5916772413339465
1761476146235517400,8.195517333984375,5.293198177811503,2.7284353683322666,-0.39623745214641093
1761476146245553400,8.205553466796875,5.915153433835506,3.475374848374724,0.2440492140557617
1761476146255590700,8.215590576171875,6.069926646918058,3.4110853315547107,0.8639062556914985
1761476146265626600,8.225626708984375,5.28143584382534,2.5567083901003,1.1295960775386542
1761476146275662600,8.23566259765625,4.919656541597843,1.9501351198643444,1.4200607135497032
1761476146285698600,8.245698486328125,5.500336368903517,2.0823031179070473,1.6518569605581461
1761476146295735600,8.255735595703126,6.072400343555212,2.645447580783069,1.475798236732185
1761476146305767400,8.265767333984375,6.300329393741488,3.193018919213116,1.0894573977652937
1761476146315803400,8.275803466796875,6.73748279364407,3.3339041844576593,0.7741739623181522
1761476146325840100,8.285840087890625,6.833430892792344,2.9932798984616995,0.4868164620095864
1761476146335876400,8.29587646484375,5.979465454748272,2.161593804503977,0.3458731464348733
1761476146345912300,8.305912353515625,7.101504321840405,2.165989701375365,0.6412750927176326
1761476146355948300,8.3159482421875,7.833965779197215,2.5827584848970173,0.7276911742150783
1761476146365985300,8.3259853515625,8.135612976545096,3.152630502462387,0.7636376629956066
1761476146376021500,8.336021484375,8.17368697887361,3.66106283968091,0.6929984848879277
1761476146386057500,8.346057373046875,7.926791362410783,3.843095231088996,0.5279976000405848
1761476146396094200,8.35609423828125,7.219322892013191,3.6555499214783307,0.3066509969845414
1761476146406130400,8.36613037109375,6.29637159602642,3.3007217535629865,0.10824870472960174
1761476146416166400,8.37616650390625,5.87282937284708,2.8643273553341624,-0.014688231370225548
1761476146426202400,8.386202392578125,5.807629463183879,2.5346450268521905,-0.046721638360247016
1761476146436239400,8.3962392578125,5.903686283403634,2.1526003507092595,-0.11730652899742126
1761476146446275300,8.406275390625,5.8455286934673785,2.0133967549413443,-0.2545308971142396
1761476146456311300,8.416311279296876,5.28275978590548,1.829072745464742,-0.2191500428598374
1761476146466348300,8.426348388671874,4.020993299171328,1.337882342687249,0.2022107811598107
1761476146476384300,8.43638427734375,2.8338977302789687,0.1307397188052535,0.9935577408686279
1761476146486420200,8.446420166015624,1.9037673364430665,-1.7400003773048518,1.7903741814970968
1761476146496456400,8.45645654296875,0.8709966523438691,-3.829263689613342,2.350606264057755
1761476146506493400,8.466493408203124,-0.41162849802374835,-5.743471171528101,2.540035195457935
1761476146516529400,8.476529296875,-1.8690093267947434,-7.152745264256,1.95419535504058
1761476146526565400,8.4865654296875,-3.8163030857533213,-6.98552933370769,0.5534024922689422
1761476146536602400,8.496602294921875,-6.092786713501811,-5.149680518236756,-0.7018287109449506
1761476146546638300,8.506638427734375,-6.857201644480228,-2.9264433275073767,-1.7915607609331607
1761476146556674300,8.51667431640625,-7.575240608730912,-1.3713120263412595,-2.6232579608067867
1761476146566710300,8.526710205078125,-8.692728972911834,-0.2824038599565625,-3.026408553342521
1761476146576747300,8.536747314453125,-8.619652046263218,-1.0961728966906665,-2.4011887425646186
1761476146586783200,8.546783203125,-10.35854153971672,-2.3935575170338153,-1.462222423583269
1761476146596819200,8.556819091796875,-12.236278362846374,-2.6195772264674306,-0.8668743847820908
1761476146606856400,8.5668564453125,-11.998090368974209,-2.142932650914788,-0.15681376073313877
1761476146616896300,8.576896240234374,-11.306553042680024,-2.2411910728320477,0.35334099809750913
1761476146626933200,8.586933349609374,-10.774686053860187,-3.1688533229887486,0.9774169726025312
1761476146636969200,8.59696923828125,-9.951413860243559,-4.222080811922252,1.3031691950939595
1761476146647005400,8.60700537109375,-8.965781943938136,-4.797904139107465,0.882731148475036
1761476146657042200,8.617042236328125,-8.349415301701425,-4.231800241903961,0.13141084126615896
1761476146667078100,8.627078125,-7.095055876353383,-3.0471880142599344,-0.4928935899661854
1761476146677114400,8.6371142578125,-5.770965327653289,-1.9400553321376441,-0.700086981844157
1761476146687151000,8.647151123046875,-4.758542435055971,-1.0630173538029193,-0.28196258246246725
1761476146697187000,8.65718701171875,-3.7766228172719476,-0.4639379464536905,0.38927137599345296
1761476146707223300,8.667223388671875,-2.7036832043915986,0.046991468277573584,1.0839284782759844
1761476146717259300,8.67725927734375,-1.4564730662763117,0.2781272055506706,1.5481028638340533
1761476146727296300,8.687296142578125,-0.02114215674996376,0.13518325421065092,1.3952780083402991
1761476146737332200,8.697332275390625,1.5963842257916927,0.1520212840259075,0.773349786453694
1761476146747368400,8.707368408203125,3.0275036551028487,0.4344961633920669,0.14001907686926424
1761476146757405200,8.7174052734375,4.342112089708447,0.8531281104370951,-0.10027867569848894
1761476146767441200,8.727441162109375,4.935084412354231,1.4092863676875829,-0.11345032849330454
1761476146777477400,8.737477294921876,4.715567216682434,1.8360466761305927,-0.14865169799495487
1761476146787513300,8.747513427734376,4.541628699880838,2.1642282446607948,0.005777706618607044
1761476146797550000,8.757550048828126,4.814032267087698,2.5003885369852186,0.200734826855734
1761476146807586300,8.76758642578125,5.092144275069236,2.835187477828562,0.3043266091575846
1761476146817622300,8.777622314453126,5.0171822653263805,3.065831339931488,0.44213644901216026
1761476146827659300,8.7876591796875,5.1799616747319694,3.102314273676276,0.6935773076891899
1761476146837695500,8.797695556640624,5.366884176269173,2.8837434189438818,0.8399036680091172
1761476146847731500,8.8077314453125,5.790661377248168,2.6460031688392163,0.8067342427264899
1761476146857767400,8.817767333984374,6.468222785159945,2.5887089177340266,0.7056219657480717
1761476146867804400,8.827804443359375,7.019911495780945,2.581433373773098,0.6483141245089471
1761476146877840400,8.83784033203125,7.342757548502087,2.287838842238486,0.509213185397908
1761476146887876400,8.84787646484375,8.087017580202222,2.143443523046374,0.6603381781712174
1761476146897913300,8.857913330078125,8.47649094504118,2.221590300305188,0.6522370701063424
1761476146907949300,8.86794921875,8.51830238033235,2.326326978325844,0.5918855868550017
1761476146917985300,8.8779853515625,8.422699733620881,2.2947376618415114,0.4557027271477505
1761476146928021200,8.888021240234375,8.18872029735446,2.193508699680865,0.19859861854463814
1761476146938058500,8.89805859375,7.932306910961866,2.1586086512133478,-0.009598397417925298
1761476146948094500,8.908094482421875,7.620332965388894,2.3012930748343465,-0.14596925397794694
1761476146958130400,8.91813037109375,7.378070853945612,2.511113052356243,-0.28347017401382324
1761476146968167400,8.92816748046875,7.0980632414758205,2.588583245527744,-0.3948506739631295
1761476146978203400,8.938203369140625,6.750996939733624,2.4779694921672344,-0.4481414615806192
1761476146988239400,8.9482392578125,6.214055131867528,2.2873908062100408,-0.41091516212262214
1761476146998275300,8.958275390625,5.682831701648235,1.8154057469010352,-0.3724593574022874
1761476147008312300,8.968312255859376,5.404913754934072,1.0635659275963902,-0.19320766448760404
1761476147018348300,8.978348388671876,5.1559524381130935,0.07543927186578511,0.22589252112368122
1761476147028384300,8.98838427734375,4.718548862841725,-1.1961743628829717,0.7246529755629598
1761476147038421200,8.998421142578126,3.4890561677247285,-2.6124159565359353,1.3235191785529254
1761476147048457500,9.00845751953125,1.3869558779358864,-4.053878500685095,1.8534350333049892
1761476147058493400,9.018493408203126,-1.1632096663922071,-5.329485881245136,1.984082982173562
1761476147068529400,9.028529296875,-3.298494432902336,-5.952263559567928,1.455841344244033
1761476147078566400,9.03856640625,-5.397729396387934,-5.5631976064860815,0.2661537312981672
1761476147088602400,9.048602294921874,-8.097471169677377,-4.20714627764076,-1.4766279655545949
1761476147098638300,9.058638427734374,-10.13173886321187,-2.2234572632208467,-2.6836343958362936
1761476147108675300,9.06867529296875,-11.569715318810939,-0.2744789121761918,-3.1676299186736343
1761476147118711300,9.078711181640625,-13.115565289151668,0.3313870865732431,-2.894295500357449
1761476147128747300,9.088747314453125,-14.441770638048649,-0.5711065277963876,-1.8262284619495273
1761476147138784300,9.0987841796875,-15.422048918366432,-1.6305129976257682,-0.6502559792917222
1761476147148820200,9.1088203125,-15.984401061820982,-2.059615485280752,0.3145725837640464
1761476147158856200,9.118856201171875,-15.596086803889273,-2.486713355115056,1.0400034118317067
1761476147168892400,9.128892333984375,-14.541317053949832,-3.306765125380456,1.2595812516495584
1761476147178929400,9.138929443359375,-13.206903848677873,-3.9532387365892525,1.0581675026189534
1761476147188965400,9.14896533203125,-11.493289081734417,-4.122691340148449,0.47632878760173913
1761476147199001300,9.15900146484375,-9.536636542800068,-3.6767499458953736,-0.35410927905626594
1761476147209038300,9.169038330078125,-7.398304079157113,-2.895688416020572,-1.0658053040210158
1761476147219074300,9.17907421875,-5.429266690424084,-2.0355241233363746,-1.2670558253139257
1761476147229110300,9.1891103515625,-3.66785147690773,-1.0961419170305131,-0.726171709562838
1761476147239146200,9.199146240234375,-2.234125664490461,-0.4602849769040942,0.1964511764534749
1761476147249183200,9.209183349609376,-0.9685919341772794,-0.3628364100649953,0.9898572058502584
1761476147259219200,9.21921923828125,0.2169377005726099,-0.31825930945277214,1.2497153989344834
1761476147269255200,9.229255126953126,1.3610568820476532,-0.21224603562504052,1.1697053120218217
1761476147279292400,9.23929248046875,2.38580909486413,0.09206745832264422,0.944960152568668
1761476147289328400,9.249328369140626,3.1450247036337853,0.6492556431427597,0.715295949152857
1761476147299365400,9.259365478515624,3.5425802526414394,1.139190492901206,0.6429506977796554
1761476147309401300,9.2694013671875,3.8419805478453632,1.4879256046384572,0.5392479293840006
1761476147319438300,9.279438232421874,4.219685148957372,1.8269148367784915,0.5103973171485587
1761476147329474300,9.289474365234375,4.667123796030879,2.113180925121158,0.49324879661202425
1761476147339510300,9.29951025390625,4.750218258824944,2.2934140120223163,0.5010156677538529
1761476147349547300,9.30954736328125,4.868035075432062,2.3748282666444775,0.6775647689126432
1761476147359583200,9.319583251953125,5.272897148060799,2.2832367552705106,0.7430925953559577
1761476147369619200,9.329619140625,5.800736196538805,2.238591850119084,0.7625378119949251
1761476147379655200,9.3396552734375,6.467536556461453,2.208655999930203,0.7603500196270644
1761476147389692400,9.3496923828125,7.095092701232433,2.1687755327016114,0.7093528228394687
1761476147399728400,9.359728271484375,7.652096469396352,2.09176272790879,0.6237620131850242
1761476147409764400,9.369764404296875,8.045177503338456,1.9943688138663767,0.4811532120835036
1761476147419801300,9.37980126953125,8.342053833022714,1.9282137954354286,0.26180450484640894
1761476147429837300,9.38983740234375,8.606186415490507,1.9285119015991687,0.016321458595246075
1761476147439873300,9.399873291015625,8.699591259896755,2.075227480432391,-0.14335154576022177
1761476147449909200,9.4099091796875,8.310844455766677,2.363251810619235,-0.1278466825111769
1761476147459946200,9.4199462890625,7.615643346267938,2.539132401399314,-0.0005026522925123572
1761476147469982200,9.429982177734376,6.9284864270150655,2.4636913759678603,0.07102286192933097
1761476147480018200,9.44001806640625,6.516065317308902,2.4160379366502163,0.01687134756296873
1761476147490055400,9.450055419921876,6.374772932568192,2.5030475270614025,-0.20687484571440143
1761476147500091400,9.46009130859375,6.309698110589385,2.5781723261505363,-0.37568781792949885
1761476147510127400,9.47012744140625,6.0627533942878244,2.366471064926684,-0.253685057407245
1761476147520163300,9.480163330078126,5.610494195190071,1.6535893373087047,0.02122404461344704
1761476147530200300,9.490200439453124,5.181979444295168,0.6063719024449586,0.3534521303217858
1761476147540236300,9.500236328125,4.769796234998107,-0.5952905364602804,0.6853451936557888
1761476147550272300,9.510272216796874,4.4164375551134345,-1.9318615042880176,0.8266160241518169
1761476147560309200,9.520309326171875,3.643423138093948,-3.2021321999952197,0.9194440915834158
1761476147570345200,9.53034521484375,2.2245172936677933,-4.347410488377511,0.95172657796368
1761476147580381200,9.540381103515625,0.12417056954801083,-4.963654673278332,0.8317108630727976
1761476147590417200,9.550417236328125,-2.649796715903282,-4.7372649614885445,0.4921311907589435
1761476147600454400,9.560454345703125,-5.157072382053733,-3.90588223439157,-0.1282550075837411
1761476147610490400,9.570490478515625,-7.192446575525403,-2.57132114508152,-1.0407301186710596
1761476147620526300,9.5805263671875,-9.001745822244882,-1.3265455406367779,-1.7137648429386316
1761476147630563300,9.590563232421875,-9.810624748849868,-0.8576388658598065,-1.8192749895498155
1761476147640599300,9.600599365234375,-10.80662900608778,-1.1301742427527903,-1.1213329107798635
1761476147650635300,9.61063525390625,-11.703300782436132,-1.8165657305911183,-0.24977562887854873
1761476147660671200,9.620671142578125,-12.167695240485667,-2.0076415524154902,0.03358686524340883
1761476147670708200,9.630708251953125,-12.572954787999391,-1.925098586024344,0.24297882661158218
1761476147680744200,9.640744140625,-12.44044718273878,-2.3405980802625415,0.532617149600014
1761476147690780200,9.6507802734375,-11.854940958189964,-3.239801128654182,0.6058260320652276
1761476147700817400,9.6608173828125,-11.277640251928567,-3.658559916949272,0.4408534965295344
1761476147710853400,9.670853271484376,-10.587685810911655,-3.356624258048832,0.2402653846681118
1761476147720889300,9.680889404296876,-9.846868613141774,-2.575239487569034,0.1467696471080184
1761476147730925300,9.69092529296875,-9.216222101140021,-1.4142518811404705,0.31616452913060783
1761476147740962300,9.70096240234375,-8.250590185812115,-0.3569417990684509,0.7498877353888005
1761476147750998300,9.710998291015626,-6.953361340552568,0.09841682734936476,1.0942632636770606
1761476147761034200,9.7210341796875,-5.209660647425055,-0.22193974664360283,1.2730028971500693
1761476147771071200,9.7310712890625,-3.2568343887805935,-0.6487874411091208,1.033404086631909
1761476147781107200,9.741107177734374,-1.3134668633550404,-0.6692413233339786,0.614452333047986
1761476147791143200,9.75114306640625,0.3986830917328596,-0.377479998575896,0.29473120741434394
1761476147801179100,9.76117919921875,1.6585066277056932,0.11714300899878144,0.2392777618702501
1761476147811216100,9.771216064453125,2.4749901840955015,0.5932810963340104,0.3836205836901441
1761476147821252400,9.78125244140625,2.982976531112194,0.8548037885643541,0.7126879586115479
1761476147831288300,9.791288330078125,3.1912668148487806,1.0303700526982544,1.002937052175775
1761476147841325300,9.8013251953125,3.4868414142847057,1.0966825997784733,1.001376086469367
1761476147851361300,9.811361328125,3.913748729982972,1.0933628077059983,0.6937880278304219
1761476147861397200,9.821397216796875,4.253289896917343,1.224294980343431,0.25641057338099926
1761476147871433200,9.83143310546875,4.678569903674721,1.4344642096944153,-0.017394311991147694
1761476147881470200,9.84147021484375,5.231666143006086,1.4598603706270457,-0.053490621038526295
1761476147891506200,9.851506103515625,5.826858479788899,1.305573479756713,0.05430087797548622
1761476147901542100,9.861542236328125,6.678349052152037,1.0515689080715178,0.19092285975236445
1761476147911578000,9.871578125,7.578434436336159,0.8579580148115754,0.33705614518560467
1761476147921615000,9.881614990234375,8.276269401469825,0.7280588384836911,0.3781771505272016
1761476147931651000,9.891651123046875,8.816262413600086,0.7581310284033417,0.3726496558099985
1761476147941687300,9.901687255859375,9.11499284671843,0.9866884396210313,0.3831690039977431
1761476147951724300,9.911724365234376,9.131414404687284,1.2832520500943063,0.3047609819868579
1761476147961760300,9.92176025390625,8.76929549524188,1.5900298883289097,0.2592947687814943
1761476147971796200,9.931796142578126,8.474522275316716,1.9308458975046872,0.06642883040364832
1761476147981832200,9.941832275390626,8.027942875421047,2.131910321640968,-0.35501663969215
1761476147991869200,9.951869140625,7.826016281497478,2.401027999044955,-0.6823021726980805
1761476148001905200,9.9619052734375,7.611920526352525,2.6896231148570773,-1.0308652888692915
1761476148011941000,9.971941162109376,7.168189501625299,2.974828880491853,-1.200932151869312
1761476148021978000,9.98197802734375,6.634111266496777,3.1697277677357194,-1.1884295939750968
1761476148032014000,9.99201416015625,6.143837686303257,3.1770003890872,-1.1164274569511412
1761476148042050000,10.002050048828124,5.88159369406104,3.0904034711301325,-0.9790459620438515
1761476148052086000,10.0120859375,5.594251500919461,2.9119045145452023,-0.8968706599213182
1761476148062123300,10.022123291015625,5.1231069840878245,2.5620634873926638,-0.8160969682250171
1761476148072159200,10.0321591796875,4.765906826344132,1.9973361392393707,-0.6749770905070006
1761476148082195200,10.0421953125,4.417436503022909,1.1383759616479276,-0.4665240539567545
1761476148092231200,10.052231201171875,3.758400931882858,-0.017193711385130882,-0.11582672050213441
1761476148102268200,10.06226806640625,2.9967285776108503,-1.4583309691026807,0.3712130471356213
1761476148112304000,10.07230419921875,2.1824872471898793,-2.9781451654329896,0.7621506393082439
1761476148122340000,10.082340087890625,1.3025620229810475,-4.298635351553559,0.9143982794359325
1761476148132377000,10.092377197265625,-0.17575345726907252,-4.872340663671493,0.5029878811422736
1761476148142413000,10.1024130859375,-2.104760448908806,-4.235089931099116,-0.2800279976706952
1761476148152449000,10.112448974609375,-4.450204215636849,-3.0388641302898525,-1.2083823217447847
1761476148162485200,10.1224853515625,-6.855217777186632,-1.8826292713463306,-1.9308361067630349
1761476148172522200,10.132522216796875,-8.965775514197349,-1.3488500191643833,-2.2486869815453887
1761476148182558200,10.14255810546875,-9.852824891197681,-1.293098321326077,-2.3571558318316934
1761476148192594200,10.15259423828125,-10.526945803266763,-0.882516994267702,-1.926867203132063
1761476148202630400,10.16263037109375,-12.083344055628777,-0.687461747418344,-0.9499002393193542
1761476148212667100,10.172667236328126,-13.370830674552916,-1.3728165856853127,-0.0034004926258698106
1761476148222703000,10.182703125,-13.518478565800189,-1.8379776441931723,0.6793888425346464
1761476148232739300,10.1927392578125,-12.65820496752262,-2.473002809670567,0.9872695274446159
1761476148242775300,10.202775390625,-11.363564969712495,-3.59400619623512,0.9389952528148889
1761476148252812000,10.21281201171875,-9.87847020458579,-4.316232090781629,0.5660042362213135
1761476148262848300,10.22284814453125,-8.389435761922597,-4.224373014512658,0.04298557537076995
1761476148272884200,10.23288427734375,-7.301977209824323,-3.477495786051452,-0.18557207330893724
1761476148282920200,10.242920166015624,-6.349131126311421,-2.4740464735046026,0.18530354029955343
1761476148292957200,10.252957275390624,-5.661357536464929,-1.3749582738891244,0.7507352190636098
1761476148302993200,10.2629931640625,-5.306746226170659,-0.8027247878894209,1.2350582202896474
1761476148313029000,10.273029052734374,-4.928297528693079,-0.9327817851275205,1.465426772582531
1761476148323065000,10.283065185546874,-4.209945845231414,-1.1519497289702296,1.1552077078528702
1761476148333102000,10.29310205078125,-2.983011602425575,-0.9456780915796756,0.4755569995116442
1761476148343138300,10.30313818359375,-1.3791659547120332,-0.5488169545769691,-0.128724579590559
1761476148353174300,10.31317431640625,0.3966472019910812,-0.14011720348149537,-0.587845371553488
1761476148363210200,10.323210205078125,1.6557979532688856,0.1772548017427325,-0.7515620983418076
1761476148373247200,10.333247314453125,2.331429269900918,0.3629182431295514,-0.5959518133806064
1761476148383283200,10.343283203125,2.3918670797288417,0.5813625488728285,-0.2786658424720168
1761476148393319200,10.353319091796875,2.307231232711673,0.9530863220095633,-0.1058610972070135
1761476148403355100,10.363355224609375,2.2640549388080835,1.457101427307725,-0.014663297858368604
1761476148413392100,10.37339208984375,2.305508646702766,1.8146198572203516,0.11570767896603792
1761476148423428000,10.383427978515625,2.2614234212607145,2.0221176754049957,0.2685942380517721
1761476148433464000,10.393464111328125,2.646187293234467,2.041084972333908,0.20661294337520375
1761476148443500000,10.4035,3.6073142983585593,1.9138743044376372,-0.05994233619486913
1761476148453537000,10.413537109375,4.594888580903411,2.019109871891141,-0.25521191991465164
1761476148463573200,10.4235732421875,5.561374482712149,2.078021787326038,-0.35832452213112265
