time,seconds_elapsed,z,y,x
1761475871422203100,0.072203125,0.10302782827615738,-0.2414373510569334,-1.094835291411355
1761475871432180000,0.082179931640625,0.16564941188395021,-0.32414296066388487,-1.1634320769712327
1761475871442157000,0.092156982421875,0.18174480663836,-0.34253713387995954,-0.947985345608741
1761475871452134000,0.1021337890625,-0.029988311028480527,-0.3274053234606981,-0.6345137088239192
1761475871462111000,0.112111083984375,-0.2936392474591732,-0.1099631804972887,-0.5280780083330348
1761475871472087800,0.122087890625,-0.5507172352403402,0.15388064815700053,-0.49615014407671987
1761475871482065000,0.13206494140625,-0.7859072163403034,0.2945046321168542,-0.3995276162656024
1761475871492042000,0.1420419921875,-0.8446493281662464,0.30237112770825625,-0.32368666826374826
1761475871502018800,0.152018798828125,-0.747414111816883,0.28679171965196726,-0.26228721032943575
1761475871511996000,0.161995849609375,-0.556396449920535,0.20445143622606993,-0.2834859561048448
1761475871521973000,0.171972900390625,-0.4000239849478006,0.147136872985214,-0.4053909918736666
1761475871531950000,0.1819501953125,-0.24128946701884268,0.130153151088953,-0.4557862041801214
1761475871541928000,0.191927978515625,-0.0860036282390356,0.08759031290858983,-0.4110983001371845
1761475871551905000,0.201905029296875,0.010196399843692779,0.006783961051702499,-0.29521201320122925
1761475871561882000,0.211882080078125,0.04530161549448967,-0.0470516740322113,-0.18701734021380542
1761475871571859000,0.22185888671875,0.04703063124418259,-0.08778729678541422,-0.07114442421607672
1761475871581836000,0.2318359375,0.07401099262833595,-0.12717296623438595,0.06669635876603425
1761475871591812900,0.241812744140625,0.08304887008666992,-0.19475012642294168,0.20088519511185585
1761475871601790000,0.2517900390625,0.11246084253191947,-0.30573914283663034,0.3325129487980157
1761475871611767000,0.26176708984375,0.10483867709040641,-0.400549177865684,0.3904775369128212
1761475871621743900,0.271743896484375,0.10898118372261524,-0.551640779826045,0.2800727501278743
1761475871631721000,0.281720947265625,0.17066285613179205,-0.6756047208860516,0.11688987448792904
1761475871641697800,0.29169775390625,0.23406419194042682,-0.7339128252089023,-0.07649575864877552
1761475871651675000,0.3016748046875,0.22344635181427,-0.7222334933310747,-0.2532683663651347
1761475871661652000,0.31165185546875,0.1841594665646553,-0.6129463123992085,-0.40920536253005263
1761475871671629000,0.321629150390625,0.21404957791566848,-0.42250615812987086,-0.49113914751429105
1761475871681606100,0.331606201171875,0.18583470630049703,-0.2623781400159001,-0.4131433230334893
1761475871691583000,0.3415830078125,0.1300625501960516,-0.10933569624871015,-0.3542717396089807
1761475871701560000,0.35156005859375,0.1426321089118719,0.06922346609085799,-0.2583355500942096
1761475871711537000,0.361536865234375,0.15262158800661563,0.14029285230934618,-0.07691431285440921
1761475871721514000,0.371513916015625,0.1233873102158308,0.10230535922050475,0.0603880524020642
1761475871731490800,0.38149072265625,0.13269523678719997,0.005983166062831878,0.10007544474396854
1761475871741468000,0.391468017578125,0.19454349793493747,-0.07675415385663509,0.047916072309203445
1761475871751445000,0.401445068359375,0.2779319752395153,-0.19032821832746266,-0.045480186931788916
1761475871761421800,0.411421875,0.3680348554909229,-0.2592179224193096,-0.10817669893931597
1761475871771399000,0.42139892578125,0.40088907734453677,-0.30747634189277884,-0.1637921301120892
1761475871781376000,0.4313759765625,0.2705295900285244,-0.3752268128216266,-0.20694416635725646
1761475871791353000,0.44135302734375,0.18846563932597635,-0.37742023121267554,-0.2416358327711001
1761475871801330000,0.451329833984375,0.010862170276045798,-0.4570101930171251,-0.2131680458407849
1761475871811307000,0.46130712890625,-0.08017360691130161,-0.5620692348599433,-0.26570260826349257
1761475871821284000,0.4712841796875,-0.038840310525894164,-0.5876280390083789,-0.35409736942276354
1761475871831261000,0.481260986328125,0.043866614255309105,-0.6131491414949297,-0.40979426833391186
1761475871841238000,0.491238037109375,0.08110708836913108,-0.6523743596851825,-0.3907198212360963
1761475871851214800,0.50121484375,0.10336685097217559,-0.617738515111804,-0.31426928996853526
1761475871861192000,0.51119189453125,0.11159341204762459,-0.5266390250384807,-0.3497714690476656
1761475871871168800,0.521168701171875,0.0632294863730669,-0.4089993185639381,-0.4663210056653246
1761475871881145900,0.531145751953125,0.059256491088867186,-0.3036848406553268,-0.39859095646999776
1761475871891123000,0.541123046875,-0.05064823721945286,-0.3085502547346055,-0.3840864476362243
1761475871901100000,0.55110009765625,-0.03844049755334854,-0.2558073833234608,-0.42819779390022156
1761475871911077000,0.5610771484375,0.05875847843885421,-0.1498440861172974,-0.4599372594449669
1761475871921054000,0.571053955078125,0.07133855854868888,-0.10983882346525788,-0.21457685319278388
1761475871931031000,0.581031005859375,0.18649638507962227,-0.15791998667567966,0.04930953596159816
1761475871941008000,0.5910078125,0.36981647821068764,-0.1808328063599765,0.0508098940545693
1761475871950985000,0.60098486328125,0.3324555925875902,-0.25972119576632974,-0.16085384817048906
1761475871960962000,0.610962158203125,0.3317389687508345,-0.28849603935182094,-0.36333135397508737
1761475871970939000,0.62093896484375,0.19435352832078934,-0.3460618008747697,-0.5408739962158724
1761475871980916000,0.630916015625,0.17287176435291765,-0.44606589741557834,-0.5522789315991103
1761475871990892800,0.640892822265625,0.30479543224573136,-0.35109234238788484,-0.18249111322732642
1761475872000870000,0.650869873046875,0.5473515581995249,-0.17795096731334922,0.15481624850668013
1761475872010847000,0.660846923828125,0.7618915499806403,-0.053676206738501785,0.3671841569457203
1761475872020824000,0.670823974609375,0.7915858464986085,-0.08839636859446763,0.33838885509409006
1761475872030801200,0.68080126953125,0.5092793094366789,-0.3435682304933667,0.15233519054697825
1761475872040778000,0.690778076171875,0.2600970433413982,-0.5342030305519699,-0.0321750987493433
1761475872050755000,0.700755126953125,0.05678922419250011,-0.2269708726786077,0.32190935639292
1761475872060732000,0.71073193359375,-0.07973170836269855,-0.33129151724427935,0.49568037114050234
1761475872070709000,0.720708984375,0.2511749012172222,-0.41833121053278444,0.637707609494403
1761475872080685800,0.730685791015625,0.49735623193085193,-0.16794190673530102,0.5043501459388062
1761475872090663000,0.740662841796875,0.8281155419945716,0.03935936596393585,-0.01757909397352487
1761475872100640000,0.750639892578125,0.9136176504522562,0.05115910935103893,-0.32339553983006625
1761475872110616800,0.760616943359375,0.5844651910632849,-0.04824877486228943,-0.35967677699029443
1761475872120594000,0.770593994140625,0.04547054232060909,-0.25964286983311174,-0.19898047573538497
1761475872130571000,0.780571044921875,-0.27969723134636876,-0.275101427988708,-0.0467289814164862
1761475872140548000,0.790548095703125,-0.3132406045079231,-0.1240232700318098,0.08710508667491376
1761475872150525000,0.80052490234375,-0.13458148892521857,-0.03846358616799116,0.1101144255362451
1761475872160502000,0.810501953125,0.14200316335856913,-0.07371434776932001,0.09061704031862318
1761475872170479000,0.82047900390625,0.34269700061678887,-0.11008563783317804,-0.09879888546951114
1761475872180456000,0.8304560546875,0.502415853407979,-0.1856175564184785,-0.30611177554130553
1761475872190433000,0.84043310546875,0.6140186178058386,-0.2493926939755678,-0.5435483665242791
1761475872200411000,0.850410888671875,0.7478034033954143,-0.2868725298032164,-0.5811673916269093
1761475872210388000,0.860387939453125,0.9292781609207391,-0.2585129890203476,-0.6113184189364314
1761475872220365000,0.870364990234375,1.0650374614536762,-0.20296178219020367,-0.6073083065122366
1761475872230342000,0.880341796875,1.1580372321903705,-0.19838731388151645,-0.5398080840174109
1761475872240319000,0.890319091796875,1.3402800514787434,-0.18340777141451833,-0.46976095351874825
1761475872250295800,0.9002958984375,1.7473977940797805,-0.11912351529151201,-0.5229080583492294
1761475872260273000,0.91027294921875,2.3283418252795935,-0.01640460683405399,-0.44675592550635335
1761475872270249700,0.920249755859375,2.9053187064141035,-0.029090485405921934,-0.03724967576700728
1761475872280227000,0.93022705078125,3.426418802025914,-0.18609803341180084,0.3013900077164173
1761475872290204400,0.940204345703125,3.8134494498878717,-0.41736674941480156,0.4394610923230648
1761475872300181500,0.950181396484375,3.853748142528534,-0.5395455606237054,0.4125769578550011
1761475872310158600,0.96015869140625,3.5329987698256966,-0.4371922706082463,0.18229305163826792
1761475872320135700,0.9701357421875,2.9410534521400926,-0.19867957482635973,-0.11725471661179326
1761475872330112500,0.980112548828125,2.2428309489935634,0.04617094567492604,-0.3219138133723289
1761475872340089600,0.990089599609375,1.612905737003684,0.2372870995096862,-0.42141587867513297
1761475872350066700,1.000066650390625,1.336830787807703,0.37289734696075316,-0.5025969821285456
1761475872360043500,1.01004345703125,1.365533150678873,0.48260114586949343,-0.6095209045277908
1761475872370020600,1.0200205078125,1.3794400954782962,0.4900909171029925,-0.6294857245940715
1761475872379997400,1.02999755859375,1.06387367837131,0.3582029050454497,-0.6323198520414531
1761475872389974500,1.039974609375,0.5953454815179109,-0.07221168812140823,-0.6017212270949035
1761475872399951400,1.049951416015625,0.3739730133682489,-0.5381846475340426,-0.6165927791427821
1761475872409928400,1.059928466796875,0.12808452812135218,-0.9095921943284571,-0.6831839239686727
1761475872419905500,1.069905517578125,-0.6876315510272979,-1.2393522642217576,-0.1896418434984982
1761475872429882600,1.079882568359375,-1.8955869525969027,-1.2651336250796914,0.5097589096471667
1761475872439859700,1.089859619140625,-2.9547815332412717,-1.114409979648888,0.7847774816580116
1761475872449836500,1.09983642578125,-4.019470619648695,-1.5139046800255775,0.8146511533308773
1761475872459813600,1.109813720703125,-5.180263288027048,-1.8719614545986054,0.4411239840339869
1761475872469790500,1.11979052734375,-6.726136639243364,-1.9434473126634955,0.27690833128020165
1761475872479767600,1.129767578125,-9.443399456176161,-2.0793653108894823,0.09304320801962167
1761475872489744600,1.13974462890625,-12.400288190829754,-1.7714719126284122,-0.6309163419190794
1761475872499721500,1.149721435546875,-13.796902708470821,-0.5853627244248986,-1.2228222774423658
1761475872509698600,1.159698486328125,-13.46246850928664,0.33231209246367216,-0.7047929675780237
1761475872519675400,1.16967529296875,-11.936724922907352,0.2383785480082035,0.7237300154991447
1761475872529652500,1.179652587890625,-9.769624629941582,-0.053637189902365205,2.000378137283772
1761475872539629600,1.189629638671875,-7.8434397099852555,-0.5023407423451542,2.7549486967265606
1761475872549606700,1.199606689453125,-6.701213210389017,-1.1228156966835259,3.0522061346828937
1761475872559583700,1.209583740234375,-6.559993306362628,-1.4806556136354803,2.970719399346411
1761475872569560600,1.219560546875,-6.80633830320537,-1.295709088346362,2.572882110787928
1761475872579537700,1.22953759765625,-6.851909967812896,-0.8183914358377457,2.2871068747021255
1761475872589514500,1.239514404296875,-6.124183722284436,-0.5060372587755322,2.1954899366259575
1761475872599491600,1.24949169921875,-4.519467721477151,-0.4470277281850576,2.1849285028621552
1761475872609468400,1.259468505859375,-2.6396388945043086,-0.49145343762785193,1.9745508914574978
1761475872619445500,1.269445556640625,-0.9016472266733646,-0.5469622666209936,1.570313526598364
1761475872629422600,1.279422607421875,0.6604518676787614,-0.4475687031939625,1.0862708766836673
1761475872639399400,1.2893994140625,1.9331272864401339,-0.18885931481868026,0.6655426149465143
1761475872649376500,1.29937646484375,2.9392648151576517,0.32093291257619855,0.37416042569912966
1761475872659353600,1.309353515625,3.7149160104215144,0.9509037172734737,0.22996130493255332
1761475872669330700,1.31933056640625,4.291541593900322,1.5297703576773405,0.31694924976751204
1761475872679307500,1.3293076171875,4.547209714883565,1.9664406502380967,0.426794685636647
1761475872689284600,1.33928466796875,4.697458144018054,2.3065488034054638,0.4394087776139378
1761475872699261700,1.34926171875,5.048599732375145,2.625505155211687,0.2886408729162998
1761475872709238500,1.359238525390625,5.521270435860753,2.675847687482834,0.008539590813685207
1761475872719215600,1.369215576171875,5.870526356601715,2.363046643435955,-0.07725244050128385
1761475872729192400,1.3791923828125,6.12641425781548,1.8072515204094348,0.1443752993173897
1761475872739169500,1.38916943359375,6.543267212489247,1.3804767450496553,0.2563717392079532
1761475872749146400,1.399146484375,6.859462575149536,0.7974073922589421,0.6429856229625642
1761475872759123500,1.40912353515625,7.12432288736999,0.20707301690131424,0.7797260434873402
1761475872769100500,1.4191005859375,7.615777786302566,-0.16693536004126072,0.8647839153088629
1761475872779077600,1.42907763671875,8.543269063806534,0.03719751175493002,0.9587538462519645
1761475872789054700,1.4390546875,9.07276815445125,0.34437808557152744,0.8822435841538011
1761475872799031600,1.449031494140625,9.266622501078247,0.04216141777262091,0.5333605883784592
1761475872809008600,1.459008544921875,9.19444456909597,-0.2684646203227341,-0.05403484745044261
1761475872818985500,1.4689853515625,9.032498687905072,-0.3260308202371001,-0.5792914782198145
1761475872828962600,1.478962646484375,8.794470853030681,-0.1914133832156658,-1.0679911236274986
1761475872838939600,1.488939697265625,8.425207332527638,-0.009015519496053457,-1.4070119930148124
1761475872848916500,1.49891650390625,7.994950121879577,0.16967457574680447,-1.5423429851330817
1761475872858893600,1.5088935546875,7.692980268448591,0.5069572962298989,-1.4890385343164205
1761475872868870400,1.518870361328125,7.412122761151194,0.9971120723493396,-1.4812150010839105
1761475872878847500,1.528847412109375,6.959354443487524,1.68850195299685,-1.6697107432872056
1761475872888824600,1.538824462890625,6.414543801942467,2.18734433183223,-1.7172483011402189
1761475872898801700,1.5488017578125,5.65827827515006,2.6981875295847653,-1.8064359662428497
1761475872908778800,1.55877880859375,4.563989584770798,2.9570138223379847,-1.9419968215942383
1761475872918755600,1.568755615234375,3.1868548436254263,2.621828804786503,-1.7677189898356793
1761475872928732700,1.578732666015625,1.9156155951470135,1.901248923881352,-1.4040332694649695
1761475872938709500,1.58870947265625,0.14961831453740596,1.102004379323125,-1.098929648052901
1761475872948686600,1.5986865234375,-2.0301403844714163,0.6104492348864674,-0.543752803055197
1761475872958663400,1.608663330078125,-4.042989442402124,0.3064364774510264,-0.10936813721358775
1761475872968640500,1.618640625,-6.173944655275345,-0.2797673739731312,0.444881217675656
1761475872978617600,1.62861767578125,-8.642637200531363,-1.1303691808030008,1.0543193758234382
1761475872988594400,1.638594482421875,-11.327905627310276,-1.6988497440099715,1.5895377208977937
1761475872998571500,1.648571533203125,-13.777961861157417,-2.262425876301527,2.426213147575408
1761475873008548600,1.658548583984375,-14.920985064089297,-2.1597598670750857,2.3944641104847193
1761475873018525700,1.668525634765625,-15.159474671256541,-1.3660229800224304,1.8301926894053815
1761475873028502500,1.67850244140625,-14.754092374145984,-1.1741548387765883,2.0319962414711714
1761475873038479600,1.688479736328125,-13.709507333612441,-1.7053300459399818,1.9942261905252932
1761475873048456700,1.698456787109375,-12.625323273140191,-2.310766713361442,1.6482845088988543
1761475873058433500,1.70843359375,-11.471360158520936,-2.8175179656252265,1.3223200318962334
1761475873068410600,1.71841064453125,-10.428017811524867,-3.3757737796768543,1.2671703916043042
1761475873078387500,1.728387451171875,-9.431406820565462,-3.893632701410353,1.4594365922570227
1761475873088364500,1.738364501953125,-8.017516173952817,-4.207189824521541,1.5635146602384744
1761475873098341400,1.74834130859375,-6.197164787343144,-4.121273874565959,1.4023502848140894
1761475873108318500,1.758318359375,-4.567116192358732,-3.852656547899544,1.031526675387472
1761475873118295600,1.768295654296875,-3.1420681919157505,-3.5762989823698996,0.5562625944077968
1761475873128272600,1.778272705078125,-1.8002485097795724,-3.1984017812952397,0.21743030639514327
1761475873138250500,1.78825048828125,-0.549977230527997,-2.610228383363783,0.10848393825758249
1761475873148227600,1.7982275390625,0.8702794439852237,-1.939355951696634,0.25112346329092977
1761475873158204700,1.80820458984375,2.209221524858475,-1.3701403522133826,0.24040482967142016
1761475873168181800,1.818181640625,3.3346880283117293,-0.8326865031719207,-0.09760485337935387
1761475873178158600,1.82815869140625,4.2851270506829024,-0.2603147777453065,-0.7652720592644066
1761475873188135700,1.8381357421875,5.070526317501068,0.3095747754767537,-1.6108172402918337
1761475873198112500,1.848112548828125,5.752635890236497,0.7796464023798704,-2.369492896965891
1761475873208089600,1.858089599609375,6.3664358968555925,1.2285796719253061,-2.7362986490532752
1761475873218066400,1.86806640625,7.027359473699331,1.6209236237645148,-2.8597929267749187
1761475873228043500,1.87804345703125,7.653727869990467,1.977915399454534,-2.6171695808038113
1761475873238020600,1.8880205078125,7.972128049218655,2.205093339012563,-1.9335522338539362
1761475873247997400,1.89799755859375,7.9869100232869386,2.178637878285348,-0.9271562733959406
1761475873257974500,1.907974609375,7.793483546683192,1.9146660393372177,0.0715717371169012
1761475873267951600,1.91795166015625,7.647211035442352,1.7159062388814985,0.5973252571582793
1761475873277928700,1.9279287109375,7.479995689415931,1.604913130814582,0.6081510774793103
1761475873287904800,1.93790478515625,7.260436992689967,1.1477904173336921,0.4140387009706348
1761475873297881900,1.9478818359375,7.0198723328143355,0.5561619105122984,0.11310346955070272
1761475873307858700,1.957858642578125,6.701889502215385,0.20205299678221345,-0.2776853252683766
1761475873317835800,1.967835693359375,6.443746515551209,0.11456234485581517,-0.7785730009946972
1761475873327812600,1.9778125,6.147267076230049,0.12933043652921913,-1.1400823271743952
1761475873337789700,1.987789794921875,5.86419540001452,0.1495773980051279,-1.0132635812051594
1761475873347766800,1.997766845703125,5.604460760244727,0.3204917446799576,-0.6921585999976844
1761475873357743600,2.00774365234375,5.431144759255647,0.646361821397394,-0.5183311423551291
1761475873367721000,2.017720947265625,5.265291933754086,1.0824451078504322,-0.47725551052521914
1761475873377697800,2.02769775390625,5.031069920903444,1.5722192140892146,-0.5560979418979958
1761475873387675000,2.0376748046875,4.342768507790566,2.0171962933547793,-0.595118175568059
1761475873397651700,2.047651611328125,3.334641851082444,2.365595743396878,-0.5669837122453376
1761475873407628800,2.05762890625,2.3242893350183964,2.64110955157876,-0.3423056266790256
1761475873417606000,2.06760595703125,1.62792619600296,2.936192860366404,-0.16971589413788168
1761475873427582700,2.077582763671875,1.2568921586960553,3.051026861770451,-0.09756978206597268
1761475873437559800,2.087559814453125,0.5637678554713725,2.643466928359866,-0.05493252694252878
1761475873447536600,2.09753662109375,-0.8289058155894279,1.825152649411559,-0.03844510066322982
1761475873457513700,2.107513671875,-2.4556138679742814,0.8764265684381127,-0.17301621432490646
1761475873467490600,2.117490478515625,-3.656556760433316,0.06168401049673557,-0.305988222226873
1761475873477467600,2.127467529296875,-4.757008065095544,-0.2904582793354988,-0.4724390501542017
1761475873487445000,2.137445068359375,-6.677180008372664,-0.3389318028643727,-0.5864219511542469
1761475873497421800,2.147421875,-9.545124385160207,-0.41856764963716264,-0.4058447269905358
1761475873507399000,2.15739892578125,-12.06485212112665,-1.2651330405578016,1.015144353450462
1761475873517375700,2.167375732421875,-12.378569695496559,-1.8085867145359515,2.355131340266764
1761475873527352800,2.177352783203125,-10.947702195119858,-1.0244058835968375,2.4074277830846604
1761475873537329700,2.18732958984375,-9.181373490598798,-0.15470833115279672,2.126139483154565
1761475873547306800,2.197306640625,-7.794105477973818,-0.43079350948184725,2.0805144809246063
1761475873557283800,2.207283935546875,-7.056608364537358,-1.4535852358803152,2.1101360044673085
1761475873567260700,2.2172607421875,-6.626252369689941,-2.288048685596883,1.8383581679433583
1761475873577237800,2.22723779296875,-6.05252192313075,-3.0008547176301477,1.4781301868110894
1761475873587214600,2.237214599609375,-5.4648038677513595,-3.827974818846583,1.5553671557486057
1761475873597192000,2.24719189453125,-5.197524219429493,-4.179893529056012,1.7137068291410802
1761475873607168800,2.257168701171875,-5.373236760166287,-4.0652842763185495,1.771173514203727
1761475873617145900,2.267145751953125,-5.8100599052011965,-3.692408118276298,1.3427934956043959
1761475873627123000,2.277123046875,-6.364726754850149,-3.2434695880338547,0.3876131239250302
1761475873637099800,2.287099853515625,-6.513392298707366,-2.980969575203955,-0.45185697497241195
1761475873647076900,2.297076904296875,-5.899856495982408,-2.806645273955166,-0.8807126482594758
1761475873657053700,2.3070537109375,-4.613193468400835,-2.468984513939917,-0.9643375646684318
1761475873667030800,2.31703076171875,-2.913091093981266,-2.0127268928557633,-0.7173565349444746
1761475873677007600,2.327007568359375,-1.1358809299618005,-1.6398890209972858,-0.2648825971174985
1761475873686984700,2.336984619140625,0.2357207269757986,-1.5105769969075917,0.4177889203496277
1761475873696961800,2.3469619140625,0.9878653744459152,-1.5811664906546472,1.0293273387122899
1761475873706938600,2.356938720703125,1.4385527941823004,-1.5315505190923808,0.8901128562241792
1761475873716916000,2.366916015625,1.9665549242675304,-1.1417577130407095,0.03137961925640702
1761475873726892800,2.376892822265625,2.826338108679652,-0.47228374999463557,-0.844612795548141
1761475873736870000,2.386869873046875,4.022815838423371,0.36140666952282186,-1.5207221049554644
1761475873746846700,2.3968466796875,5.309309354656935,1.0771525544002651,-1.7828160212025046
1761475873756823800,2.40682373046875,6.422078873622417,1.5617881287068127,-1.6550440661616623
1761475873766801000,2.41680078125,7.324724463683366,1.9770231267899274,-1.1977396394383162
1761475873776777700,2.42677783203125,7.945368637108802,2.3327578881561757,-0.4800577449969947
1761475873786754800,2.4367548828125,8.41656692995429,2.6254513791978358,0.14283559559471903
1761475873796731600,2.446731689453125,8.652367736428976,2.815622068876028,0.533162654653564
1761475873806708700,2.456708740234375,8.538262633821368,2.7485847146525977,0.7942305888537317
1761475873816685600,2.466685546875,8.083989756813645,2.3998683076158165,0.8115621012743562
1761475873826662700,2.47666259765625,7.564800463259219,2.099756649272144,0.5951623800359666
1761475873836640000,2.486639892578125,7.127211010026931,1.8185308931842445,0.3934561873974278
1761475873846616800,2.496616943359375,6.674312343981861,1.4429820088014005,0.398207400512509
1761475873856594000,2.506593994140625,6.302081205844879,1.2150579270511865,0.49902617443706837
1761475873866570800,2.51657080078125,6.212842248946428,1.2782047035768627,0.467345599472709
1761475873876547800,2.5265478515625,6.367607863244414,1.5206637988969682,0.3548666732948273
1761475873886524700,2.536524658203125,6.520867749154568,1.844457653862238,0.08792670525610446
1761475873896501800,2.546501708984375,6.472703145444393,2.1335209717079997,-0.09706997931767254
1761475873906478800,2.556478759765625,6.073076635381579,2.445449909095466,-0.34682781681120395
1761475873916455700,2.56645556640625,5.422700756037235,2.8651947858184577,-0.4890512718569487
1761475873926432800,2.576432861328125,4.627295643511414,3.166073336881399,-0.4302380675561726
1761475873936409600,2.58640966796875,3.810242762801051,3.23075915954262,-0.3035066345442086
1761475873946386700,2.59638671875,3.1763024699509144,2.976607580602169,-0.09526406240686773
1761475873956363800,2.60636376953125,2.5715689823627472,2.472398706297576,-0.09335746160056442
1761475873966340900,2.6163408203125,1.9026555758088826,1.715925089712441,-0.3308149127084762
1761475873976318000,2.62631787109375,1.136542024219036,0.8737056190416216,-0.7603959045954048
1761475873986294800,2.636294677734375,0.02215221057534218,-0.304932210367918,-1.1455497988000511
1761475873996271900,2.64627197265625,-1.5873147841513155,-2.0798422807514667,-0.6833896026086062
1761475874006248700,2.656248779296875,-3.563381048607826,-3.248663357284665,0.5976815963152796
1761475874016225800,2.666225830078125,-5.719164413267373,-3.9367107956364746,2.6093100994750857
1761475874026202600,2.67620263671875,-7.3268340031832455,-4.372105661433935,4.493400675545632
1761475874036179700,2.6861796875,-7.832137979248166,-5.212975471061468,5.658923587316274
1761475874046156800,2.69615673828125,-7.409555541011691,-5.745099649512768,5.225901588129997
1761475874056133600,2.706133544921875,-6.568036912086606,-4.8301007738351815,3.299316855201125
1761475874066111000,2.716111083984375,-5.768461820399761,-3.8530806185305115,1.1911077271431685
1761475874076087800,2.726087890625,-5.5123038700729605,-3.3596745855301617,-0.04415321264434605
1761475874086065000,2.73606494140625,-7.503282456979155,-2.525449913005531,-0.6938849853988737
1761475874096041700,2.746041748046875,-11.712605201876162,-1.7930854862824082,-0.8680184402506798
1761475874106018800,2.756018798828125,-15.731805772411823,-1.74723062081933,-0.4399364547498524
1761475874115996000,2.765995849609375,-17.354136924886703,-1.9802733607575296,0.24067159084882586
1761475874125972700,2.77597265625,-15.869909590244292,-2.0085165816843507,0.526335183253698
1761475874135949800,2.78594970703125,-12.238667888331413,-2.3191005342036486,0.8626164350766689
1761475874145926700,2.7959267578125,-8.506879069042204,-2.5758003363221884,0.9399847022436558
1761475874155903700,2.80590380859375,-5.195591205540299,-2.7330069140315056,0.7251398822970688
1761475874165880600,2.815880615234375,-2.110314575904608,-2.954646800945699,0.48127482916917647
1761475874175857700,2.825857666015625,0.6211363408565521,-3.118131436011195,0.32752778079658745
1761475874185835000,2.8358349609375,2.6669091787457466,-3.2437276544481515,0.5110785408783703
1761475874195811800,2.845811767578125,4.062969569635391,-3.209307790713012,1.127431008459255
1761475874205789000,2.855788818359375,5.0080543714970345,-2.736295726443827,1.6549273079141973
1761475874215765800,2.865765869140625,5.4807624843835825,-1.758385052040219,1.7940150222174822
1761475874225742800,2.875742919921875,5.498907212883234,-0.4930275550767779,1.3351587629422546
1761475874235719700,2.8857197265625,5.392021540135145,0.7264990418210625,0.5435910000896081
1761475874245696800,2.89569677734375,5.447395636832714,1.6949050980374216,-0.5379269099133089
1761475874255673900,2.905673828125,5.376424742552638,2.3198335246533155,-1.2213877876598387
1761475874265650700,2.915650634765625,4.951562668946385,2.5043457501783966,-1.0571829485610127
1761475874275627800,2.925627685546875,4.4515228970199825,2.4578902884736658,-0.47199276769142595
1761475874285604600,2.9356044921875,4.4540684898495675,2.315167578668892,0.1720464559772983
1761475874295582500,2.94558251953125,5.130243996360898,2.3561858177557586,0.5106941812032834
1761475874305559600,2.9555595703125,6.042957391449809,2.510006844680011,0.5927889289028943
1761475874315536400,2.965536376953125,6.882452405592799,2.612268949280679,0.6440692534808069
1761475874325513700,2.975513671875,7.303100076374411,2.4410829460576173,0.5501373895257711
1761475874335490600,2.985490478515625,7.407195826143026,1.929643243716657,0.35194446570519355
1761475874345467600,2.995467529296875,7.30903238903284,1.3638421288520097,-0.14995459728706628
1761475874355444500,3.005444580078125,6.984530385798215,0.8886737633317708,-0.7381268627073615
1761475874365421600,3.015421630859375,6.674467826804518,0.6617895460233092,-1.0106586594037712
1761475874375398700,3.025398681640625,6.350030120977759,0.6216244166344403,-1.1345251314386724
1761475874385375500,3.03537548828125,6.108412152656912,0.7184756021022797,-1.056988960358873
1761475874395352600,3.0453525390625,6.1274471079945565,0.9276154884055257,-0.8059789673797786
1761475874405329400,3.055329345703125,6.375460914832353,1.2526011835038662,-0.7622790879935025
1761475874415306500,3.065306396484375,6.634719169262051,1.6470897461563347,-0.9713752812854946
1761475874425283300,3.075283447265625,6.678179540804028,2.0175307860061524,-1.1309689002618193
1761475874435260400,3.085260498046875,6.532665738976001,2.215783952113986,-0.9421298245135694
1761475874445237800,3.09523779296875,6.102201023057103,2.3419977179273963,-0.9330117944911122
1761475874455214600,3.105214599609375,5.186982951670885,2.3207377800166604,-0.9905123087581247
1761475874465191700,3.115191650390625,3.9386961242347955,2.3104937416389584,-1.0752583381514995
1761475874475168500,3.12516845703125,2.6298861467748877,2.4201857039794326,-1.0639891945097595
1761475874485145600,3.1351455078125,1.3331670046031474,2.418554303385317,-1.0113806170027702
1761475874495122400,3.145122314453125,0.2361468434333801,2.1730428347572683,-1.2919070657148957
1761475874505099500,3.155099609375,-0.6829600520849227,1.8195225345700978,-1.833774931806326
1761475874515076600,3.16507666015625,-1.79829503762424,1.628836588846147,-2.583382169753313
1761475874525053400,3.175053466796875,-3.3417993216216564,1.3158610650151967,-2.925961096948385
1761475874535030500,3.185030517578125,-4.898685649761557,0.6501902936443686,-2.1573947453789413
1761475874545007400,3.19500732421875,-5.419552521139383,-0.10394231277257203,-0.680190660436824
1761475874554984400,3.204984375,-5.322859741103649,-0.8330246490851044,0.8563441498741508
1761475874564961500,3.21496142578125,-5.379919598931074,-1.7849200077444314,2.3923373275890945
1761475874574938600,3.224938720703125,-5.627435393118858,-2.501675946447253,2.85476516174078
1761475874584915700,3.234915771484375,-5.941749179816246,-2.680028480298817,2.1572195349425076
1761475874594892500,3.244892578125,-6.3602025554239745,-2.8255259155139325,1.570141969423741
1761475874604869600,3.25486962890625,-6.613302871745824,-3.168134068803489,1.3072371751852332
1761475874614846500,3.264846435546875,-6.697898386752605,-3.3430428919419644,1.1412274055562912
1761475874624823600,3.274823486328125,-6.842884365314245,-3.2231770338505505,1.3564797833904623
1761475874634800400,3.28480029296875,-7.638328056284784,-2.948818240922689,1.9937527277946472
1761475874644777500,3.294777587890625,-9.160296800300479,-2.7359230937391517,2.8870485979691147
1761475874654754600,3.304754638671875,-10.455286926722525,-2.746530704732239,3.7859237295806407
1761475874664731400,3.3147314453125,-11.03426988698244,-2.7243139044880866,4.026933210614323
1761475874674708500,3.32470849609375,-11.313133590114116,-2.347818386904895,3.273957957538962
1761475874684685600,3.334685546875,-11.37735617917776,-1.4143053648933768,1.3738313156858086
1761475874694662700,3.34466259765625,-10.986404558479785,-0.7700950224414468,-0.6296405498296022
1761475874704639500,3.354639404296875,-10.407725549602509,-1.0750289863750337,-1.5871765447244046
1761475874714616600,3.364616455078125,-9.817138660788535,-1.8187644096791744,-1.8259211495660244
1761475874724593700,3.37459375,-9.163944216892123,-2.4438475884653625,-1.6587220240220426
1761475874734570500,3.384570556640625,-7.931684979671239,-2.762849971370399,-1.1887611640170215
1761475874744547600,3.394547607421875,-5.692175868576765,-2.8062784864693877,-0.5508590913964435
1761475874754524400,3.4045244140625,-3.156998050022125,-2.6215070254862307,-0.09032978434246033
1761475874764501500,3.41450146484375,-0.6808598649352788,-2.2607857078790663,0.02893471032232046
1761475874774478300,3.424478271484375,1.57453129042387,-1.8986258819013833,-0.09604070933517068
1761475874784455400,3.434455322265625,3.4533564933121204,-1.7103971200712025,-0.31108806611653417
1761475874794432800,3.444432861328125,4.872829908493161,-1.442598562441766,-0.7169361175753176
1761475874804409600,3.45440966796875,5.827264137980341,-0.8232420907393098,-1.548872240771353
1761475874814386700,3.46438671875,6.359700451120734,-0.1831111265555024,-2.2341394007548687
1761475874824363500,3.474363525390625,6.473033400312065,0.386580273745954,-2.1074175392888486
1761475874834340600,3.484340576171875,6.384909126657247,0.8513770289860665,-1.3727354832731187
1761475874844317400,3.4943173828125,6.310516441234946,1.198269143205136,-0.4267668843142688
1761475874854294500,3.50429443359375,6.469364940932393,1.2597663989581167,0.45365993274115024
1761475874864271600,3.514271728515625,6.960412428107857,1.1756344098098575,1.032750810354948
1761475874874248400,3.52424853515625,7.682225065678358,1.0879736620135605,1.3354139067471027
1761475874884225500,3.5342255859375,8.438493515080213,0.9168352973245084,1.405134800966084
1761475874894202400,3.544202392578125,9.044694152611493,0.538989534176141,1.225275735009089
1761475874904179500,3.554179443359375,9.248869986766577,-0.006770224787294864,0.8177921547703444
1761475874914156500,3.564156494140625,8.956515518420934,-0.41720980528742074,0.266016752246581
1761475874924133600,3.574133544921875,8.261092290604115,-0.4761132451549172,-0.22686653552129862
1761475874934110700,3.58411083984375,7.50474726883471,-0.20831731787398455,-0.5908522982845082
1761475874944087600,3.594087646484375,7.015085683059692,0.18673311644494534,-0.6925352512903511
1761475874954064600,3.604064697265625,6.765132432591915,0.7059041436903178,-0.611130458616279
1761475874964041500,3.61404150390625,6.6584437437206505,1.290832129959762,-0.25046616842597724
1761475874974018600,3.6240185546875,6.61383244857788,1.8288731312394142,0.00176171244289726
1761475874983995400,3.633995361328125,6.665342271062731,2.3571730752274394,-0.1732278843142092
1761475874993972500,3.643972412109375,6.620460342285036,2.7777503111213444,-0.5253981581319124
1761475875003949600,3.653949462890625,6.472160124608874,2.9790459136649963,-0.7933176387272775
1761475875013926400,3.663926513671875,6.151561558553576,3.221827957329154,-1.1035149300165474
1761475875023903500,3.673903564453125,5.70805557475388,3.331324104836583,-1.371603995025158
1761475875033880600,3.683880615234375,4.905090840628743,2.8946333540096876,-1.2705676328271627
1761475875043857700,3.693857666015625,3.7295799110680816,2.2365029150158167,-0.8483017862591892
1761475875053834500,3.70383447265625,2.3139023810386656,1.8696447020888327,-0.6114173492662608
1761475875063811600,3.7138115234375,0.6315519364088773,1.5463500288173555,-0.7085860762506723
1761475875073788700,3.72378857421875,-1.1233850210040808,1.0036407434657215,-1.0390710994176566
1761475875083765500,3.733765625,-2.806653165000677,0.046588440434634684,-1.301376174197346
1761475875093742600,3.74374267578125,-4.35891007977426,-1.367308635918796,-0.6066269731845706
1761475875103719400,3.753719482421875,-5.197038481739163,-2.585591370235383,0.7687084634538739
1761475875113696500,3.763696533203125,-4.819460721877217,-3.313113909885287,2.0112264251649377
1761475875123673300,3.77367333984375,-4.088986054423451,-3.9552605978056787,2.393666238105297
1761475875133650400,3.783650390625,-4.423791425007582,-3.1434371421813965,1.2668652711778878
1761475875143627500,3.79362744140625,-6.845661428812146,-1.6314117000311612,0.8572385414306074
1761475875153604600,3.8036044921875,-10.153721562439202,-1.2930869231492281,2.15243083936125
1761475875163581700,3.813581787109375,-12.420595650321244,-1.4910846531912683,3.1544439816251395
1761475875173558500,3.82355859375,-13.207295478343962,-1.807998393253982,3.1738807957619426
1761475875183535600,3.83353564453125,-12.95696111960411,-2.620219323763251,2.864676899424195
1761475875193512400,3.843512451171875,-11.638658506655693,-3.0655089761093257,1.762885870590806
1761475875203489500,3.853489501953125,-10.255521894747018,-3.256497996433079,0.6812832779791206
1761475875213466600,3.863466552734375,-9.768376091185212,-3.400690778790414,0.5393086100626736
1761475875223443500,3.873443359375,-10.009875401562452,-3.079066669079661,0.7675479683071375
1761475875233420500,3.883420654296875,-10.511896702694893,-2.7404925936117768,1.155806842789799
1761475875243397400,3.8933974609375,-10.97125141301155,-2.252017295011878,1.128916790037602
1761475875253374500,3.90337451171875,-10.608712232327461,-1.700370377705991,0.8073398074042052
1761475875263351600,3.9133515625,-9.27803236836493,-1.3013967785939573,0.456286518385075
1761475875273328600,3.92332861328125,-7.262151395392418,-1.350512399418652,0.1786392418384552
1761475875283305700,3.9333056640625,-4.8269706591159105,-1.8175629249349234,0.03902792835275177
1761475875293282300,3.9432822265625,-2.3350129736065863,-2.1741727155700326,0.005412873627897352
1761475875303259400,3.95325927734375,-0.002284311544895172,-2.2271160779893395,-0.10981662076660431
1761475875313236200,3.963236328125,1.9454338103055953,-2.187581355458498,-0.2508815625601448
1761475875323213300,3.97321337890625,3.256842572087049,-1.9309531572714447,-0.4528075536955148
1761475875333190100,3.983190185546875,4.087417197671533,-1.3673629964545368,-0.6840290695559234
1761475875343167200,3.993167236328125,4.87788543831706,-0.6761129626691341,-1.2306908188603818
1761475875353144000,4.00314404296875,5.712734087958932,0.01151741931438446,-2.0183125840336085
1761475875363121200,4.01312109375,6.370038305261731,0.6135837335199117,-2.687749722200632
1761475875373098500,4.023098388671875,6.729837247326969,1.2887947789132594,-2.858043745020032
1761475875383075300,4.033075439453125,6.7943100117594,1.9250766664534806,-2.354875611940026
1761475875393052400,4.043052490234375,6.654585899248719,2.3183286730483172,-1.4158673535130917
1761475875403029200,4.053029296875,6.564666558870673,2.538435651306808,-0.32317280045747754
1761475875413006300,4.06300634765625,6.7688663584232325,2.5667814558252693,0.7564600995164364
1761475875422983200,4.072983154296875,7.116473342913388,2.497451606750488,1.5214825679339468
1761475875432960300,4.082960205078125,7.417348386844992,2.2594965448513626,1.8709540311217308
1761475875442937300,4.092937255859375,7.489110139241814,1.816838702313602,1.8733304048642514
1761475875452914200,4.1029140625,7.266568627312779,1.2466899136334657,1.424671714476496
1761475875462891300,4.112891357421875,6.7498349102169275,0.655471156656742,0.6381915205538272
1761475875472868000,4.1228681640625,6.394718573009968,0.21796558231562374,-0.08968684679642319
1761475875482845200,4.13284521484375,6.339245692113042,0.09227700942009687,-0.7252811904639005
1761475875492822300,4.142822265625,6.434898023185133,0.3150505765393376,-1.2970359530359505
1761475875502799400,4.15279931640625,6.541233660835028,0.7028355498999357,-1.5638096976622937
1761475875512776400,4.1627763671875,6.601342969360947,1.190299041108787,-1.5948181455187498
1761475875522753300,4.172753173828125,6.62194678145051,1.75042941686064,-1.4441197806596755
1761475875532730400,4.18273046875,6.7547834725350135,2.3104969565093514,-1.215398849443346
1761475875542707200,4.192707275390625,6.952523136162758,2.868899193294346,-1.1410529257722197
1761475875552684300,4.202684326171875,6.894017171180248,3.439992569348216,-1.16451446538046
1761475875562661000,4.2126611328125,6.554875232696533,3.8495413384884594,-1.0274886520430444
1761475875572638200,4.22263818359375,6.20690701367855,4.084667314441502,-0.9032132338810711
1761475875582615300,4.232615234375,5.734069136932492,4.01095647380352,-0.923668139019236
1761475875592592100,4.242592041015625,4.861849664795399,3.258782892499864,-0.6756181648895144
1761475875602569200,4.2525693359375,3.998645858284831,2.272541612124443,-0.27638364981897173
1761475875612546300,4.26254638671875,3.465416348940134,1.6343486302658914,-0.2107639803737402
1761475875622523400,4.2725234375,2.6996915044069287,0.8767594536542892,-0.5416328152265399
1761475875632500200,4.282500244140625,1.1946750642359256,-0.5849409918814897,-0.4293708928002044
1761475875642477300,4.292477294921875,-0.6220756675332785,-2.2629151211231946,0.1336629127755761
1761475875652454400,4.302454345703125,-1.9972639507859944,-3.1409432795390484,-0.0071027446772903196
1761475875662431200,4.31243115234375,-3.273769741490483,-3.3649230075776577,-0.3133230220943689
1761475875672408300,4.322408203125,-4.83484241540432,-3.8990307610616086,0.7466470729671418
1761475875682385200,4.33238525390625,-5.685729761177301,-3.3765973710194226,1.5189759919404984
1761475875692362200,4.3423623046875,-5.8192503428727385,-2.278826391482353,1.837351913510263
1761475875702339000,4.352339111328125,-5.938172490373254,-2.1171879688054323,2.508993575984239
1761475875712316200,4.362316162109375,-6.172454124456643,-2.3722554935470224,2.2658269169166685
1761475875722293500,4.37229345703125,-6.771027920371294,-3.0780159909829496,1.1894525072820483
1761475875732270300,4.382270263671875,-7.895287386122345,-4.029240903034806,0.1280920538406819
1761475875742247400,4.392247314453125,-9.057348467001319,-4.454732798977196,-0.39763391147349025
1761475875752224300,4.402224365234375,-10.45940196082592,-4.644411613485217,-0.48296840827930715
1761475875762201300,4.412201416015625,-11.999586745011806,-4.81899807280153,-0.03718315443601459
1761475875772178200,4.42217822265625,-12.754379861164093,-4.516842633670568,0.6696018272094428
1761475875782155300,4.4321552734375,-12.481132244348526,-3.7165462419718502,1.2906255014717578
1761475875792132400,4.44213232421875,-11.790891387605667,-2.7610958211794494,1.5687309335820376
1761475875802109200,4.452109130859375,-11.58472467189431,-1.9422595641836522,1.2963967783495782
1761475875812086300,4.462086181640625,-11.989555180341005,-1.2742124190703035,0.6493890602640807
1761475875822063000,4.47206298828125,-12.308382645070552,-1.0162336830571292,0.2612352535910904
1761475875832040200,4.482040283203125,-11.83633679548502,-1.2581214082300662,0.2865660759362392
1761475875842017300,4.492017333984375,-10.176560001713037,-1.4307342293858527,0.44254123042076826
1761475875851994400,4.501994384765625,-7.865030779546498,-1.1984689035609364,0.6850752176079898
1761475875861971500,4.511971435546875,-5.609070884388685,-0.8759788246706127,1.2175082428127526
1761475875871948300,4.5219482421875,-3.6562037092119453,-0.5048354817703365,1.6911648885957895
1761475875881925400,4.53192529296875,-2.1281044996172187,-0.36035131525099273,1.4941206598863004
1761475875891902200,4.541902099609375,-0.7501268779069185,-0.4860033555284142,0.3434473075274378
1761475875901879300,4.55187939453125,0.7669751368552445,-0.3593406769037247,-1.2709354432262479
1761475875911856000,4.561856201171875,2.1436872686743733,0.09990385103672743,-2.6585852947756647
1761475875921833200,4.571833251953125,3.167183343949914,0.9774053552299737,-3.673554656985402
1761475875931810300,4.581810302734375,3.9940848339796062,1.9452280586004256,-4.298706955485046
1761475875941787100,4.591787109375,4.505492387616634,2.5168431204408406,-4.231555327232182
1761475875951764200,4.60176416015625,4.653754611369967,2.5770988517001268,-3.228250976113975
1761475875961741300,4.6117412109375,4.845215340858697,2.364081539441645,-1.745784659794718
1761475875971718400,4.621718505859375,5.398472908231616,2.1522309328749776,-0.3636937575466931
1761475875981695200,4.6316953125,6.300477277779579,2.094437500075996,0.4596928562298417
1761475875991672300,4.64167236328125,7.227481648549437,2.2226892014577984,0.736048302867636
1761475876001649400,4.6516494140625,7.963288909202814,2.2098265050143002,0.7525988940436392
1761475876011626200,4.661626220703125,8.693642580625415,1.9073697448492049,0.26972324208170173
1761475876021603300,4.671603271484375,9.35554230902493,1.4387880642428994,-0.4881195074321702
1761475876031580200,4.681580078125,9.693780576667189,1.1541636056274176,-1.2290467049151659
1761475876041557200,4.69155712890625,9.647115271604061,1.2495590393289924,-1.8139412273064255
1761475876051534000,4.7015341796875,9.125475077766179,1.498306713399291,-1.9032026882976292
1761475876061511200,4.71151123046875,8.423823184692859,1.853293579007685,-1.5381510864011942
1761475876071488300,4.72148828125,7.838062693122029,2.391538286165893,-1.0861041418146342
1761475876081465300,4.73146533203125,7.530421223795414,3.0512197539940473,-0.6531656561933458
1761475876091442400,4.7414423828125,7.398766435971856,3.67093746022433,-0.34609950253665445
1761475876101419300,4.751419189453125,7.364224699422716,4.151077768938243,-0.08311437307093292
1761475876111396400,4.761396240234375,7.579931981417536,4.470780847458541,0.08743318611811846
1761475876121373200,4.771373291015625,8.26662011411488,4.600817678691446,0.15995441511273384
1761475876131350300,4.781350341796875,8.913807426550983,4.470811827118695,0.24999993915371596
1761475876141327400,4.791327392578125,8.886670413300395,4.31091352610737,0.343065468603
1761475876151304200,4.80130419921875,8.11963799329996,4.217286855643987,0.2970234830699861
1761475876161281300,4.81128125,6.530806959366798,4.190198357710242,0.19218451371863482
1761475876171258000,4.821258056640625,4.165383649927377,3.672200904288888,0.37127486032545565
1761475876181235200,4.831235107421875,1.9034709838449955,2.1173703396350145,1.3536989205002783
1761475876191212300,4.84121240234375,1.222188509583473,0.3566284953355789,2.189826504036784
1761475876201189400,4.851189453125,2.159839362052083,0.06575578998029231,1.3447437528893351
1761475876211166500,4.86116650390625,2.607404850375652,-0.4312468062072992,0.42144554316103455
1761475876221143300,4.871143310546875,1.3133680791556834,-2.5568904686689375,0.8181418449908494
1761475876231120400,4.881120361328125,-1.6498294002532958,-4.682926929840446,1.2653650957480072
1761475876241097200,4.89109716796875,-4.531705271759629,-5.830168042728305,1.6122903815843164
1761475876251074300,4.90107421875,-5.374514525017142,-5.970215395843982,1.8997762209802864
1761475876261051100,4.911051025390625,-4.53166552427113,-5.16196366122663,1.9190113750651479
1761475876271028200,4.9210283203125,-3.400560722669959,-4.243769204378128,1.553677010704577
1761475876281005300,4.93100537109375,-2.965482375475764,-3.603109832406044,0.48244997389577327
1761475876290981400,4.9409814453125,-4.2133097687065595,-3.566006720936298,-0.4150727567261085
1761475876300959000,4.950958984375,-6.640820993268489,-3.8644238503217694,-0.5118430589774623
1761475876310936000,4.96093603515625,-8.761633582311868,-4.877086981415748,0.09244684956166893
1761475876320913000,4.970912841796875,-9.539186227282881,-6.248972715991735,0.9837646611288189
1761475876330890000,4.980889892578125,-9.624905777883528,-6.871281023237109,1.4376421090781688
1761475876340866800,4.99086669921875,-11.302259144878386,-6.9147244436442845,1.7872160097271204
1761475876350844000,5.000843994140625,-13.91962191016674,-5.853356026092172,1.4148239819400013
1761475876360821000,5.010821044921875,-16.293135002559424,-3.5064787194296714,0.4622645698813721
1761475876370797800,5.0207978515625,-18.341019133514166,-1.1180509664997458,-0.2736665911463089
1761475876380775000,5.03077490234375,-19.0596899659276,0.6244347978800535,-0.9555266278337686
1761475876390751700,5.040751708984375,-18.00592910076976,1.1078405381307006,-0.9014080110900103
1761475876400728000,5.05072802734375,-15.378497361409663,0.5469964611515402,-0.034840829093568025
1761475876410705000,5.060704833984375,-11.370552344381808,-0.1792968289643526,0.8627281518228351
1761475876420682000,5.070681884765625,-6.966659213542938,-0.8925473898947238,1.591593338253349
1761475876430658800,5.080658935546875,-3.1585750900804994,-1.3949585671275853,1.9268221949465572
1761475876440636000,5.090635986328125,-0.5206564434975386,-1.3238058865398168,1.8322031524449587
1761475876450613000,5.100613037109375,1.4563660987704992,-0.7706456420615315,1.2476030829556286
1761475876460589800,5.11058984375,3.062188599514961,0.20158932479321956,0.22173684448264538
1761475876470567000,5.12056689453125,3.9456303074121473,1.3144742868319153,-1.1709809579808264
1761475876480543700,5.130543701171875,4.366552118960023,2.1914859616816043,-2.4746117061719297
1761475876490520800,5.140520751953125,4.635713343244791,2.852554499953985,-2.850191570214927
1761475876500498000,5.150497802734375,4.817621816012263,3.153552001221478,-2.05329680365324
1761475876510475000,5.16047509765625,5.31644285979867,2.94785641015321,-0.42061018831543623
1761475876520452000,5.1704521484375,6.405413570025563,2.7492461011707783,1.0268877635404468
1761475876530429000,5.180428955078125,7.972217481067776,2.8355095493897795,1.7915942248113452
1761475876540406000,5.190406005859375,9.511315639060735,2.7363620696783064,2.079253959469497
1761475876550382800,5.2003828125,10.148903933024405,2.0041890738740564,1.8674356477372347
1761475876560360000,5.21035986328125,10.211064328861235,1.2021893853887915,1.2524720041662454
1761475876570336800,5.220336669921875,9.968443320977688,1.0304276281043887,0.4093117455139756
1761475876580313900,5.23031396484375,9.437131627953052,1.253556292271614,-0.10301677715918049
1761475876590291000,5.240291015625,8.680572086650132,1.4540727271363139,-0.17999642860107123
1761475876600267800,5.250267822265625,7.990351688173413,1.7757473979905247,0.10328691760376095
1761475876610244900,5.260244873046875,7.774020721322297,2.2923732707977296,0.3929362186439335
1761475876620222000,5.270221923828125,8.03493083461225,2.820555141364038,0.4704276007339358
1761475876630199000,5.280198974609375,8.434646192002296,3.247631676149368,0.49571580778006463
1761475876640175900,5.29017578125,9.034155222940445,3.644474108451605,0.31120084230862555
1761475876650153000,5.300153076171875,9.599964813372493,3.957746277141571,-0.2296788529956713
1761475876660130000,5.310130126953125,9.834972423642872,4.013084133481979,-0.769306648542732
1761475876670107000,5.32010693359375,9.413583579105138,3.9463288110703227,-1.2557919423691928
1761475876680084000,5.330083984375,8.621092308199405,3.9310172601699827,-1.4680987682707607
1761475876690060800,5.340060791015625,7.768585836791992,4.101762533888221,-1.4054196092568336
1761475876700038000,5.350037841796875,6.990244671791792,4.570017759019136,-1.1286157612644134
1761475876710014700,5.3600146484375,6.188256089222431,4.502408450126648,-0.21537878069281577
1761475876719991800,5.36999169921875,5.3996401984453195,3.321096725332737,1.2612372021630405
1761475876729969200,5.37996923828125,4.851204936662316,1.5537790097743271,2.2621121341772374
1761475876739946000,5.389946044921875,4.552630570888519,0.5476338822722435,0.868827053219825
1761475876749923000,5.399923095703125,3.8127936163276432,0.30706571526527404,-2.062209301166236
1761475876759900000,5.40989990234375,1.4582809924811124,-1.3369400934010742,-3.4683579553499815
1761475876769877000,5.419876953125,-2.8540713342577217,-3.73506681804657,-2.906245758131146
1761475876779853800,5.429853759765625,-7.378768773081898,-4.396106130224466,-1.6081544508233665
1761475876789831000,5.439830810546875,-9.251061943852902,-3.761056414827704,0.6287608443856239
1761475876799808000,5.44980810546875,-7.5465329851627345,-3.161764826032519,3.3370787228405474
1761475876809784800,5.459784912109375,-4.250458472883701,-2.4054309101790188,4.665728250019252
1761475876819762000,5.469761962890625,-1.0780530103713273,-1.7405933747619389,4.374101219165325
1761475876829738800,5.47973876953125,0.672608753940463,-1.2779027980208397,1.994622204105556
1761475876839715800,5.4897158203125,-0.8751508494138717,-1.5857780761033295,-1.1507600077290088
1761475876849693000,5.49969287109375,-4.785275543680787,-2.7373405593216416,-3.040028790155053
1761475876859670000,5.509669921875,-9.443753091919422,-3.8935847706153988,-4.271873601356148
1761475876869646800,5.519646728515625,-13.087410038769244,-4.361296682649851,-4.324386463403702
1761475876879624000,5.5296240234375,-14.079409152019023,-4.0077909955099225,-2.806085886506736
1761475876889601000,5.53960107421875,-12.396141592544316,-3.0221330679804086,-1.3420298177555203
1761475876899577900,5.549577880859375,-11.071586933463811,-1.949089410203695,-1.359035605353117
1761475876909555000,5.559554931640625,-12.924412602698801,-1.5883698461621998,-1.7408385816946625
1761475876919531800,5.56953173828125,-15.605771162557602,-1.5391154013887047,-1.9523495810434222
1761475876929508900,5.5795087890625,-17.11948411940336,-1.685292051039636,-1.8844487418584523
1761475876939485700,5.589485595703125,-16.717379821050166,-1.7838851117387413,-1.4571883749388157
1761475876949462800,5.599462890625,-13.991059837436675,-1.7706509516343474,-0.7217920331738888
1761475876959440000,5.60943994140625,-10.520770914024114,-2.0360896482646464,-0.010626681019738316
1761475876969417000,5.6194169921875,-7.6339090707987545,-2.446242520777881,0.3178262517977506
1761475876979394000,5.62939404296875,-5.261043628659844,-2.985405219563842,0.38245975974984464
1761475876989371000,5.639370849609375,-3.504941719120741,-3.416871806001663,0.12492292228527366
1761475876999348000,5.649347900390625,-2.6105741280615327,-3.2901161883965133,-0.420340833322145
1761475877009324800,5.65932470703125,-2.1753215933442114,-2.742877442921698,-0.9062414956610649
1761475877019302000,5.669302001953125,-1.7888199377924203,-1.8583213440418243,-1.363588592482358
1761475877029279000,5.679279052734375,-1.6488503260880707,-0.8116448841869831,-1.9206163260437548
1761475877039255800,5.689255859375,-1.413876033565402,0.41858313946723935,-2.463210314452648
1761475877049233000,5.69923291015625,-0.4658277057230472,1.794652297207713,-2.753405266676843
1761475877059209700,5.709209716796875,0.924020971044898,2.9985625150397417,-2.841362659332156
1761475877069186800,5.719186767578125,2.1028362028479575,3.903948343719542,-2.7810227569207546
1761475877079164000,5.729163818359375,3.0310651469767094,3.910350319716334,-2.002252698983997
1761475877089141000,5.73914111328125,4.16166725975275,3.0834207726359364,-0.39649738172423094
1761475877099118000,5.7491181640625,5.512489163511991,2.1728417592272162,1.1285274984590707
1761475877109095000,5.759094970703125,6.880550955885648,1.8946528866171837,1.8257225582540033
1761475877119072000,5.769072021484375,8.148868179437518,2.1100033179983497,2.0552111128419637
1761475877129048800,5.779048828125,9.43260392139554,1.9888044577375052,2.1701775084540245
1761475877139026000,5.78902587890625,10.68754553054571,1.4422674307912586,1.9181385377533733
1761475877149002800,5.799002685546875,11.547300073385237,0.859998872989416,1.292326167909801
1761475877158979800,5.808979736328125,11.530097594171762,0.73090516782552,0.40414457200914616
1761475877168957000,5.81895703125,10.803348669242858,0.9258496477767825,-0.34429442587606607
1761475877178933800,5.828933837890625,9.843094939821958,1.1178232952237128,-0.5422579613875598
1761475877188910800,5.838910888671875,8.986945143476127,1.4290750640019774,-0.2793292748168111
1761475877198888000,5.848887939453125,8.594683609223365,2.098443228586018,0.10526420902609825
1761475877208865000,5.858864990234375,8.551628895872831,2.7710587045282122,0.4621543509725481
1761475877218841900,5.868841796875,8.68013252618909,3.375880747182667,0.7391073981773107
1761475877228819000,5.87881884765625,9.129320062756538,3.8219893146961925,0.8084340323816984
1761475877238796000,5.888796142578125,9.838440976536273,4.129633122110366,0.6266601457793265
1761475877248772900,5.89877294921875,10.606256071346998,4.362328071524202,0.036054698395356535
1761475877258750000,5.90875,10.723797578144072,4.229533758276701,-0.5953123099006712
1761475877268726800,5.918726806640625,9.720580320787429,3.5854189851537344,-0.9520881047524511
1761475877278703900,5.928703857421875,7.969588886129856,3.074551822003722,-1.0705420502193272
1761475877288680700,5.9386806640625,6.3333040271043775,2.842892060856521,-0.9175076436281203
1761475877298658000,5.948657958984375,4.992010999190807,2.6158377476781607,-0.46086730683669447
1761475877308635100,5.95863525390625,3.9565906773656603,1.7487299194663761,0.44939423812068996
1761475877318612200,5.9686123046875,3.6106694540053605,0.7429615163221955,1.1617178203992544
1761475877328589300,5.97858935546875,3.5080385160923,0.40960576002448795,0.4743665476180613
1761475877338566100,5.988566162109375,2.864837642943859,0.35888767243921754,-1.1654738119319081
1761475877348543200,5.998543212890625,0.7140449261784553,-0.4177686082139611,-2.413020780786127
1761475877358520300,6.008520263671875,-3.3689871882766482,-1.9935238874748349,-2.6252707619339226
1761475877368497200,6.0184970703125,-7.80163704252243,-3.414176867829263,-1.3473489669516683
1761475877378474200,6.02847412109375,-9.909287367653846,-4.538631856152415,1.1222232837483286
1761475877388451000,6.038451171875,-8.846105178678036,-5.304967526060342,3.9106159849151965
1761475877398428200,6.04842822265625,-6.560068709686398,-6.13771540403068,5.541314275979995
1761475877408405000,6.058405029296875,-4.4344566114068025,-6.474490028861164,4.830495326110721
1761475877418382000,6.068382080078125,-3.8427392572581764,-6.7581275222659105,2.860336824393272
1761475877428359200,6.078359130859375,-5.572116826000809,-7.231987727797031,1.0256527418527752
1761475877438336300,6.088336181640625,-9.15128581084907,-7.351365802371501,0.13068462761715055
1761475877448313300,6.098313232421875,-12.496609214943646,-7.29472738482654,0.5651669086143374
1761475877458290200,6.108290283203125,-14.217848485416173,-6.988017058870196,1.1950010813198984
1761475877468267300,6.118267333984375,-13.72612645998001,-6.1524903638362884,1.2581161475330591
1761475877478244000,6.128244140625,-11.792773548090457,-4.785034428401291,0.9634385700020939
1761475877488221200,6.13822119140625,-10.11159623889327,-3.4228955963358283,0.2472236063081771
1761475877498198300,6.1481982421875,-9.617437341699004,-2.9169045147895813,-0.38123737834803756
1761475877508175000,6.158175048828125,-9.259352802336215,-2.868879027289152,-0.5513141416875645
1761475877518152200,6.168152099609375,-7.913298843631148,-2.4177891642317175,-0.4986379057718441
1761475877528129000,6.17812890625,-5.596168148195743,-1.781595247235894,-0.2747550622364506
1761475877538106000,6.188106201171875,-2.614807235586643,-1.2598574382424355,-0.0618880817014724
1761475877548082200,6.198082275390625,0.4226549189507961,-0.991174060602486,-0.3066868720155209
1761475877558059300,6.208059326171875,2.9226714077532288,-0.8396469898343085,-1.1155644834462553
1761475877568036000,6.2180361328125,4.544183060538768,-0.7126826979145408,-1.809052286221087
1761475877578013200,6.22801318359375,5.0676060461401935,-0.2643330734759569,-2.211183180320263
1761475877587990000,6.237989990234375,4.4225265196383,0.6600799656264483,-2.3854038750641045
1761475877597967000,6.247967041015625,3.04633811943233,1.6695698735117912,-1.895289723215997
1761475877607944200,6.257944091796875,1.6910843707054852,2.1117545455798505,-0.6732097885735333
1761475877617921000,6.267921142578125,0.9050637571185827,2.304949843776226,0.7069020686864852
1761475877627898000,6.277898193359375,1.1095149010837078,2.2106547725319863,1.8640145872473715
1761475877637875200,6.287875244140625,2.3469658617287874,1.8313817530594765,2.4859698432713744
1761475877647852300,6.297852294921875,4.472902369657159,1.6591982632316649,2.318199639841169
1761475877657829000,6.3078291015625,6.437264752316475,1.3780936493054032,1.8363402522496879
1761475877667806200,6.31780615234375,7.7986138953089705,0.7411259714581072,1.273049512770772
1761475877677783300,6.327783203125,8.692436711966991,0.1289022742450237,0.6309409649036825
1761475877687760100,6.337760009765625,8.92306391519606,-0.39422918106392024,0.15428776765316723
1761475877697737200,6.3477373046875,8.60226544265449,-0.48093306652680035,-0.016222966656833888
1761475877707714000,6.357714111328125,8.07210116609931,-0.09700374568104743,0.07753814384117722
1761475877717691100,6.367691162109375,7.645755575937033,0.3550138997457921,0.3871208834286779
1761475877727668000,6.37766796875,7.38605776104629,0.801810887914896,0.7984301594354212
1761475877737645000,6.38764501953125,7.245742112383246,1.2366923973627388,1.25844508722648
1761475877747622100,6.3976220703125,7.1138371491909025,1.6843125384829938,1.3434757787801324
1761475877757599200,6.40759912109375,7.278619715112447,2.1116411483332516,1.1572505387920886
1761475877767576300,6.417576416015625,7.654872948372364,2.281431897805631,1.1029483821749686
1761475877777553200,6.42755322265625,7.611490902763605,2.4246434140406548,0.7340947576470672
1761475877787530200,6.4375302734375,6.8648279015749685,2.671141701748967,0.27013730277530845
1761475877797507000,6.447507080078125,5.587255942943692,2.889423802667856,0.6094997521419078
1761475877807484200,6.457484130859375,4.0306215437382455,3.0497891366690397,1.340298610048741
1761475877817461200,6.467461181640625,2.8552129055082798,2.9120938996374606,1.861275079280883
1761475877827438000,6.47743798828125,2.4522376695394517,2.2459452816218137,2.1987245346330107
1761475877837415200,6.487415283203125,2.518957336115837,1.6391167214505373,1.8872252208344638
1761475877847392000,6.49739208984375,2.686323488789797,1.7700632148742674,0.3988148283537477
1761475877857369000,6.507369140625,2.2597242161273954,1.6731130990765988,-1.1768656321052462
1761475877867346200,6.51734619140625,0.462972900813818,0.42686639916598795,-2.4070656717739998
1761475877877323300,6.5273232421875,-2.930328644508123,-1.7736475031018255,-2.3924163841746746
1761475877887300400,6.53730029296875,-5.609579418432713,-2.9362457595974205,-1.361777013015747
1761475877897277200,6.547277099609375,-5.500699941518903,-1.5856854293838143,-0.9519485501512884
1761475877907254300,6.557254150390625,-4.741417112731933,-0.7623290646150708,0.42308841499723493
1761475877917231000,6.567231201171875,-4.885213004726171,-1.166690201984346,1.4823957353010773
1761475877927208200,6.577208251953125,-6.147807758978009,-0.583733954179287,0.646770475263521
1761475877937185000,6.58718505859375,-7.436847452563047,-0.26798282815515995,0.2549501089069992
1761475877947162000,6.597162109375,-8.0499811042279,-1.1200587991908193,0.9843152807489037
1761475877957139200,6.60713916015625,-7.418289467087388,-1.9600807598173617,1.4112068143561483
1761475877967116000,6.617115966796875,-6.111788935613632,-2.427355741739273,1.6226152301132677
1761475877977093000,6.627093017578125,-6.395681280562282,-2.957114067842066,1.4527319800518452
1761475877987070200,6.6370703125,-9.00810658944845,-2.735483825539052,0.40977037600167093
1761475877997047300,6.64704736328125,-13.067199609911441,-1.9774124183684587,-0.6461321042947471
1761475878007024000,6.657024169921875,-16.352024413901567,-0.8903475417628883,-0.9902447438631207
1761475878017001200,6.667001220703125,-17.74080984535217,-0.10534282722026109,-0.41549671775922176
1761475878026978300,6.676978271484375,-17.566033124160764,0.03937222544550895,0.4405632083460688
1761475878036955100,6.686955078125,-16.589795059144496,0.02481500004380941,0.49707156977057454
1761475878046932200,6.69693212890625,-14.670926599681376,-0.04309095370769501,0.017890370146092027
1761475878056909000,6.706908935546875,-11.724627648103237,-0.6129020348660648,-0.5421805122371762
1761475878066886100,6.71688623046875,-8.688828458341955,-1.2892450068987906,-0.9363055753394961
1761475878076863000,6.726863037109375,-5.702059549209475,-2.0534424957342443,-1.04434984353818
1761475878086840000,6.736840087890625,-2.6987480860769746,-2.4836007760524748,-0.779716618071869
1761475878096817200,6.746817138671875,-0.14045242678523062,-2.4990394604638215,-0.29392206472223625
1761475878106794200,6.756794189453125,1.9972224497318267,-2.203911143490672,0.027828598544211124
1761475878116771300,6.766771240234375,3.757368081703782,-1.9410783915750682,-0.04783018412403762
1761475878126748200,6.776748046875,5.022291571164131,-1.6588352751381694,-0.6636749213784933
1761475878136725200,6.786725341796875,5.561542240494489,-0.8609433142326772,-1.1941098315685987
1761475878146702000,6.7967021484375,5.648301071015,-0.01008285646662116,-1.306513098694384
1761475878156679200,6.80667919921875,5.887554063770175,0.5871637824974953,-0.9632905398335307
1761475878166656300,6.81665625,5.993489303925633,1.30217959953472,-0.5623902104426175
1761475878176633000,6.826633056640625,5.9718333524346345,2.0933838993698357,-0.3109728787716478
1761475878186610200,6.836610107421875,6.032162441191077,2.792372710713744,-0.06394483156818896
1761475878196587000,6.8465869140625,6.02353957427442,3.144150258886814,0.12559121346827595
1761475878206564000,6.856564208984375,5.920136482945084,3.027689533063769,0.06944510948490351
1761475878216541000,6.866541015625,5.896049504914879,2.387752337886393,0.09600530922822653
1761475878226518300,6.876518310546875,6.04597703153193,1.4810529423899947,0.2853059380736202
1761475878236495400,6.886495361328125,6.4124880384564396,0.7987007200051098,0.3527116141527891
1761475878246472200,6.89647216796875,7.188325696203112,0.31310514155998825,0.33145836171116677
1761475878256449300,6.90644921875,8.11788676571846,-0.2624155494168401,0.4312026017393917
1761475878266426000,6.916426025390625,8.656379310157895,-0.8693525383986532,0.6920125425904989
1761475878276403200,6.9264033203125,8.946536560720205,-1.1731487304739654,1.070295966503769
1761475878286380000,6.936380126953125,9.126192286124825,-1.291620211597532,1.147429840392992
1761475878296357400,6.946357421875,8.848163864773511,-1.3795327421978114,0.9175243025019765
1761475878306334200,6.956334228515625,8.27571936637163,-1.1811012238483876,0.5193625677620992
1761475878316311300,6.966311279296875,7.69119104694426,-0.9307598508458584,0.0881244380516
1761475878326288100,6.9762880859375,6.845969471848011,-1.4021996242970227,-0.005250371975987218
1761475878336265200,6.98626513671875,6.7283420403331515,-1.2671572398617863,-0.2905908196739852
1761475878346242300,6.9962421875,7.068947037106752,-1.0020758322365582,-0.4696109505888074
1761475878356219400,7.006219482421875,7.68945618597567,-0.9534967294413595,-0.7832835898384451
1761475878366196500,7.016196533203125,8.37398684837818,-0.537818115776591,-1.2998372741922735
1761475878376172300,7.02617236328125,8.144403601244091,-0.7728980240982025,-1.6574398752570152
1761475878386149000,7.036149169921875,7.8983117023795835,-0.7848867141861469,-1.401889535434544
1761475878396126200,7.046126220703125,7.934548552408814,0.2209914512091316,-0.8913584723711013
1761475878406103300,7.056103271484375,6.620377340176701,0.797822183604911,-0.6692253951124847
1761475878416080100,7.066080078125,4.253100511825084,0.6796133720055222,-0.1258844973264262
1761475878426057200,7.07605712890625,1.6194237405955791,0.8054239638455212,0.04575779829677194
1761475878436034300,7.086034423828125,-0.33699674314856526,0.8294245787665248,0.01912343733869493
1761475878446011400,7.096011474609375,-1.712713434189558,0.5900039743594825,-0.08059062674697488
1761475878455988200,7.10598828125,-3.089908381089568,0.29183990641962737,0.06489197622518986
1761475878465965300,7.11596533203125,-4.642078786623478,-0.6026082755951211,0.8804827119611203
1761475878475942400,7.1259423828125,-6.668555387890338,-2.091820595575869,1.343468326126039
1761475878485919200,7.135919189453125,-9.133900960806011,-2.7360814991712568,0.8915624705106019
1761475878495896300,7.145896240234375,-11.314662699377536,-2.2820621585331855,-0.0025450813729315995
1761475878505873200,7.155873046875,-12.994583286511897,-2.4485849922508,0.09148596864026039
1761475878515850200,7.165850341796875,-13.743533521854877,-1.9557526674851775,0.39941659363918003
1761475878525827000,7.1758271484375,-13.095322127068043,-0.7914798288408667,0.6667519176710397
1761475878535804200,7.18580419921875,-12.59649465354085,-0.48075244926288724,1.0958066937267779
1761475878545781200,7.19578125,-13.41593939782381,-0.12969700481928884,1.4529085056625306
1761475878555758300,7.20575830078125,-14.307891744434833,0.19856763888448475,1.9333673788063226
1761475878565735400,7.2157353515625,-13.838324267661571,0.309402633780241,2.0163589657478034
1761475878575712300,7.225712158203125,-12.512874121046066,0.42937429033368824,1.5898144920125603
1761475878585689300,7.235689453125,-11.16472582041025,0.33117724321484565,0.8490802963510156
1761475878595666200,7.245666259765625,-9.605365795633196,0.07229205988124013,0.2618611852033995
1761475878605643300,7.255643310546875,-7.742251956617832,-0.1255646542549133,0.05028499339763075
1761475878615620400,7.265620361328125,-5.817052540567517,-0.27107290312498805,-0.3352283452365547
1761475878625597200,7.27559716796875,-4.479285933214426,-0.46816769297793503,-0.7038838899090886
1761475878635574300,7.28557421875,-3.6289796021997924,-0.2664152135122567,-0.7859218293875455
1761475878645551000,7.295551025390625,-3.162499570047855,0.11883088902048766,-0.3783858613744378
1761475878655528200,7.305528076171875,-2.7146143482506275,0.371011240953207,0.20022779064904897
1761475878665505300,7.31550537109375,-1.5770038180172443,0.24693222214616833,0.591776171663776
1761475878675482400,7.325482421875,-0.009262918385863303,-0.012358655911497771,0.5658602246407419
1761475878685459500,7.33545947265625,1.8172510825067758,-0.3306233721917495,0.042203686011768875
1761475878695436300,7.345436279296875,3.6124668588161466,-0.7001187652219086,-0.7648314028248191
1761475878705413400,7.355413330078125,4.932504917255043,-1.062155330146104,-1.6771242344141006
1761475878715390200,7.36539013671875,5.70719808114171,-1.1113634515598416,-2.1841614640124143
1761475878725367300,7.3753671875,5.9470537159651515,-0.6796165868759155,-2.038057295075804
1761475878735344000,7.38534423828125,5.4204772347688674,-0.027126784117519852,-1.2892422304198146
1761475878745321200,7.3953212890625,4.3174797527551645,0.39970841619260605,-0.1574597487527877
1761475878755298300,7.40529833984375,3.5232097817391157,0.4130470595847815,1.1221993183508514
1761475878765275100,7.415275146484375,3.7800866939902305,0.09680456984713673,1.9556506684154271
1761475878775252200,7.425252197265625,4.868002342206239,-0.4327305784916505,2.0146660442247986
1761475878785229300,7.435229248046875,6.208387607625126,-0.9391695864684879,1.3117054066404699
1761475878795206400,7.445206298828125,7.586924616783857,-1.5897160000741482,0.2617339238282293
1761475878805183200,7.455183349609375,8.572323893377185,-2.2925107795722783,-0.518966700312309
1761475878815160300,7.465160400390625,8.747186539286375,-2.818281643474102,-0.589413241924718
1761475878825137400,7.475137451171875,8.272561194601655,-2.932773991833627,-0.2962715687241405
1761475878835114200,7.4851142578125,7.624524571859836,-2.592781866261363,0.20702187123596666
1761475878845091300,7.49509130859375,7.0260904766768215,-2.137698403523117,0.818344089564681
1761475878855068200,7.505068115234375,6.698742436361313,-1.7616870161950586,1.243461014714837
1761475878865045200,7.515045166015625,6.756434162351488,-1.359578041666746,1.2916861164405942
1761475878875022000,7.52502197265625,7.082742922747134,-1.0980138483822346,1.0394416862957179
1761475878884999200,7.534999267578125,7.557060808917879,-0.910555632533133,0.4808916385378688
1761475878894976300,7.544976318359375,8.054991625866293,-0.695168814664334,-0.0063150283657014365
1761475878904953300,7.554953369140625,8.410957273378967,-0.7001623851679265,-0.173256927745603
1761475878914930400,7.564930419921875,8.558768830755353,-0.6450776268057524,-0.2560159845728427
1761475878924907300,7.5749072265625,8.332316867384314,-0.3985557390261441,-0.2408954627325758
1761475878934884400,7.58488427734375,7.290812841731309,-0.06673994217943399,0.06327383697144687
1761475878944861200,7.594861083984375,5.750751391664147,0.40954774622693657,0.2936608017038554
1761475878954838300,7.60483837890625,4.460668326506019,0.9020720279566943,0.31734409430399535
1761475878964815400,7.6148154296875,3.5041572907447813,0.9241330531172454,0.5911098167095333
1761475878974792200,7.624792236328125,2.7469518527537584,0.5859041378252208,1.0676038048103451
1761475878984769300,7.634769287109375,1.960136289396882,0.09236013939259573,1.1408300768017767
1761475878994746000,7.64474609375,0.7126064178079367,-0.4074917635452002,0.30410894781891257
1761475879004723200,7.65472314453125,-1.170929446989298,-0.8314249588035046,-0.5023947375547141
1761475879014700300,7.6647001953125,-3.1564772410184143,-1.2135025143027305,-0.6746599873818456
1761475879024677400,7.674677490234375,-5.087742240718007,-1.6145082037642597,-0.2456405383678153
1761475879034654500,7.684654541015625,-6.803299958422779,-2.448210021458566,0.9842764831084757
1761475879044630300,7.69463037109375,-7.270815178841352,-2.926117456553876,2.1042707656957207
1761475879054608400,7.7046083984375,-6.450903401568532,-1.9282433137908577,1.5277058263629675
1761475879064585200,7.714585205078125,-5.422278146710991,-0.7515626097984611,0.6700404378224164
1761475879074561300,7.724561279296875,-5.246663805651664,0.4155409222271293,0.12862731149485335
1761475879084538000,7.7345380859375,-6.265660231420397,1.065603351708129,0.0587585423709359
1761475879094515200,7.74451513671875,-7.734365587282181,0.9022609015922993,0.45316104330830276
1761475879104492300,7.7544921875,-8.956889612430334,0.6517703293774276,0.8603927676778286
1761475879114469400,7.764469482421875,-10.203401246887445,0.177339192090556,1.3295304016664624
1761475879124446500,7.774446533203125,-11.310465832209587,-0.5605361800737678,1.215791794283688
1761475879134423300,7.78442333984375,-12.524454668724536,-1.1121678998105227,0.37402386677265165
1761475879144400400,7.794400390625,-13.553969565898178,-1.0589794765889644,-0.8294403608575462
1761475879154377200,7.804377197265625,-14.110926572310923,-0.33161884950250387,-2.3073700566604733
1761475879164354300,7.814354248046875,-14.694023397630453,0.5791876890517771,-3.378221757350862
1761475879174331100,7.8243310546875,-14.933202740627527,1.464114374809712,-3.5560952755138278
1761475879184308200,7.83430810546875,-14.432974752652644,2.2159110856249926,-3.0504788724988696
1761475879194285300,7.844285400390625,-13.438908770000934,2.726133228869736,-2.1712493754692375
1761475879204262100,7.85426220703125,-12.103100895500182,2.806688820835948,-1.2297764804944396
1761475879214239200,7.8642392578125,-10.560256536716222,2.6107240579262374,-0.6341532780136913
1761475879224216300,7.87421630859375,-8.823114763712882,2.27865541882962,-0.43334867385737597
1761475879234193400,7.884193359375,-6.603914281153679,1.7261708816558121,-0.7641169709451496
1761475879244170200,7.894170166015625,-4.338596190541982,0.8059658156372607,-1.0431041543260215
1761475879254147300,7.904147216796875,-2.4345114587128163,-0.3074504767991602,-0.8311709840424358
1761475879264124400,7.91412451171875,-0.5720253962069749,-1.0014705598197877,-0.4236107583709061
1761475879274101200,7.924101318359375,1.2982102575123309,-1.1906873097740114,-0.009617271081754006
1761475879284078300,7.934078369140625,2.828344772326946,-1.1921395544089377,0.43388588600661604
1761475879294055200,7.94405517578125,4.414653594306111,-0.9609450726859271,0.6793396696306765
1761475879304031500,7.954031494140625,5.872801315796375,-0.43975452231168743,0.6740715199694037
1761475879314008600,7.964008544921875,6.608142712503671,0.302635477732867,0.5679425838727503
1761475879323985700,7.973985595703125,6.363224533593654,1.0547107132285833,0.3635934755099937
1761475879333962500,7.98396240234375,5.75723607750833,1.6867273445397615,0.2346339546523988
1761475879343939600,7.993939697265625,5.291276269838214,2.3201561807364226,0.03873063960634172
1761475879353916700,8.003916748046874,5.25126048579216,2.683480666579306,-0.09894150881059467
1761475879363893500,8.0138935546875,5.522129098516702,2.6417136549517513,-0.16806162412483244
1761475879373870600,8.02387060546875,5.775614614763856,2.5595491664841767,-0.07683500054050237
1761475879383847400,8.033847412109376,5.814698086395859,2.516241355155408,0.08006141524109989
1761475879393824500,8.043824462890624,5.793149102410673,2.278630868910253,0.3207840056248009
1761475879403801300,8.05380126953125,5.595962981012463,1.87911483348459,0.8452791505023837
1761475879413778400,8.0637783203125,5.48671700887382,1.522323402672261,1.3997677209749817
1761475879423755500,8.073755615234376,5.742179378151893,1.1920989301376044,1.601131712579727
1761475879433732600,8.083732666015624,6.329211789354682,0.5739713426429778,1.5628155720584094
1761475879443709700,8.093709716796875,7.0038628627777095,-0.293911926920712,1.3264980482332407
1761475879453686500,8.1036865234375,7.7473215149670835,-1.0283575438320636,0.9473910329774021
1761475879463663600,8.11366357421875,8.490949093982577,-1.5099267163053154,0.7103874265842139
1761475879473640400,8.123640380859374,9.261988996058703,-1.7084508083090184,0.650874184255302
1761475879483617500,8.133617431640625,9.695228437387943,-1.5172180423572659,0.6438444317489862
1761475879493594600,8.1435947265625,9.31165757459104,-1.1318330428104848,0.7704861406508833
1761475879503571500,8.153571533203126,8.07698484648764,-0.793834575273469,0.9371519630357622
1761475879513548500,8.163548583984374,6.8296735860854385,-0.42129612475298345,1.0084018203876912
1761475879523525400,8.173525390625,6.12794278255701,-0.1374690270602703,0.8484152565710246
1761475879533502500,8.18350244140625,6.025832069125771,-0.1440680599991232,0.31357122470177706
1761475879543479600,8.1934794921875,6.20397914353311,-0.20925474485456944,-0.413875546298176
1761475879553456600,8.20345654296875,6.245716344544291,-0.12311908773370087,-0.8214727429792285
1761475879563433700,8.213433837890625,6.121747435048222,0.08942483485937118,-0.9865200973168015
1761475879573410600,8.22341064453125,5.719609818947315,0.5329088990882038,-1.2329375748738647
1761475879583386400,8.233386474609375,4.5348687042266125,0.6388124289311469,-0.9343881974108517
1761475879593363500,8.243363525390626,2.4659862089067697,0.07735606527253985,0.0633272202596534
1761475879603340500,8.253340576171874,0.6953302888363599,-0.5766378584384918,0.7764687952570617
1761475879613317400,8.2633173828125,-0.2853244235783815,-0.8496190794028341,0.19461006036512551
1761475879623294500,8.27329443359375,-1.1465706662803887,-1.0451109641037881,-1.1567938080005347
1761475879633271600,8.283271484375,-2.4157746095389125,-1.1351754120409487,-2.3295634760290382
1761475879643248600,8.29324853515625,-4.109677544796466,-1.6435045811459421,-2.821198407703638
1761475879653225500,8.3032255859375,-5.277769138011336,-2.254640190861374,-2.1842869900882245
1761475879663202600,8.31320263671875,-5.706820480000973,-2.7972259959638115,-0.9476670734398066
1761475879673179600,8.3231796875,-6.370336995947361,-3.4344612387061115,0.463694493086636
1761475879683156500,8.333156494140624,-8.016415519234538,-3.9374142677307127,1.7520519034959374
1761475879693133600,8.343133544921875,-10.072847113782167,-4.017027318149805,2.4023542792126533
1761475879703110400,8.3531103515625,-11.487667150199412,-3.854390824346244,2.780470383735001
1761475879713088500,8.363088623046876,-11.784667398524284,-3.367356372204423,2.6926328180670738
1761475879723065600,8.373065673828124,-11.181384694266319,-3.183798378664255,2.7121523420512674
1761475879733042400,8.38304248046875,-10.659804121661185,-3.39750016605556,3.0219582959353923
1761475879743018800,8.393018798828125,-10.380820007020235,-3.2386513740971683,2.5921406457483767
1761475879752995600,8.40299560546875,-9.77878642604053,-2.6543694306463004,1.1845629816748202
1761475879762972700,8.41297265625,-9.280520093527436,-2.307379409010708,-0.05602624046336859
1761475879772949500,8.422949462890625,-9.454093868669867,-2.097618175938725,-0.3471794067278504
1761475879782926600,8.432926513671875,-9.653089669838547,-1.4947268090859054,-0.7393876764234155
1761475879792903400,8.4429033203125,-9.369193817758559,-0.8661892520621418,-1.4908873770534992
1761475879802880500,8.452880615234376,-8.143151555356383,-0.2840640482537448,-1.6982709212087095
1761475879812857600,8.462857666015625,-6.233827753829956,0.3733224405050278,-1.2580749387398362
1761475879822834400,8.47283447265625,-4.0727375149339435,0.7934254830159246,-0.48506033905725926
1761475879832811500,8.4828115234375,-1.6103683274805545,0.8850485585719347,0.243313209665101
1761475879842788400,8.492788330078126,0.7563520360320806,0.5609525057896971,0.7571329572767019
1761475879852765400,8.502765380859374,2.317111406213045,0.04090776444971561,0.7414639712408184
1761475879862742500,8.512742431640625,3.082325378614664,-0.5130572205401956,0.13001083827512339
1761475879872719600,8.5227197265625,3.7296231656879186,-0.48574850398451086,-0.9130679806802421
1761475879882696700,8.53269677734375,4.452909382942319,-0.24230814254209398,-1.493849149468541
1761475879892673500,8.542673583984374,5.065733822527528,-0.1833433278761804,-1.5395657755047083
1761475879902650600,8.552650634765625,5.996465689387917,-0.3543379001803696,-1.159439646334201
1761475879912627500,8.56262744140625,7.244395958471298,-0.5309145104005932,-0.7430585469558835
1761475879922604500,8.5726044921875,8.247267763391136,-0.7102383735023439,-0.4494622983882203
1761475879932581400,8.582581298828124,8.875438240668178,-0.8275472405873239,-0.24773162889555095
1761475879942558500,8.592558349609375,9.014307782176136,-0.8117518516927957,-0.19010394458491353
1761475879952535600,8.60253564453125,8.646312674173712,-0.9243610166542231,-0.11733016560133545
1761475879962512400,8.612512451171876,8.244940197226404,-1.0259051822438836,-0.018441190695576367
1761475879972489500,8.622489501953124,8.07100109590292,-0.885653100336343,-0.07039126776121557
1761475879982466600,8.632466552734375,8.001630038034916,-0.5814855907306075,-0.16651622131373733
1761475879992443600,8.642443603515625,7.7954978091150515,-0.18076733990833163,-0.19238697748817501
1761475880002420500,8.65242041015625,7.684996868479251,0.26536358556747436,-0.04606302832104266
1761475880012397600,8.6623974609375,7.9072128017157315,0.8068558963447808,0.3099216161530465
1761475880022374700,8.672374755859375,8.263049854412674,1.1909646654106676,0.6681259094379842
1761475880032351500,8.6823515625,8.584154031902552,1.4861061341263353,0.8516470780991018
1761475880042328600,8.69232861328125,8.908606350776553,1.9481388314805923,0.5482875238753855
1761475880052305400,8.702305419921874,9.186281720906495,2.2241857236258684,-0.05122457580268383
1761475880062282500,8.712282470703125,9.221677443936466,2.172977222175151,-0.8600487765457481
1761475880072259300,8.72225927734375,8.754782985764741,2.3994630878157914,-2.064575884167105
1761475880082236400,8.732236328125,7.918306442660093,2.63146727848649,-2.6204800205260512
1761475880092213500,8.742213623046876,6.534414628469944,2.920854421459138,-1.3827820993825792
1761475880102190600,8.752190673828125,4.3791912357807155,2.8528350704610346,0.6731891841769218
1761475880112167700,8.762167724609375,2.2039754408985375,1.8616174629777669,2.5844106360182164
1761475880122144500,8.77214453125,1.4666799875140188,0.9333724444970488,2.6734035092011093
1761475880132121600,8.78212158203125,1.6571242334365843,0.24582608753517268,1.0901276982422918
1761475880142098400,8.792098388671874,1.1030395675897597,-1.340686440322548,-0.38612997269518673
1761475880152075500,8.802075439453125,-2.045562410008907,-2.5708941518411037,-1.754666323778033
1761475880162052600,8.812052490234375,-7.6085156863451,-1.8887430780515073,-1.4589565536551177
1761475880172029400,8.822029541015626,-12.85129125238657,-0.8512631933480501,1.147436489329487
1761475880182006500,8.832006591796874,-15.097098002320527,1.6567495549052953,3.422545175462961
1761475880191983400,8.8419833984375,-14.147657927858829,2.7014269498974084,6.193946994340419
1761475880201960400,8.85196044921875,-11.029521231150627,1.5725770876161753,7.658760603460669
1761475880211937500,8.8619375,-6.68835957403481,0.5735768634326756,5.16994706119597
1761475880221914600,8.87191455078125,-4.039524981161952,0.33999285622462627,0.8458995474230497
1761475880231891700,8.8818916015625,-5.87353722885549,0.3973828227892518,-2.226095210509002
1761475880241868500,8.89186865234375,-10.854917528438568,0.23966581133976578,-3.909241189430654
1761475880251844600,8.9018447265625,-16.236322982013224,-0.2857248210728168,-4.149721385893225
1761475880261821400,8.911821533203126,-19.41025463117957,-0.6385565544739366,-3.3090342393562198
1761475880271798500,8.921798583984375,-19.852996060347557,-0.6935296691551804,-2.7746391933634875
1761475880281775400,8.931775390625,-18.388460099124906,-1.0322703333616257,-2.809588341669738
1761475880291752700,8.941752685546875,-15.31194136096239,-1.605096524557471,-2.8318448894023893
1761475880301730000,8.95172998046875,-11.369013882768153,-2.1787426538340746,-2.662119606381655
1761475880311707100,8.96170703125,-7.300054717329144,-2.537709967380762,-2.330410740508139
1761475880321684200,8.971684326171875,-3.5539281606078146,-2.8535668918669224,-1.8984252447627483
1761475880331661300,8.981661376953125,-0.028825112468004226,-2.8178043813511726,-0.9660242756463586
1761475880341638100,8.99163818359375,2.759591554096341,-2.4934020390987395,-0.0355846331981942
1761475880351615200,9.001615234375,4.368953919404745,-2.346341007828712,0.3038257104307413
1761475880361592000,9.011592041015625,5.069168473151326,-1.7307435963988302,0.42968426959831263
1761475880371569200,9.021569091796875,5.659370746561884,-0.5674887756906449,0.38185711768157776
1761475880381546200,9.031546142578126,6.409232836052775,0.42636809425503014,0.1906285347145982
1761475880391523000,9.041523193359374,7.248212301889062,0.8199769514635205,0.34448936392627655
1761475880401500200,9.051500244140625,7.81538207475841,0.6643951254118233,0.9637583034757524
1761475880411477000,9.06147705078125,8.109573695403338,0.2949622396912426,1.6493173590779304
1761475880421454000,9.0714541015625,8.318649576559663,-0.10154833030812442,2.115225728821754
1761475880431431200,9.08143115234375,8.740878379052877,-0.32337460663989187,1.9290591602183877
1761475880441408300,9.091408203125,9.226282307383418,-0.5243070018943399,1.4577511233881115
1761475880451385300,9.10138525390625,9.419224215340614,-0.8594545369796455,0.8403359219465404
1761475880461362200,9.111362060546876,9.484123680752516,-1.3971182293795048,0.10833258362077176
1761475880471339300,9.12133935546875,9.470974276322126,-1.7873707618974148,-0.6359006331376731
1761475880481316000,9.131316162109375,9.414472636899351,-1.9194532736137508,-1.0300401631567626
1761475880491293200,9.141293212890625,9.386550610750913,-1.7485624539449809,-1.0608420555904507
1761475880501270000,9.15127001953125,9.309582521882653,-1.6077531765460966,-0.7394405756544321
1761475880511247000,9.1612470703125,9.313922596913576,-1.5447449317082762,-0.37931525117903947
1761475880521224200,9.17122412109375,9.316521381235122,-1.2804562818959355,-0.3678429131153971
1761475880531201000,9.181200927734375,9.145396168288588,-0.8377665098499506,-0.45753940452300007
1761475880541178000,9.19117822265625,8.769559699136018,-0.2794431104548275,-0.48815161960348485
1761475880551155200,9.2011552734375,8.349118949103355,0.2874650888688862,-0.690548680583015
1761475880561132300,9.21113232421875,8.023005419018864,0.8937601266853511,-1.1755674089882522
1761475880571109000,9.221109130859375,7.285108492609858,1.3783454321093855,-1.265997840693593
1761475880581086200,9.231086181640626,6.13016221217215,1.8687141432404517,-1.0140534164085984
1761475880591063300,9.241063232421874,4.902184013271332,2.0569598562054336,-0.6703609750136733
1761475880601040100,9.2510400390625,3.2436808926969767,1.732008794029057,-0.24276063554994762
1761475880611017200,9.261017333984375,0.4809007716923952,1.3415002409234642,-0.03568549975678324
1761475880620994000,9.270994140625,-2.8779437927544116,1.0029343487620352,0.25508725235536694
1761475880630971100,9.28097119140625,-5.950221824607253,0.5027623287580907,0.49200354579128325
1761475880640948000,9.290947998046875,-8.483938338437676,-0.6436202676042914,0.37743773033674805
1761475880650925000,9.300925048828125,-10.598408280456065,-1.5561024842858313,-0.47742991724405437
1761475880660902100,9.310902099609375,-13.560779245913029,-1.38897700849995,-0.9915561917878687
1761475880670879200,9.320879150390626,-17.36753416659832,-2.2944741885997355,0.7214531566083431
1761475880680856300,9.330856201171875,-19.073091883814335,-2.738148076312244,2.2108843435041603
1761475880690833200,9.340833251953125,-18.313082494318483,-2.236665996623039,3.6861595792755484
1761475880700810200,9.350810302734375,-16.371909848588704,-2.565994981622696,5.092756854009628
1761475880710787000,9.360787109375,-13.431556653672455,-2.088232215695083,4.01944314711988
1761475880720764200,9.37076416015625,-10.91806225913763,-0.7485030760973691,0.7828746437113732
1761475880730741200,9.3807412109375,-11.07751983064413,-0.9792521521404385,-1.0879730044264346
1761475880740717000,9.390717041015625,-12.243825709486007,-1.4014593273237346,-1.3126967557653784
1761475880750695200,9.400695068359376,-12.391162635087966,-1.3732771889343858,-0.9885513108834624
1761475880760671200,9.410671142578124,-11.210376979994773,-1.8638228640675543,-0.13056004225625656
1761475880770648300,9.4206484375,-8.667698576551675,-2.111974325810373,0.17842327926652504
1761475880780625200,9.430625244140625,-5.580072753441334,-1.949064714153856,-0.05418792825345881
1761475880790602200,9.440602294921876,-2.472216627728939,-1.597021646912396,-0.4057084968576207
1761475880800579000,9.4505791015625,0.513428830331564,-0.8079045286148786,-0.8329241843853146
1761475880810556200,9.46055615234375,2.9621657982736824,-0.029134032286703585,-1.0306582219898701
1761475880820533000,9.470532958984375,4.726291439792513,0.5056844998151063,-0.9761387693602591
1761475880830510000,9.480510009765625,5.685476663199067,0.9932688409246504,-0.8126362333118915
1761475880840487200,9.490487060546876,6.041442895233631,1.5556084171585738,-0.6754637780454009
1761475880850464000,9.500464111328125,5.935464984980225,2.0695704775840045,-0.6700343734078109
1761475880860441000,9.510441162109375,5.55107812962532,2.1810820565670728,-0.7789131196692586
1761475880870418200,9.520418212890625,5.170447411933541,1.6529297043561935,-0.7323454297617077
1761475880880395300,9.530395263671876,5.2616772503882645,0.7764968523077667,-0.5262326361946761
1761475880890372000,9.5403720703125,5.830782959756255,-0.12709917034581303,-0.4120756207367405
1761475880900349200,9.55034912109375,6.707310358220338,-0.7107998067773879,-0.8160274831853807
1761475880910326300,9.560326171875,7.906563982418179,-0.8410515959352254,-1.6774107962705194
1761475880920303000,9.57030322265625,9.061450057101249,-1.1785526353441178,-2.0344895195916295
1761475880930280200,9.5802802734375,9.585791911113262,-1.619061921545863,-1.8951935693651436
1761475880940257000,9.590257080078125,9.344107891818881,-1.8743167855530976,-1.693547399818152
1761475880950234000,9.600234130859375,8.551576288902758,-1.6881702368244529,-1.4163845092549918
1761475880960211000,9.6102109375,7.73897395786047,-1.3912686265684664,-0.9033240007791667
1761475880970188000,9.62018798828125,7.301177583879232,-1.1370092764046043,-0.3821400262761861
1761475880980165000,9.6301650390625,7.178298807707429,-0.8115572059035301,0.04666917752064764
1761475880990142200,9.64014208984375,7.24551122623682,-0.4389712629795074,0.20713972546197473
1761475881000119300,9.650119384765626,7.381780814379454,-0.002490501641482115,0.02670592835694551
1761475881010096000,9.66009619140625,7.517678062078356,0.5129276028111577,-0.5472591306757182
1761475881020073200,9.6700732421875,7.527995457953214,0.8969323269806802,-1.180596781457588
1761475881030050000,9.680050048828125,7.19075438465476,1.1592037917517124,-1.4973650486350059
1761475881040027100,9.690027099609376,6.539705720615387,1.4466979605846106,-1.532334801337868
1761475881050004200,9.700004150390624,5.488845837596059,1.7563146755069494,-1.2846864668115974
1761475881059981000,9.70998095703125,4.306400140336156,1.9448697466820477,-0.703408527482301
1761475881069958100,9.719958251953125,3.499129817971587,1.8907550023958086,-0.024933584922179577
1761475881079935000,9.72993505859375,3.01584478149116,1.6008444200709462,0.2893647850103676
1761475881089912000,9.739912109375,2.2748685937672852,1.1386292057566345,0.06023519992791116
1761475881099889200,9.74988916015625,1.0651713169664143,1.3707660828962922,-1.2067652419369668
1761475881109866200,9.7598662109375,-0.5752233154654502,1.7041766381211578,-2.4154512228034437
1761475881119843300,9.76984326171875,-2.990484714785218,0.4975234051913023,-1.4888282525666057
1761475881129820200,9.779820068359374,-5.457286331728101,-0.9026622489348053,-0.07484320566877722
1761475881139797200,9.78979736328125,-6.651961395964026,-0.9489066982373595,0.022645839311182497
1761475881149774000,9.799774169921875,-6.780698835036159,-0.5536094495505094,0.043417847574502226
1761475881159751200,9.809751220703125,-6.875593041217327,-1.331966688902676,1.518864348259568
1761475881169728000,9.81972802734375,-6.853116420993208,-1.3718231907337903,2.1038801589429377
1761475881179705000,9.829705078125,-6.609857115206122,-0.14605156196653843,1.8472446542322634
1761475881189681200,9.83968115234375,-5.9438154646962875,0.8073848886549473,1.417708743596077
1761475881199658200,9.849658203125,-5.745533949276805,0.8603679985627531,1.139409907805547
1761475881209635300,9.85963525390625,-6.454750140124559,0.5237900653481483,1.1536618666503577
1761475881219612200,9.869612060546874,-6.979525709378719,0.12145692667514085,1.0967056883931159
1761475881229589200,9.87958935546875,-6.637311523842811,-0.3411950716212392,0.5752247767701745
1761475881239566000,9.889566162109375,-6.195238203194737,-0.7684127684429287,-0.02420782793089747
1761475881249543200,9.899543212890626,-6.795553874340653,-1.2554776157230139,-0.030537688539549707
1761475881259520000,9.90952001953125,-7.924812171292304,-1.242967093718052,0.06732881145067512
1761475881269497000,9.9194970703125,-8.639963012886048,-1.0100772062540053,0.11617986305505036
1761475881279474200,9.92947412109375,-9.339916869869828,-0.5399450813353062,-0.09060374244563281
1761475881289451000,9.939450927734375,-10.100497337251902,-0.10313304221630096,0.021774828630313277
1761475881299428400,9.949428466796874,-10.424475608873367,0.07481850961893796,0.28026553275361654
1761475881309405400,9.959405517578125,-10.132276623350382,-0.1810878040343523,0.2727128888843581
1761475881319382300,9.96938232421875,-9.216323807948827,-0.8219508818849921,-0.1489643806733191
1761475881329359400,9.979359375,-7.861020959383249,-1.6928458274200557,-0.7485060717720537
1761475881339336400,9.98933642578125,-6.543417434614897,-2.5363886556491253,-1.354271021299809
1761475881349313300,9.999313232421875,-5.437167672806978,-3.142093034096062,-1.7864207676962016
1761475881359290400,10.009290283203125,-4.409680482068658,-3.2601781462505457,-1.5276418212160467
1761475881369267200,10.01926708984375,-3.263825270581245,-2.8875372582688925,-0.7365036454197019
1761475881379244300,10.029244384765626,-1.981300073456764,-2.292099422292411,0.04902607937771827
1761475881389221000,10.03922119140625,-0.7491793679237365,-1.3782882950946689,0.4761963933937251
1761475881399198200,10.0491982421875,0.27845161519944667,-0.46860330791622395,0.4051534567907452
1761475881409175300,10.05917529296875,1.5777034907191991,0.21765373988747597,0.1533336452661082
1761475881419152400,10.06915234375,2.7726059339702127,0.8008613321051001,-0.6297909180857241
1761475881429129500,10.07912939453125,3.5234728165894746,1.0685051375642418,-1.7394138095885514
1761475881439106300,10.089106201171875,4.131142357629537,1.0585708957880735,-2.621333130224049
1761475881449083400,10.09908349609375,4.741936168169975,1.2762965318679809,-3.2659061685085296
1761475881459060200,10.109060302734376,5.075263867416978,1.902847006727755,-3.6544244245797395
1761475881469037300,10.119037353515624,5.081754398480057,2.499922965300083,-3.252777222344279
1761475881479014400,10.129014404296875,4.978588038516044,2.587662331290543,-1.7643458601407707
1761475881488991200,10.1389912109375,5.1270010689169165,2.56251824542284,-0.08511373019460589
1761475881498968300,10.14896826171875,5.508489864742756,2.5857047674819826,0.9051542118810116
1761475881508945200,10.158945068359374,6.056964874014258,2.3353888211816547,1.4808131422847508
1761475881518922200,10.168922119140625,6.945703519275784,2.093896817328036,1.637413570794463
1761475881528899000,10.178899169921875,8.046487416893243,1.7885791147738694,1.310384971691668
1761475881538876400,10.18887646484375,8.899829754602909,1.2333324194103479,0.5984766191504896
1761475881548853500,10.198853515625,9.379473219710588,0.6155600020289421,-0.22772534430772065
1761475881558830300,10.208830322265625,9.570069441324472,0.3809127495035529,-0.8769843484513461
1761475881568807400,10.218807373046875,9.280618877726793,0.4963596221089363,-1.0786378245219588
1761475881578784300,10.2287841796875,8.58859347565472,0.9815317875102162,-0.7611492071807384
1761475881588761300,10.23876123046875,7.86605369285345,1.795073737490177,-0.2636681798264384
1761475881598738200,10.24873828125,7.172119826811552,2.339744970564544,0.22588395422473548
1761475881608714200,10.25871435546875,6.790438723284006,2.5956346253439784,0.62823199820593
1761475881618691300,10.26869140625,6.868738937538862,2.8804315179169175,0.744319214541465
1761475881628668400,10.27866845703125,7.083247949659824,3.1285201435565946,0.6207419347114861
1761475881638645200,10.288645263671874,7.336627082923054,3.00160553599745,0.31404680632427334
1761475881648622300,10.298622314453125,7.460125452297926,2.5154911213099953,-0.015396160443872212
1761475881658599400,10.308599365234375,7.350251119127869,1.969196670947969,-0.44685923975035546
1761475881668576300,10.318576171875,6.343820160421728,1.6601590710878371,-1.0801404111046344
1761475881678553300,10.32855322265625,4.179112900072336,1.165815172715485,-1.0593754171039909
1761475881688530200,10.3385302734375,1.5528835222393274,0.41800241696983576,0.005343626050278544
1761475881698507300,10.34850732421875,-0.4221469694286585,-0.23760201067775485,1.4076833164051175
1761475881708484000,10.358484130859376,-0.815389915934205,-0.5877396826893091,2.395836129490286
1761475881718461200,10.368461181640624,-0.7429360896199941,-1.2233072844803332,2.296051959310472
1761475881728438300,10.378438232421875,-1.2843453982889652,-1.4821730324611067,0.1712708319623023
1761475881738415400,10.388415283203125,-4.1743326800584795,-2.2582892148882148,-1.158657775241509
1761475881748392400,10.398392333984376,-7.071593167701363,-3.523557572263479,-0.6224561912834644
1761475881758369300,10.408369384765624,-8.926879674091934,-3.741138831436634,0.9808328454606234
1761475881768346400,10.418346435546875,-10.414772545504569,-2.8699092471197245,2.206784506969899
1761475881778323200,10.4283232421875,-10.023610496926308,-2.070160260170698,3.7335225112140176
1761475881788300300,10.43830029296875,-7.925370974218845,-0.7437409762620926,4.292468353356421
1761475881798277400,10.44827734375,-5.053883225736022,1.4750266678377986,2.6327389058575035
1761475881808254200,10.458254150390625,-4.431668441992998,2.6169232048273083,0.4002499757234007
1761475881818231300,10.468231201171875,-7.258017072066664,2.651526900696754,-1.6052432395517826
1761475881828208000,10.4782080078125,-11.856834809112549,2.608246561896801,-4.015756567561626
1761475881838185200,10.488185302734376,-15.552932721817493,2.7275316974908113,-6.1468567418634885
1761475881848162000,10.498162109375,-17.167583256661892,2.6639403920680285,-6.662963266971707
1761475881858139400,10.508139404296875,-16.80251426523924,2.502534024581313,-5.9211599807739255
1761475881868116500,10.518116455078125,-15.034506229329109,2.0577230956628916,-4.453824744221568
1761475881878093300,10.52809326171875,-11.642722102832794,1.7653721344485878,-3.1179724460572
1761475881888070400,10.5380703125,-7.986119749692082,1.114501457324624,-1.789456482130289
1761475881898047200,10.548047119140625,-5.263776853016019,-0.1394889155153185,-0.6363981343310326
1761475881908024300,10.5580244140625,-3.0354794562876224,-0.9306767756722867,0.008962839460745454
1761475881918001200,10.568001220703126,-1.449542390230298,-1.209166092533618,0.3587892900986597
1761475881927978200,10.577978271484374,-0.44202305176556106,-1.14609976083301,0.7782654694154858
1761475881937955300,10.587955322265625,0.6434902114838361,-1.4294449202276764,0.9389913072921335
1761475881947932200,10.59793212890625,1.6544740111887455,-1.989119368905574,0.9377515363641082
1761475881957909200,10.6079091796875,3.2168624438762663,-2.5198826342672107,0.7386850811120123
1761475881967886300,10.61788623046875,5.386183335500955,-2.4332652580440044,0.8607621855121106
1761475881977863400,10.627863525390625,8.097111688715218,-2.219856900641322,1.0327509564854205
1761475881987839200,10.637839111328125,10.217909080189466,-2.0463228729873895,1.2027364978775381
1761475881997816300,10.64781640625,11.109577349162102,-1.9769364714197812,1.0646003121454268
1761475882007793200,10.657793212890626,10.614119059807061,-1.7832834925837813,0.7319606682278216
1761475882017770200,10.667770263671875,9.165036103782057,-1.314970399785787,0.48631282333638515
1761475882027747300,10.677747314453125,7.766171761387586,-0.6131745681971311,0.3753359722845256
1761475882037724200,10.68772412109375,6.840145295739173,0.35079759722501036,0.5854267661044373
1761475882047701200,10.697701171875,6.606116759634017,1.2481482957482337,1.1549410197407006
1761475882057678300,10.70767822265625,6.66870210288465,1.6137217295616864,1.7151872769571839
1761475882067655400,10.717655517578125,6.927297509491443,1.8563577888838945,2.019324537555128
1761475882077632300,10.72763232421875,7.231435939133167,2.033857213037461,1.8237461436145006
1761475882087609300,10.737609375,7.078534365141391,1.9913588183954356,1.1580682118505239
1761475882097586400,10.74758642578125,6.5343140907049175,2.0766523986689744,0.465338607031852
1761475882107563300,10.757563232421875,6.045726271641254,2.3133156671918926,-0.17349336684998123
1761475882117540400,10.767540283203125,5.440531011760235,2.331848079834878,-0.47020314432829613
1761475882127517200,10.77751708984375,4.969470666080713,2.127307504020631,-0.6081033658800646
1761475882137494300,10.787494384765624,4.389605662289261,1.4622729847267268,-0.5449121291581541
1761475882147471000,10.79747119140625,3.7106951778560875,0.5451474722839892,-0.08688895970620214
1761475882157448200,10.8074482421875,2.8215701636254784,-0.2602541335992515,0.28750929333679376
1761475882167425300,10.81742529296875,1.656530359196663,-0.5127694896399975,0.10285565004702657
1761475882177402400,10.82740234375,0.2739537192583084,0.35009076412990686,-1.1359981266006827
1761475882187379500,10.83737939453125,-1.6863304541766642,1.0702207093104719,-2.222754375648498
1761475882197356300,10.847356201171875,-5.776665000599622,-0.7502120719723403,-0.3437782930474728
1761475882207333400,10.85733349609375,-8.96519566848278,-3.5530987240463494,3.214382902020216
1761475882217310200,10.867310302734374,-7.761466944697498,-4.411013776499033,3.4518706386685367
1761475882227287300,10.877287353515625,-4.4598663624733685,-4.422266991919279,3.0553041006982324
1761475882237264400,10.887264404296875,0.664106298533082,-2.547006788036227,1.1339213203266263
1761475882247241200,10.8972412109375,3.6948423596858975,-0.0021900573901832104,-2.483412267743051
1761475882257218300,10.90721826171875,1.5977847402393817,1.365776457915455,-4.266503014233708
1761475882267195100,10.917195068359375,-3.1930227186053988,2.1883578927889467,-3.1347800807341932
1761475882277172200,10.927172119140625,-7.863631434142589,2.59266583866626,-1.4257370056204497
1761475882287149300,10.9371494140625,-9.748904497995973,2.5233912269100545,-0.10815561961866915
1761475882297126100,10.947126220703124,-9.335182827085257,1.944484108365327,0.8989516309138387
1761475882307103000,10.95710302734375,-7.653574725255369,1.2380647086292504,1.0333497991614042
1761475882317080000,10.967080078125,-5.37103077455461,0.7007969567444176,-0.2503535018317401
1761475882327057200,10.97705712890625,-3.1556361140191553,-0.18507647181171924,-2.3992957684248686
1761475882337034000,10.987033935546876,-2.144143780270219,-1.4199404481709004,-3.7989214505806563
1761475882347010000,10.997010009765624,-1.8283423853635787,-2.0049675109006464,-4.070961737433076
1761475882356987000,11.00698681640625,-1.7536504247337579,-2.120494901396334,-3.234738292306661
1761475882366964200,11.016964111328125,-1.6889239778012037,-2.0057231515735388,-1.8329075013220308
1761475882376941000,11.026941162109376,-1.285115798139572,-1.5901484001420438,-0.8246131598968058
1761475882386918100,11.036918212890624,-0.960390507543087,-1.4605417770199476,-0.21602789225131272
1761475882396895000,11.04689501953125,-0.6549269667774439,-1.6703081246584652,0.20002470582500098
1761475882406872000,11.0568720703125,-0.03458908282220363,-2.064117765136063,0.4041539974246174
1761475882416849200,11.06684912109375,0.5506383247852326,-2.3494649850681424,0.33110783124044535
1761475882426826000,11.076825927734374,0.8805617685467004,-2.338693123424053,0.3004914514414966
1761475882436803000,11.086802978515625,1.0748352173686027,-1.8559294804692268,0.28708193477019667
1761475882446780000,11.09677978515625,1.2090110481023788,-1.0612770129416138,0.26267343316804614
1761475882456757000,11.106757080078125,1.3388444657176732,-0.23349004531428216,0.4668589119343087
1761475882466733800,11.11673388671875,1.5593886663496492,0.28556422368362544,0.8713402050845325
1761475882476711000,11.1267109375,1.8483675207823513,0.5662682939849794,1.0357749074164777
1761475882486688300,11.136688232421875,1.8984855966478584,0.7951784641630947,0.9456447738319634
1761475882496665000,11.1466650390625,1.489270589506626,0.979051661132276,0.6318808761022985
1761475882506642200,11.15664208984375,0.9267635477513074,1.2622542702510953,0.06319554757084697
1761475882516619000,11.166618896484374,0.7667378209680319,1.4067153481557964,-0.18195976456329224
1761475882526596000,11.17659619140625,0.8381938684165477,0.8301524546496569,0.3105232353080064
1761475882536573000,11.186572998046875,1.1514911715477705,0.18209201264083386,0.7429810247402637
1761475882546550000,11.196550048828126,1.2156243287622928,-0.40111046501025555,0.5316702241387218
1761475882556527000,11.206527099609374,1.0624708258360624,-0.6989759518623352,-0.6525467936426401
1761475882566504000,11.21650390625,1.0070990672260522,-0.3641729193657636,-1.5570324586123228
1761475882576481000,11.22648095703125,0.7939952457278966,-0.005533084207773208,-1.6150912643492221
1761475882586457900,11.236457763671876,0.32043606896996496,0.3412710594668984,-1.158883108429983
