time,seconds_elapsed,z,y,x
1761475842678697500,0.028697509765625,0.008131284007430076,0.11618673118725419,0.7661080716971308
1761475842688674600,0.038674560546875,0.10295593208372593,0.10251344901323318,0.7015198641914874
1761475842698651600,0.048651611328125,0.1587625749796629,0.06136179280504584,0.5597911703927442
1761475842708629200,0.058629150390625,0.17353168956637383,-0.008712737157195807,0.439441072448343
1761475842718606600,0.068606689453125,0.1883236005067825,-0.02970364886820316,0.30999793279226867
1761475842728583700,0.078583740234375,0.19940204388201235,-0.018985855498909947,0.1863879928017035
1761475842738560500,0.088560546875,0.1642950746655464,-0.03367445219531655,0.14074728154595942
1761475842748537600,0.09853759765625,0.0354489145219326,-0.09368789913132786,0.018898305079620332
1761475842758514400,0.108514404296875,-0.11982815642952918,-0.15431231757253408,-0.1463967404087074
1761475842768491500,0.118491455078125,-0.2541945412993431,-0.16013620142042637,-0.22053981671780346
1761475842778469600,0.1284697265625,-0.28965689982473847,-0.1612090913489461,-0.21395192622747272
1761475842788446500,0.138446533203125,-0.22255203332304954,-0.14403466918617486,-0.1857918535394594
1761475842798423600,0.148423583984375,-0.1842722792893648,-0.0911255012974143,-0.08172920232284814
1761475842808400400,0.158400390625,-0.15065584089159964,-0.0285940801911056,0.043534825017675756
1761475842818377500,0.16837744140625,-0.09352993209064006,-0.011825754611194133,0.10671367718204855
1761475842828354300,0.178354248046875,-0.09700140759348869,-0.10072875755354761,0.14940481791719792
1761475842838331400,0.188331298828125,-0.1248468613743782,-0.18254297127872704,0.11604882055390625
1761475842848308500,0.19830859375,-0.1632926196247339,-0.20345307283848524,-0.03570471591390669
1761475842858286300,0.208286376953125,-0.15347089831233024,-0.1976619222164154,-0.15900942588020114
1761475842868263400,0.218263427734375,-0.11720423766672611,-0.20623612768575547,-0.22374986480548978
1761475842878240500,0.228240478515625,-0.03329261327087879,-0.2253710362665355,-0.16740323328133672
1761475842888217300,0.23821728515625,0.16887655723690986,-0.2648243641242385,-0.058213082983158526
1761475842898194400,0.2481943359375,0.4003834659099579,-0.2993368745788932,-0.005329999383725225
1761475842908171500,0.258171630859375,0.49991643780767914,-0.36430414452999826,-0.03572327448390424
1761475842918148600,0.268148681640625,0.44598201852440833,-0.36124855635166164,-0.11597674169838428
1761475842928126500,0.27812646484375,0.3068570409506559,-0.27858459392935037,-0.20445223994366823
1761475842938103600,0.288103515625,0.1365887370944023,-0.16748247253000736,-0.2570509901763871
1761475842948080600,0.29808056640625,-0.06094225221872329,-0.09510609536617994,-0.27781079654525964
1761475842958057500,0.308057373046875,-0.22241291711330413,-0.09549743277132511,-0.26948433702560143
1761475842968034600,0.31803466796875,-0.29911797113120553,-0.11687895123511552,-0.27659727430334313
1761475842978011400,0.328011474609375,-0.27119185332953927,-0.1179974338710308,-0.2314135678337887
1761475842987988500,0.337988525390625,-0.2624859843045473,-0.0972141735613346,-0.1135155392166227
1761475842997966600,0.347966552734375,-0.3010819646805525,-0.0930035701289773,-0.02043428247524425
1761475843007943400,0.357943359375,-0.3249871564030647,-0.02373188098222017,-0.03640911958990618
1761475843017920500,0.36792041015625,-0.2685065597683191,0.043319209505617615,-0.11363990538180806
1761475843027897300,0.3778974609375,-0.21703414668440818,0.0427338108330965,-0.1946675809723325
1761475843037874400,0.38787451171875,-0.18116028474867343,-0.04169453091323375,-0.23392321256715803
1761475843047851500,0.3978515625,-0.030893735435605047,-0.09062135116755962,-0.09813364476012065
1761475843057828400,0.407828369140625,0.10840659870505333,-0.10474719941467046,0.14131118077272548
1761475843067806500,0.417806396484375,0.10677695167660713,-0.16189532004743815,0.2851087715337053
1761475843077783600,0.427783447265625,0.0030628947019577025,-0.12174158883541822,0.20184176518432795
1761475843087760400,0.437760498046875,-0.04499123437106609,-0.005528700293600559,-0.01719887161743827
1761475843097737500,0.447737548828125,-0.20833120026886462,0.03363572762012482,-0.1857652395271696
1761475843107714300,0.45771435546875,-0.3605290099054575,0.0348845586374402,-0.3548773408193141
1761475843117691400,0.46769140625,-0.3393605496704578,0.035470541831851006,-0.4295534462928772
1761475843127668500,0.47766845703125,-0.07235796472430228,0.05822042603939771,-0.4426740630201995
1761475843137645600,0.4876455078125,0.25351181973218917,0.16133447129428385,-0.40835473705008624
1761475843147623400,0.49762353515625,1.1243494821220636,0.2681806888148188,0.22170555429523808
1761475843157600500,0.5076005859375,1.6839105335533617,0.2337085103705525,0.6781065476391465
1761475843167577600,0.51757763671875,1.629949810785055,0.40020430995076894,-0.0821797682350967
1761475843177554400,0.527554443359375,1.1447849519073963,0.08535539346337317,-0.348349984877184
1761475843187531500,0.537531494140625,0.8109814518421888,-0.49154959147870536,-0.30993440256938337
1761475843197508600,0.547508544921875,0.7286100426256656,-0.706408439950645,-0.11706719468305818
1761475843207485400,0.5574853515625,0.594879033049941,-0.5603039787530899,-0.09394832189949229
1761475843217463600,0.567463623046875,0.45087738935053345,-0.4007043684273958,-0.0196735226692399
1761475843227440400,0.5774404296875,0.46245910607278345,-0.4588897231534123,-0.19008578787371516
1761475843237417500,0.58741748046875,0.5943593930900096,-0.7649713958173989,-0.1910744701175019
1761475843247394600,0.59739453125,0.7818471272945403,-0.8723252705991268,-0.2607732255699113
1761475843257371400,0.607371337890625,0.5058721313416957,-0.7754632714763283,-0.438713269630447
1761475843267348200,0.61734814453125,-0.0059556935340166085,-0.8459343995407224,-0.6030397988801822
1761475843277325000,0.627324951171875,-0.5141565600842237,-0.886144537115097,-0.4873444679390639
1761475843287303200,0.63730322265625,-1.1309908198326826,-0.5926175178587436,-0.5077206818178296
1761475843297280300,0.6472802734375,-1.5246458542704582,-0.5189630835831165,-0.49992674000598486
1761475843307257000,0.657257080078125,-1.8887340179622172,-0.19141952069550752,-0.9949598627515137
1761475843317234200,0.667234130859375,-2.350534367865324,-0.1665416845485568,-1.1623141788572073
1761475843327211300,0.677211181640625,-1.8375170409440993,-0.02728548181056976,-1.581362890009582
1761475843337188400,0.687188232421875,-0.45796237917542454,0.10402093096673488,-2.14354888311699
1761475843347165400,0.69716552734375,-0.09789514156281948,0.06628361324667931,-1.8786404939711092
1761475843357142300,0.707142333984375,0.9041115709602833,0.11513736826479434,-1.3358520059034227
1761475843367120400,0.717120361328125,1.867158145970106,-0.22100129674971103,-1.492605286887288
1761475843377097500,0.727097412109375,2.2829010935753584,-0.3706880003482103,-1.8665534580752252
1761475843387074300,0.73707421875,1.207403028383851,-1.8608055620729922,-1.4745157957062125
1761475843397051400,0.747051513671875,0.9650181673437357,-2.0505913440868255,-1.5935598160207272
1761475843407028200,0.7570283203125,1.824635932061076,-1.1577075618445873,-2.396720949500799
1761475843417005300,0.76700537109375,3.1605607109397647,-0.003129530197381973,-2.997388502824306
1761475843426982100,0.776982177734375,3.9538188745647664,-0.1197816869392991,-2.4348294386208056
1761475843436960300,0.786960205078125,5.118111660018563,0.06737813048511743,-2.2892226978123187
1761475843446937300,0.796937255859375,6.473423276412487,1.0133683567538856,-2.1928797541275618
1761475843456914200,0.8069140625,5.573854025056958,1.831969343689084,-1.4447624624773858
1761475843466891300,0.816891357421875,4.043431925472617,2.1865762700691818,-0.703431762227416
1761475843476868000,0.8268681640625,4.207425386843085,2.0415131346181035,-1.0393214209169148
1761475843486845200,0.83684521484375,4.034296432858706,1.2867358005568383,-1.1354209112346172
1761475843496822300,0.846822265625,4.374703276711702,0.5239842727459967,-1.2253580795302987
1761475843506800000,0.856800048828125,4.281257515773177,-0.007033990290015935,-0.734336603578925
1761475843516777200,0.866777099609375,3.2131074752569195,-0.1812600918613374,0.33995208582282066
1761475843526754300,0.87675439453125,1.5518518411040305,-0.7387076582700014,1.6049904338344931
1761475843536731100,0.886731201171875,-1.4027683640956878,-1.4905482082270085,2.545128719204664
1761475843546708200,0.896708251953125,-4.152145398169756,-2.2884224873453376,6.955405998122692
1761475843556685300,0.906685302734375,-4.499051540914178,-1.5588900691777468,8.141792541962861
1761475843566662400,0.916662353515625,-4.47731960157752,2.8272002784669397,5.0353603115737435
1761475843576640300,0.92664013671875,-6.133927117663622,4.7733767238333815,4.410619516484439
1761475843586617300,0.936617431640625,-9.477367776751517,3.7058892388790845,3.837288882897794
1761475843596594400,0.946594482421875,-11.840760457146168,3.0508377689391373,2.113881912997365
1761475843606571300,0.9565712890625,-12.293140652275085,2.4196745395869015,1.001446740552783
1761475843616548400,0.96654833984375,-11.634566853427886,1.4879006163276731,0.9572580547362566
1761475843626525200,0.976525146484375,-10.401859287917613,1.1502506699673831,1.2443246458068489
1761475843636502300,0.986502197265625,-9.70584393942654,1.2704156571358443,1.9458906141623853
1761475843646479400,0.996479248046875,-9.904501302421092,1.4527024616964161,2.460759414169192
1761475843656457200,1.006457275390625,-9.962520945191383,1.8138548641972243,2.66693051379472
1761475843666434300,1.016434326171875,-9.938238736850023,1.609938119369745,3.1808269616380334
1761475843676411100,1.0264111328125,-8.72804110931158,1.2315665787816048,3.6285277667790647
1761475843686388200,1.03638818359375,-7.519104295489192,-0.6464551987692714,5.1765387145459645
1761475843696365300,1.046365234375,-4.977967276269197,-2.180088077093661,5.260629787161946
1761475843706342100,1.056342041015625,-2.2139140665888783,-2.5720535510092972,4.191893471190333
1761475843716319200,1.0663193359375,-0.33407004204690455,-2.2683821543574334,2.623823193474114
1761475843726297300,1.07629736328125,0.24512626870274543,-2.211364528236538,2.1256120982795954
1761475843736274200,1.086274169921875,0.6318371830910444,-1.6267746878802776,1.9580588986009357
1761475843746251300,1.096251220703125,1.4867501311182976,-0.8433870531454681,2.2042209400922057
1761475843756228000,1.10622802734375,2.2213287267595527,-0.38909927082955836,2.269309059944004
1761475843766205200,1.116205078125,2.924116930386424,-0.07192987550534308,1.8477343374453483
1761475843776182300,1.126182373046875,3.5739170556694266,0.39756797009781003,1.2637439242869615
1761475843786159400,1.136159423828125,3.80571213363409,1.0339987645894289,0.7544191682733595
1761475843796137200,1.14613720703125,3.881351604247093,1.2043921561300754,0.3310156959775835
1761475843806114300,1.1561142578125,4.11302860879004,1.3462947817236184,0.14056268222667276
1761475843816091400,1.16609130859375,4.314602151492238,1.5476305701471864,0.4745355475094169
1761475843826068200,1.176068115234375,4.320949474692345,1.256958648061007,1.1203344743270427
1761475843836045300,1.18604541015625,4.590854210820794,0.632564182191342,1.7552178201809525
1761475843846022400,1.1960224609375,5.381588993448019,0.1268691061832942,2.01346952791661
1761475843855999200,1.205999267578125,6.399204193991422,-0.06942775649130344,1.5061756932087242
1761475843865976300,1.215976318359375,7.337965638050436,-0.3146029789023101,0.7251178165957332
1761475843875954200,1.2259541015625,8.027453630599378,-0.6607249124664812,0.2038829156231135
1761475843885931300,1.23593115234375,8.593490600046515,-1.0207865240558982,-0.03786277073062956
1761475843895908400,1.245908447265625,8.615647486796975,-1.5411802249640225,-0.03807875156886875
1761475843905885200,1.25588525390625,8.110057095006107,-2.033001326860487,0.18136121414825318
1761475843915862300,1.2658623046875,7.448456057292223,-2.165693933299184,0.4054955482266843
1761475843925839000,1.275839111328125,6.982400388032198,-1.845135260862857,0.17167539417520164
1761475843935816200,1.285816162109375,6.7649366177588695,-1.3401941267609596,-0.4322115230536088
1761475843945794300,1.295794189453125,6.768388219517469,-0.9909299496483057,-1.0735600828662515
1761475843955771100,1.305771240234375,6.73780077355206,-0.9153468853976577,-1.5325906757950782
1761475843965748200,1.315748291015625,6.546872543504834,-0.8144649831090122,-1.8598729573979973
1761475843975725000,1.32572509765625,6.446194493225216,-0.520713434381783,-2.35916687939316
1761475843985702400,1.335702392578125,6.042919982048868,-0.14214637122154236,-2.911505870616436
1761475843995679500,1.345679443359375,4.757542902624607,0.2651402982056141,-3.3465751577213405
1761475844005656300,1.35565625,3.274104088011384,0.688030121890828,-3.5853663781836627
1761475844015633400,1.36563330078125,2.3404373367428777,1.1553188400771468,-3.521694701001048
1761475844025611300,1.375611328125,1.641688179373741,1.5771848736725746,-3.5850048513948916
1761475844035588400,1.38558837890625,0.15791209563016892,1.7106201151721179,-4.114819291599095
1761475844045565400,1.3955654296875,-2.5265157886713743,1.719629351057857,-4.935242233264446
1761475844055542300,1.405542236328125,-5.234485292080045,1.5707944419831037,-4.636875372761487
1761475844065519400,1.415519287109375,-7.129596443858742,1.1334645164698363,-2.9454677614510056
1761475844075496200,1.42549609375,-8.14851045204103,0.6528358397170901,-0.6897701704911887
1761475844085473300,1.435473388671875,-8.807425027149915,-0.5393284107416868,1.7917020690999923
1761475844095451400,1.445451416015625,-9.171544170501827,-2.8399516234904527,3.9364369471311567
1761475844105428200,1.45542822265625,-8.89562996482551,-4.952408472120761,5.177363474932313
1761475844115405300,1.4654052734375,-7.9336033805131905,-5.074198868533968,5.443494537740945
1761475844125382100,1.475382080078125,-7.1823512979686255,-4.497030556480587,6.331128436630964
1761475844135359200,1.485359130859375,-6.637755175957083,-4.975214178168773,8.29037917536497
1761475844145336000,1.495336181640625,-6.123035136771202,-6.065019001132249,10.587409916579723
1761475844155313200,1.505313232421875,-5.83595831656754,-6.9464148824155325,11.590345434385537
1761475844165290200,1.515290283203125,-5.7740486806213855,-7.298559510335326,10.85243097231984
1761475844175268000,1.52526806640625,-4.997511350172758,-6.9558128253579135,8.881799592393635
1761475844185245200,1.5352451171875,-3.237632844704389,-5.532868519195914,6.362040292245149
1761475844195222300,1.54522216796875,-1.9983324568003416,-3.672719082944095,3.4135219110518693
1761475844205199400,1.555199462890625,-1.3359756322830916,-2.2304367468446493,0.5562243082240224
1761475844215176400,1.565176513671875,-0.6681628804475068,-0.4443760446324944,-1.2770303991004823
1761475844225153300,1.5751533203125,0.3543535361409187,1.4079142025515436,-2.186435984815657
1761475844235130400,1.58513037109375,1.276553721499443,2.6940003070279954,-2.3457738754652437
1761475844245108500,1.5951083984375,1.942006758466363,3.2863004295006393,-2.0277470595940947
1761475844255085300,1.605085205078125,2.565378311029076,3.4245226130157707,-2.010666453194618
1761475844265062000,1.615061767578125,2.9936610067337748,3.2924715193510052,-2.181733360082656
1761475844275039000,1.6250390625,3.150904993844032,2.9384783409550783,-2.169036375594884
1761475844285016000,1.63501611328125,3.2207261335670947,2.3815821248188613,-1.9741126461707055
1761475844294993000,1.644992919921875,3.5047856517761944,1.6893083009436725,-1.692375579559803
1761475844304970000,1.654969970703125,4.104837703549862,1.0442844501517712,-1.4155126948565244
1761475844314946800,1.66494677734375,4.811643910646438,0.6560078208167106,-1.4227192652344702
1761475844324925000,1.674925048828125,5.683600347933173,0.5857876718387007,-1.7560783825330435
1761475844334902000,1.684902099609375,6.316313729336858,0.5560347039360553,-2.2422274301424623
1761475844344878800,1.69487890625,6.537696718880534,0.4431971370462328,-2.3797734679616984
1761475844354856000,1.70485595703125,6.441387969726324,0.26688699574247,-2.2878375270642337
1761475844364832800,1.714832763671875,6.111024380981922,0.012675722504034637,-2.102262786874175
1761475844374809900,1.724809814453125,5.7483536828726525,-0.0228146200068295,-1.8398427074126897
1761475844384787200,1.734787109375,5.622567494821548,0.11777115083448589,-1.4880495232790707
1761475844394764800,1.744764892578125,5.608181826594471,0.31842231799475845,-1.0818247839950024
1761475844404742000,1.754741943359375,5.76973081742227,0.7289299952950328,-0.8890960803970694
1761475844414719000,1.764718994140625,6.098218090900779,1.2025501815252004,-0.7748094837427139
1761475844424696000,1.774696044921875,6.3749564724415535,1.3334332543238996,-0.9376651732549071
1761475844434673200,1.784673095703125,6.591946195462346,1.3397380535565315,-1.5173805394425988
1761475844444650000,1.79464990234375,6.745183285018801,1.4423733753837644,-2.282283107807487
1761475844454627000,1.804626953125,6.552543574878573,1.5097351392559706,-2.8841058225154876
1761475844464604000,1.81460400390625,5.521648037001491,1.5886182679653167,-3.2069238181859254
1761475844474582000,1.82458203125,3.7096453765422104,1.799851619416475,-3.514807279574871
1761475844484559000,1.83455908203125,2.114353622162342,2.3882211244419214,-3.628158348944783
1761475844494536000,1.844535888671875,1.394289289563894,3.031694092530012,-3.383134079311788
1761475844504513000,1.854512939453125,0.8666758665353059,3.0319015978008506,-2.866109562575817
1761475844514489900,1.86448974609375,-0.01823591391444206,2.160303764693439,-2.0109306570887564
1761475844524467000,1.874467041015625,-0.6608902590960264,0.9927750660583377,-1.411237209494412
1761475844534443800,1.88444384765625,-1.4842776035249232,0.021019991675019264,-1.4651567234694958
1761475844544420900,1.8944208984375,-3.8320553661584853,-0.9665735800921916,-1.5416738536998629
1761475844554399000,1.90439892578125,-7.4723051349133245,-2.6012533420085906,0.14656301862001417
1761475844564375800,1.914375732421875,-11.294265223515033,-4.946276837497949,4.130443561710417
1761475844574353000,1.924352783203125,-12.64710723492503,-5.994303542917966,7.40759914624691
1761475844584330000,1.934330078125,-11.20424651441574,-5.8208840815544125,9.334840881779789
1761475844594307000,1.94430712890625,-8.331943357896805,-5.697839885687828,9.28778511609435
1761475844604284200,1.9542841796875,-6.129201258185505,-5.855492453598976,7.899659025335311
1761475844614261000,1.964260986328125,-5.4317152526199814,-5.364573561239243,6.254294203275442
1761475844624238800,1.97423876953125,-5.441088061121106,-3.841966227059066,4.9664744068741795
1761475844634216200,1.98421630859375,-5.719609234425425,-2.53458949727267,5.306772529655695
1761475844644193000,1.994193115234375,-6.399588809394836,-2.2551393725551665,6.276254690670966
1761475844654170000,2.004170166015625,-7.173855272302031,-1.479281987194717,6.2132099132150405
1761475844664147000,2.01414697265625,-7.853940645733475,0.11510222388617694,5.035566063278913
1761475844674124000,2.0241240234375,-8.11680423117876,1.9935309017375111,3.7937440479427575
1761475844684100900,2.034100830078125,-7.6155094907552,3.041500031751394,2.7416902789637443
1761475844694078000,2.044077880859375,-6.2753428365230555,3.264769857954979,1.8534115062989294
1761475844704056000,2.05405615234375,-4.681175702258944,2.940120847465098,1.1452122374087572
1761475844714033000,2.064032958984375,-2.810910822445154,2.285259054878354,0.7036448204562068
1761475844724010000,2.074010009765625,-0.4452957898259163,1.562666080585122,-0.021615181089192626
1761475844733986800,2.08398681640625,1.9029186106592415,0.8242414770402013,-0.8436464347340166
1761475844743964000,2.0939638671875,4.029703259849548,0.09071129447333515,-1.802565262289345
1761475844753941000,2.10394091796875,5.94882773990035,-0.5723098391715437,-2.6528490892112253
1761475844763917800,2.113917724609375,7.49732500987947,-1.1209937419533729,-2.971124180755019
1761475844773896000,2.12389599609375,8.79639451456964,-1.4908032059013843,-2.9058257791534063
1761475844783873000,2.133873046875,9.49635187868476,-1.9489149304196238,-2.4435581039994956
1761475844793849900,2.143849853515625,9.658733228683472,-2.4624536508664487,-1.839690293329954
1761475844803827000,2.153826904296875,9.646116323694587,-2.749486339667439,-1.1648542187288402
1761475844813804000,2.163803955078125,9.654712302604317,-3.0722184106200934,-0.44353725572079417
1761475844823781000,2.173781005859375,9.57779331357479,-3.2282980301260946,-0.11086685133874416
1761475844833758000,2.183758056640625,9.42545872581601,-3.0161954946249723,0.01668225473165512
1761475844843735000,2.193735107421875,8.831646445214748,-2.441691287214309,-0.14635682852342724
1761475844853712100,2.203712158203125,8.090199717369675,-1.8106179281026125,-0.2999628975227475
1761475844863690000,2.21368994140625,7.742486934417486,-1.2068136111233383,-0.43078254969641566
1761475844873667000,2.2236669921875,7.6418234971851104,-0.5547256306314841,-0.6621490269854664
1761475844883644000,2.233643798828125,7.638005984723567,0.1206992036430165,-1.165662027980387
1761475844893621000,2.24362109375,7.568640187552571,0.6928942207958548,-1.9210173080600796
1761475844903598000,2.25359814453125,7.017128587064146,1.0476033654414116,-2.497799105013907
1761475844913575000,2.263574951171875,6.096080494350194,1.1691937823031098,-3.0374574783623216
1761475844923552000,2.273552001953125,4.685592349657416,1.0501751886907964,-3.4453958896964787
1761475844933529900,2.28352978515625,2.739316827830672,1.014666360675171,-3.6125124515235423
1761475844943507000,2.2935068359375,0.9345435341030359,1.1664184723708777,-3.5659897698014973
1761475844953484000,2.303484130859375,-0.19877602093815802,1.4251143436774611,-3.32228447381258
1761475844963460900,2.3134609375,-0.9911714302539825,1.5124993432722984,-2.699353943015635
1761475844973438000,2.32343798828125,-1.725734828326106,0.9503960600122808,-1.7498057320043443
1761475844983414800,2.333414794921875,-2.2709517125844956,0.23409283351302146,-1.0714452826693655
1761475844993391900,2.343391845703125,-2.236660151404142,0.6485168074741959,-1.5990996222302316
1761475845003369000,2.353368896484375,-2.8702134907633066,1.005518227775395,-1.9641803040906787
1761475845013346800,2.363346923828125,-5.045795196348428,-0.829716839711368,-0.4870712770208716
1761475845023324000,2.373323974609375,-8.195932128429412,-3.980432156202197,2.047558552262187
1761475845033301000,2.383301025390625,-10.852156247031688,-5.284480033826828,3.664754972197115
1761475845043278000,2.393278076171875,-11.972266191887854,-4.32386740796566,4.1200072156310075
1761475845053255200,2.403255126953125,-11.37394607847333,-3.600577099058032,4.830729719388485
1761475845063232000,2.41323193359375,-9.582267828640342,-3.663602879552543,5.513671066772938
1761475845073209000,2.423208984375,-7.801017449319362,-3.7801922001913186,5.4128264277547595
1761475845083186000,2.43318603515625,-6.792247234010696,-3.601054361180961,4.7960614338502285
1761475845093164000,2.4431640625,-6.860262201094627,-2.887426199109852,3.7652526974737643
1761475845103141000,2.45314111328125,-8.099365020599961,-1.6803040334939956,2.6612211962372063
1761475845113118000,2.463117919921875,-9.409416522553563,-0.4712471004232764,1.8003962476871906
1761475845123095000,2.473094970703125,-10.348928492718935,0.45612332717999815,1.4219061952859162
1761475845133072000,2.48307177734375,-11.302207706952094,0.9922495808795094,1.71800145759508
1761475845143049000,2.493049072265625,-11.388086832028627,1.235463586220145,2.1656585697248576
1761475845153025800,2.50302587890625,-10.007690458738804,1.7240024515755474,2.3496420952007173
1761475845163004000,2.51300390625,-7.773096592214703,2.050662071235478,2.1660823480948803
1761475845172981000,2.52298095703125,-4.983212775707244,2.062274329226464,1.7754867012277245
1761475845182957800,2.532957763671875,-2.0107284125149247,1.7983213411092758,1.1465564916245639
1761475845192935000,2.542934814453125,0.8675982420772314,1.524706060025096,-0.22334069948270915
1761475845202911700,2.552911865234375,3.544894959324598,1.1844449813183395,-2.0200249409094453
1761475845212888800,2.562888916015625,5.738098830839991,0.9831144535917788,-3.5058597107484935
1761475845222866200,2.5728662109375,7.120064645403623,0.9416627915237098,-4.239994946536422
1761475845232843000,2.582843017578125,7.637172456508875,0.8178009225986898,-4.093933447697759
1761475845242820900,2.59282080078125,7.595940866932272,0.27897399510573595,-3.2011434812188146
1761475845252798200,2.602798095703125,7.492858678120374,-0.37298553670085965,-1.8775949304409325
1761475845262775300,2.612775390625,7.622011712256073,-0.6406624407120048,-0.7813537908196448
1761475845272752000,2.622752197265625,7.922070763629675,-0.5952640137795359,-0.07380451027080416
1761475845282729200,2.632729248046875,8.343256779071687,-0.7192030395939946,0.3095937724381685
1761475845292706300,2.642706298828125,8.741828811645508,-1.04841789669469,0.3158868812330067
1761475845302683100,2.65268310546875,8.960726998636126,-1.294659287032485,0.056051703698188064
1761475845312660200,2.66266015625,8.965815261685847,-1.3438997032806277,-0.40453868589326736
1761475845322638000,2.67263818359375,8.864906325259804,-1.189917129119113,-0.9164860454954207
1761475845332615200,2.682615234375,8.693938348701595,-0.8893987166054547,-1.2047227032586931
1761475845342592300,2.69259228515625,8.359132393595576,-0.4065654059479013,-1.1289540533080697
1761475845352569000,2.702569091796875,7.921117992949485,0.04278247228041291,-0.7476637026637792
1761475845362546200,2.712546142578125,7.360444011840224,0.3193476892113685,-0.33424905187562104
1761475845372523000,2.72252294921875,6.775350459745526,0.5997387115081771,-0.2812237102612853
1761475845382500000,2.7325,6.36351153384149,0.8295214632697403,-0.7416862356893718
1761475845392477000,2.742476806640625,5.946609479328989,1.0229904638409615,-1.4114889922983944
1761475845402455000,2.752455078125,5.62810350163877,1.3377012870319187,-2.1239194690175354
1761475845412432100,2.76243212890625,5.422603140881657,1.5808642928376793,-2.619527542106807
1761475845422409000,2.772408935546875,5.40463902964592,1.7346638385824857,-2.898976643911004
1761475845432386000,2.782385986328125,5.382822334635257,1.9447037424653768,-2.9425016051217914
1761475845442363100,2.792363037109375,4.702977784222364,1.8712085904046891,-2.4990958668261767
1761475845452340200,2.80234033203125,3.0286253526091573,0.8570608467761427,-1.2678580816075204
1761475845462317300,2.8123173828125,0.42165129486620423,-0.8676125628635287,0.0662640317633748
1761475845472294100,2.822294189453125,-2.416556115305424,-2.3390664867810904,0.7791982202209532
1761475845482272300,2.832272216796875,-4.415682937353849,-2.1135101570755244,0.14240093050450087
1761475845492249300,2.842249267578125,-6.179748373118042,-1.6323526341430843,-0.4251894058644771
1761475845502226200,2.85222607421875,-8.437313949906825,-3.231354202826321,0.7513916371457279
1761475845512203300,2.862203369140625,-10.036717815780639,-5.481465079694986,2.308273142980039
1761475845522180000,2.87218017578125,-11.11463463255167,-6.012726503837108,3.9226673649758097
1761475845532157200,2.8821572265625,-11.213550933855771,-4.681688327956199,5.26295443071723
1761475845542134000,2.892134033203125,-10.894363403642178,-2.821708695313334,5.96317015350759
1761475845552111000,2.902111083984375,-11.209030241560935,-1.8082466689266263,6.872172419118881
1761475845562089200,2.912089111328125,-11.624347072708606,-1.2906152723386883,7.010334689140319
1761475845572066000,2.922066162109375,-12.016506315630673,-1.344216221883893,6.271937996515631
1761475845582043100,2.932043212890625,-11.884981876188515,-1.9767443098485469,5.4626428903251885
1761475845592020000,2.94202001953125,-10.480442410767077,-2.3928987608641386,4.665149281087517
1761475845601997000,2.9519970703125,-9.072510964819788,-2.4131077284172178,3.858607857519388
1761475845611974100,2.96197412109375,-7.8911092236548654,-1.8534554915711283,2.876383119308948
1761475845621951000,2.971950927734375,-6.105484867033362,-0.7227971185632049,1.6291132138304412
1761475845631929000,2.98192919921875,-3.913944544816017,-0.046785360379377375,0.7750779254205524
1761475845641906000,2.991906005859375,-1.6615677688419819,0.17806301285307854,0.3080262308605015
1761475845651883000,3.001883056640625,0.6156178696960211,0.14981321605499834,-0.366917541898787
1761475845661860400,3.0118603515625,2.456332245376706,-0.32142570106182244,-1.5461040912322699
1761475845671837200,3.021837158203125,3.495802719375491,-0.6647954498410225,-2.991031242752075
1761475845681814300,3.031814208984375,3.9360020628452297,-0.10517773631904273,-4.117417783659696
1761475845691791000,3.041791015625,3.690296532949805,0.7943895057424902,-4.516134777662158
1761475845701768200,3.051768310546875,3.2361966744214294,1.3852240857072173,-4.3146532971575855
1761475845711746300,3.061746337890625,3.7315427355736492,1.32167355068624,-3.776586576914787
1761475845721723100,3.07172314453125,5.201737453210353,0.4957330877084285,-3.3070261144042012
1761475845731700200,3.0817001953125,7.424913853663206,-0.24675155008332803,-3.4598756659477945
1761475845741677000,3.091677001953125,9.36585502872467,-0.5573658429419621,-3.7534725355699656
1761475845751654100,3.101654052734375,10.357129334831237,-0.6067867303235456,-3.4951980314806104
1761475845761631200,3.11163134765625,10.680164188122749,-0.649824821332842,-2.3171545147024095
1761475845771608000,3.121608154296875,10.912881057107448,-0.4125030158359557,-1.3928355836242436
1761475845781585200,3.131585205078125,11.0816021315217,0.607907003057748,-1.1649489112749696
1761475845791563000,3.14156298828125,10.681550674045086,0.9794591459546238,-0.7239490650773048
1761475845801540000,3.1515400390625,10.224926849997043,0.8026460235647856,0.06086787180826068
1761475845811517200,3.16151708984375,9.867059168255329,0.88674031105116,0.5274567711621523
1761475845821494000,3.171493896484375,9.356517876058817,1.2925059083908796,0.621388269791007
1761475845831471000,3.18147119140625,8.80501095174551,1.700757477327436,0.5835448613479733
1761475845841448200,3.1914482421875,8.648591140499711,2.0506405900560316,0.4953403620637953
1761475845851425300,3.20142529296875,9.299679552027582,2.098292860329896,0.13487316534817217
1761475845861402000,3.211402099609375,9.962646032875776,1.8101061791881918,-0.19776216772049665
1761475845871380000,3.2213798828125,9.882588745820522,1.4836279074445367,-0.26634908947348596
1761475845881357300,3.231357421875,9.083420481368899,1.2835637463919818,0.019747049129754304
1761475845891334100,3.241334228515625,7.756558714389801,1.0455273628849535,0.13906177614443002
1761475845901311200,3.251311279296875,5.530856010329723,0.9955248031578957,-0.04744008882790804
1761475845911288000,3.2612880859375,2.8659909046322105,1.3256981300272046,-0.24639358522482216
1761475845921265200,3.27126513671875,0.3264905467033386,1.8282286958560348,-0.3214773216512054
1761475845931242200,3.2812421875,-1.9665514171361922,2.254361958441883,-0.18364954428113997
1761475845941219000,3.291218994140625,-4.088408546796441,2.484561437778175,0.508046625836566
1761475845951197200,3.301197265625,-5.839284830641746,2.080472103087604,1.4870733717232942
1761475845961174300,3.31117431640625,-7.44734137404859,1.0404591927751898,1.9969962397605179
1761475845971151000,3.321151123046875,-9.753239896851778,0.10253105773515998,1.4463207978352903
1761475845981128200,3.331128173828125,-13.27623165192604,-0.7863570789996535,0.5057871564719826
1761475845991105000,3.34110498046875,-16.68163864558339,-1.4018854437813162,-0.09499342877194285
1761475846001082000,3.35108203125,-18.017372870326042,-1.257956719187647,0.29421372287888076
1761475846011059000,3.361058837890625,-16.3671436571002,-1.083650684247911,2.1413116255842146
1761475846021036000,3.3710361328125,-13.925752375745773,-0.7231102761656045,2.8704359013423324
1761475846031014100,3.38101416015625,-11.77104336231947,-0.8379844634495675,2.276991577270627
1761475846040991000,3.390990966796875,-11.138498323220015,-2.5180197630047796,1.5844254924505947
1761475846050968000,3.400968017578125,-12.557323503625392,-3.244651783555746,0.14816795133231206
1761475846060945200,3.410945068359375,-13.855340868914126,-3.039560588121414,-1.4667381474420427
1761475846070922200,3.420922119140625,-14.404742345380782,-1.9222227383270858,-2.1710000768832862
1761475846080899300,3.4308994140625,-14.42707108156681,-0.11190401236675679,-2.4697949535399673
1761475846090876200,3.440876220703125,-14.432626377606391,0.5460695920975879,-2.7158523656129834
1761475846100853200,3.450853271484375,-13.33369249176979,0.41489290664717554,-2.7133661017552018
1761475846110831000,3.4608310546875,-10.17994789058566,0.03628998672226444,-1.0889225602362305
1761475846120808200,3.47080810546875,-5.576939716112613,-0.15335691654384134,0.6971077468376606
1761475846130785300,3.480785400390625,-1.4525556005716322,-0.15508901929976418,1.0765954319741575
1761475846140762000,3.49076220703125,1.1580126822710037,-0.24876687196111305,0.7758356119200587
1761475846150739200,3.5007392578125,2.5646114183098074,-0.3458353351751342,0.5366893674749881
1761475846160716000,3.510716064453125,3.9806677185237405,-0.0910393482507672,0.04511218473645858
1761475846170693000,3.520693115234375,5.093915960916877,0.2730359285599552,-0.30938341762311755
1761475846180670000,3.530669921875,5.7722074366688725,0.2409493848768994,-0.06642170654311776
1761475846190648000,3.54064794921875,6.478872773990035,-0.3309238529756665,0.19176745735034345
1761475846200625200,3.550625244140625,7.482697934111952,-0.901271013772115,0.3548083672363311
1761475846210602000,3.56060205078125,8.726951560509205,-1.3556800113148986,0.489541429994069
1761475846220579000,3.5705791015625,10.05861049863696,-1.8234687879778444,0.40348811739441004
1761475846230556200,3.58055615234375,11.046916602587698,-2.2509863445289433,-0.1703443647671491
1761475846240533000,3.590532958984375,11.454971333777904,-2.6918440057769417,-0.8603808580443263
1761475846250510300,3.60051025390625,11.33599307217598,-2.822374758006632,-1.1264208815686405
1761475846260487200,3.610487060546875,10.30611694047451,-2.593717978067696,-1.1048670752778649
1761475846270465300,3.62046533203125,8.570701845133303,-2.275346440412104,-1.0003132064782083
1761475846280442400,3.6304423828125,7.489418766799568,-2.1375141329973935,-0.8347633094459772
1761475846290419500,3.64041943359375,7.347482238936424,-1.9385818985842167,-0.2611318662818521
1761475846300396500,3.650396484375,7.59969349746406,-1.7168818059153854,0.1435003796463832
1761475846310373400,3.660373291015625,8.09830469789207,-1.343061791151762,0.31233130764327943
1761475846320350500,3.6703505859375,8.66631150610745,-0.9203739928446709,0.5230746836204081
1761475846330327300,3.680327392578125,8.838030008772016,-0.48014630006328224,0.4258225161362439
1761475846340304400,3.690304443359375,8.510275725743174,0.11235977504393085,0.15080670233806595
1761475846350282500,3.700282470703125,7.982617879050969,0.558176099878922,-0.21111904088910668
1761475846360259300,3.71025927734375,7.556677362558245,0.5910567713480442,-0.7947137692607938
1761475846370236400,3.720236328125,7.064025362795591,0.41681086909770965,-1.4754185897648333
1761475846380213500,3.730213623046875,6.203999601799249,0.34986638078950344,-1.6475642318002879
1761475846390190300,3.7401904296875,5.0460126384913915,0.43955666165202856,-1.2716764708518982
1761475846400167400,3.75016748046875,3.687916944336891,0.761138320460543,-1.227606735239923
1761475846410144300,3.760144287109375,1.5952175200998782,1.0125465189769864,-1.1592870861209927
1761475846420121300,3.770121337890625,-0.8779770127505063,0.9560912029139697,-0.5692399667395278
1761475846430099500,3.780099365234375,-3.2784453320860862,0.8115137320879846,-0.08826605674568563
1761475846440076300,3.790076171875,-5.122656902232766,0.1607091059375554,0.19302748561510816
1761475846450053400,3.800053466796875,-7.315946113944054,-0.7906694623060524,-0.8430486149713396
1761475846460030200,3.8100302734375,-10.556652374744415,-1.5307780734151601,-3.1098239186540244
1761475846470007300,3.82000732421875,-14.803171170091629,-1.7457801297500728,-4.361959530472755
1761475846479984400,3.829984375,-18.9569988222599,-1.4119358592830598,-3.266192291973531
1761475846489961500,3.83996142578125,-19.85904703094959,0.42719431594610213,-2.1619423256807027
1761475846499938600,3.8499384765625,-17.920406534045934,1.9451070625692606,-0.8213204019617288
1761475846509916400,3.85991650390625,-15.914076064229011,0.07774360328540206,1.1749559260264038
1761475846519893500,3.8698935546875,-14.636153392463921,-1.9298060330629347,0.6897833952989428
1761475846529870300,3.879870361328125,-14.171999757432937,-3.1376018601566553,-0.6931441039036959
1761475846539847400,3.889847412109375,-13.569924675399065,-3.6544805386811494,-1.5122322167687117
1761475846549824500,3.899824462890625,-12.28393793964386,-3.125343851608038,-1.8008090662717817
1761475846559801300,3.90980126953125,-10.645353571504353,-2.4192381939962506,-1.6474053879767656
1761475846569778400,3.9197783203125,-8.864194962120056,-2.474795246045291,-0.8363662876632064
1761475846579755300,3.92975537109375,-7.097453000622988,-2.995444383019209,0.15672010936662553
1761475846589733400,3.9397333984375,-6.222739373582601,-2.7589526716709134,0.49310661166235803
1761475846599710500,3.94971044921875,-4.829050972521305,-1.7420877049729226,0.6660127166762948
1761475846609687300,3.959687255859375,-2.4243168124347925,-1.0984878956347703,1.0094096822559833
1761475846619664400,3.969664306640625,0.7520435251832008,-0.4430710264485329,0.9810009685691445
1761475846629641200,3.97964111328125,3.6910979124605654,0.2072227275703102,0.8652288825973868
1761475846639618300,3.989618408203125,5.345227055734395,0.6467183066848665,1.2709610160589218
1761475846649595400,3.999595458984375,5.969686988055706,1.1037221430264412,2.391761573527753
1761475846659572500,4.009572509765625,5.859482400017977,1.3340221601277589,3.724987322580814
1761475846669550300,4.01955029296875,5.6085442301660775,0.8149043243743479,4.662245084078609
1761475846679527200,4.029527099609375,5.790859530168771,-0.18573162951851263,4.496276523242891
1761475846689504500,4.03950439453125,6.665854312238097,-1.0216434331461786,3.4984950271993873
1761475846699481600,4.049481689453125,7.772111672830581,-1.5511159280449152,2.27772734419927
1761475846709458400,4.05945849609375,8.555972478035091,-1.8046577045239507,1.642313033273816
1761475846719435500,4.069435546875,8.760316069972514,-1.9733828705914318,1.5753328160651028
1761475846729412400,4.079412353515625,8.628332780846954,-2.0076859760791064,1.7014100960172711
1761475846739389400,4.089389404296875,8.393970482742786,-1.8511627044588326,1.9033806752130389
1761475846749366300,4.0993662109375,8.304820957693456,-1.629561980511248,2.1178733207210896
1761475846759344400,4.109344482421875,8.42460644402504,-1.3482058760419486,2.2179387920603153
1761475846769321500,4.119321533203125,8.508672966721653,-1.1026737299520522,2.3007572143919766
1761475846779298300,4.12929833984375,8.604732709550857,-0.9467666905339807,2.406542378552258
1761475846789275400,4.139275390625,8.853708639419079,-0.7631694609619677,2.2835585345707834
1761475846799252200,4.149252197265625,9.512086038911342,-0.5892293001925573,1.654627740445733
1761475846809229300,4.159229248046875,10.28871689286232,-0.5087231368586421,0.8789077177293598
1761475846819206400,4.169206298828125,10.969532918655872,-0.38879743833877145,0.3234536997580901
1761475846829183200,4.179183349609375,11.394155338287353,-0.2796347971020266,-0.0032824009378440676
1761475846839161300,4.189161376953125,11.254933914601802,-0.1025695996472612,-0.059540787922963495
1761475846849138400,4.199138427734375,10.663407114589214,0.19295606434671206,-0.060711201675515615
1761475846859115300,4.209115234375,9.49448550029099,0.5692850845228881,-0.21522519756630062
1761475846869092400,4.21909228515625,7.881951519209146,0.8390296616535633,-0.5001779748206958
1761475846879069400,4.2290693359375,6.419596993678808,1.106606174030155,-0.7255297583974898
1761475846889046500,4.239046630859375,5.092397957569361,1.484184956805408,-0.8052303409695625
1761475846899023400,4.2490234375,3.5361376523733137,1.4689897257611155,-0.7026655270952731
1761475846909000400,4.25900048828125,1.55416537874341,0.8721938993044197,-0.8399966800548135
1761475846918978600,4.268978515625,-1.4409201078355311,0.4516502734191715,-1.7956876316048205
1761475846928955400,4.278955322265625,-5.361058831116557,0.38610253669898953,-2.1973773578077553
1761475846938932500,4.288932373046875,-9.492502802041173,0.4051546988997608,-2.1947933326639233
1761475846948909300,4.298909423828125,-12.750800249111652,0.3853972745064646,-2.296882711046189
1761475846958886400,4.308886474609375,-14.815096585685014,-0.6078329149082302,-1.977099991418421
1761475846968863500,4.318863525390625,-15.362060605871676,-3.2473850079119204,-0.7549611661955714
1761475846978841300,4.32884130859375,-13.336888657462596,-3.096878220102191,-2.4021054190181195
1761475846988818400,4.338818359375,-10.872170276534558,0.7084776474401354,-5.252095767572522
1761475846998795300,4.348795166015625,-10.198516981977225,2.1514538110226393,-5.124382410851121
1761475847008772400,4.3587724609375,-12.020035658800602,2.1094009681910277,-3.4946120482861995
1761475847018749400,4.36874951171875,-13.918766170120238,2.5843235422566533,-2.3338924451440572
1761475847028726300,4.378726318359375,-15.672140116000175,2.446061611253023,-2.223049120811373
1761475847038703400,4.388703369140625,-16.808628364205358,1.3773679653793574,-3.079288787397742
1761475847048680200,4.39868017578125,-15.444039800900219,0.6752168175470084,-4.268278791734576
1761475847058658300,4.408658203125,-13.07568686774969,-0.03640391369182616,-4.375257987985015
1761475847068635400,4.418635498046875,-10.743944878637791,-1.5100518039897084,-2.739994580961764
1761475847078612200,4.4286123046875,-7.457247851034999,-2.259225765085965,-0.8167647114187478
1761475847088589300,4.43858935546875,-3.7061931902617213,-1.5054149379692972,0.4461754952698946
1761475847098566400,4.44856640625,-0.3220955266147852,-0.1232695838539861,1.1751776059530674
1761475847108543500,4.45854345703125,1.6662240702152251,0.7912738579399883,1.735456158003956
1761475847118520600,4.4685205078125,2.5194313833683726,1.194224324793741,2.283436077234894
1761475847128497400,4.478497314453125,3.0208780994832516,1.4153645185574888,2.4425471733912825
1761475847138475500,4.4884755859375,3.1387370016664264,1.1413273587994277,2.6629844065174457
1761475847148452400,4.498452392578125,3.179227417486906,0.3487571043733507,2.926315317213535
1761475847158429400,4.508429443359375,3.705707452571392,-0.49442704661116,2.6453888363331557
1761475847168406500,4.518406494140625,4.759983281514049,-1.2540195258691906,1.7402777329415082
1761475847178383400,4.52838330078125,6.285708163192868,-1.843805181302875,0.8950630259774625
1761475847188360400,4.5383603515625,7.687099393716454,-2.2766771044939755,0.5816318308008834
1761475847198337300,4.548337158203125,8.113659503412245,-2.455642509546876,0.7012585829067974
1761475847208314400,4.558314453125,7.917015818327664,-2.477885905537009,0.9588504384942352
1761475847218292500,4.56829248046875,7.646534743615985,-2.3944788696624335,0.9330458428911864
1761475847228269300,4.578269287109375,7.2915271274805065,-2.3061866920948026,0.4557713719371706
1761475847238246400,4.588246337890625,7.156388589194417,-2.1774235340595243,0.01908577220942825
1761475847248223200,4.59822314453125,7.235259881335496,-1.8718901429280637,-0.17370187676781787
1761475847258200300,4.608200439453125,7.464204830566048,-1.5610514849953352,-0.39817528834119437
1761475847268177000,4.618177001953125,7.56474318011403,-1.4807155271291732,-0.7257634210228919
1761475847278153700,4.62815380859375,7.645332382088899,-1.077327180314809,-0.7491791487280279
1761475847288130800,4.638130859375,7.884758393323421,-0.4223449396861717,-0.6027489627074449
1761475847298109000,4.64810888671875,8.158805636084079,0.16127773613836616,-0.16899726100713014
1761475847308085800,4.658085693359375,8.20830119613707,0.7479389394085854,0.368884677253291
1761475847318062800,4.668062744140625,7.831755701932311,1.3559908308297395,0.8098146000199019
1761475847328039700,4.678039794921875,6.995612920826673,1.8781154471836983,0.9154178317420184
1761475847338016800,4.688016845703125,5.731410146856308,1.9883451696626842,0.5306717146206646
1761475847347993600,4.69799365234375,4.260446198412776,1.81614282900393,-0.009853182746458333
1761475847357970700,4.707970703125,2.7131892838835716,1.8652754009634256,-0.6368152637645602
1761475847367947800,4.71794775390625,0.13706103078126908,1.766822625517845,-1.6394935919389129
1761475847377924600,4.727924560546875,-2.9007173500984904,1.1678111688382924,-2.3377235477395355
1761475847387902700,4.73790283203125,-5.022933376199007,0.6546760607562959,-2.3521368346258997
1761475847397879800,4.7478798828125,-6.258511528709531,0.6816950005851685,-1.7861537873230873
1761475847407856600,4.757856689453125,-7.320019062471389,0.3367825158759951,-0.36763376387674357
1761475847417833700,4.767833740234375,-8.554120128166675,-0.43429727981910105,1.0290008101716637
1761475847427810600,4.777810546875,-10.649852051967382,-0.22929829271286725,0.6174338330768049
1761475847437787600,4.78778759765625,-14.437136548507214,-0.23900880873575805,0.7911131144203245
1761475847447764700,4.7977646484375,-15.178242500090597,-1.9292095284745097,1.9176555765420198
1761475847457741800,4.807741943359375,-11.08089602907896,-1.0543503554835916,0.4051102387035265
1761475847467719700,4.8177197265625,-7.595212552657723,-0.9363128818631171,1.0527796721007674
1761475847477696800,4.82769677734375,-5.269610381475091,-2.743967868506908,2.4287675082333386
1761475847487673900,4.837673828125,-3.2337679859697817,-3.2051836965203284,2.206425610529631
1761475847497650700,4.847650634765625,-2.9146657959520814,-2.796300990073383,1.6644167285323141
1761475847507627800,4.857627685546875,-4.437984201011061,-2.1448498827129603,0.9072640436418354
1761475847517604900,4.86760498046875,-6.542345421469212,-1.4105682241916655,0.011913323296792804
1761475847527581700,4.877581787109375,-7.706603720131516,-0.5785739410676062,-1.15104883460775
1761475847537558800,4.887558837890625,-7.795993483677506,0.16962050747200846,-2.2386522020041943
1761475847547536600,4.89753662109375,-6.647852791601419,0.8341517534188926,-2.765326006095111
1761475847557513700,4.907513671875,-4.053667488282919,1.2762709590353072,-2.4996155067861077
1761475847567490800,4.91749072265625,-0.9899521175920962,1.7595972043089567,-1.8118106450185179
1761475847577467600,4.927467529296875,1.5415835450679063,2.296262679451704,-0.7591284419428557
1761475847587444700,4.93744482421875,2.9434248574465514,2.710152400405705,0.6140947517819703
1761475847597421600,4.947421630859375,3.527127247443795,3.1918469528242945,1.813546382769942
1761475847607398700,4.957398681640625,3.4395500862777233,3.352426514098048,2.7116636817514896
1761475847617375500,4.96737548828125,3.176660781869292,3.028176439797878,3.1584631541386243
1761475847627352800,4.977352783203125,3.448248356518149,2.4836796865075823,3.0383246165856717
1761475847637330700,4.98733056640625,4.024637208631635,1.703231904616952,2.557916889107227
1761475847647307500,4.9973076171875,4.738152557978034,0.8985599281825125,2.126854061164707
1761475847657284900,5.007284912109375,5.391159954869747,0.11344576191604137,1.7753908396378157
1761475847667262000,5.017261962890625,5.860194932201504,-0.5766298212625086,1.4691367330163716
1761475847677238800,5.02723876953125,6.139487089878321,-0.9730746325492858,1.2555655862674115
1761475847687215900,5.0372158203125,6.39738107021749,-1.1006066413544118,1.2102375211574137
1761475847697192700,5.047192626953125,6.743329181584715,-1.0637480061650275,1.3120190026342868
1761475847707169800,5.057169677734375,7.181773790341615,-0.9838033857040107,1.373552498744428
1761475847717148000,5.06714794921875,7.7940142925590274,-0.6908516821175813,1.305347269785404
1761475847727124700,5.077124755859375,8.242624906021357,-0.2691979030333459,1.1710473012153058
1761475847737101800,5.087101806640625,8.180787166267633,0.04626768404766917,1.1243224479846656
1761475847747078700,5.09707861328125,7.598679936507343,0.35792774136587974,0.7499635771039873
1761475847757055700,5.1070556640625,6.8535553969323635,0.68627575250417,0.16548764545097946
1761475847767032600,5.117032470703125,6.407376394531131,0.8208125255048274,-0.10466185921877622
1761475847777009700,5.127009765625,6.253860488033294,0.8283549037083983,-0.5842823087770491
1761475847786986800,5.13698681640625,6.142655198520422,0.8530966923855244,-1.3762635112687944
1761475847796964600,5.146964599609375,5.655454449900985,0.8736297773264348,-1.6129349630981682
1761475847806941700,5.156941650390625,4.876635145995021,0.9096041770271956,-1.2076330377474427
1761475847816918500,5.16691845703125,4.176824496874213,0.8106732626758515,-0.7362941673874854
1761475847826895600,5.1768955078125,2.67206875346601,0.23589272254183888,-0.16352244632523505
1761475847836872700,5.186872802734375,0.5119008901119232,-0.5041352245464921,0.26388215137068183
1761475847846849800,5.196849853515625,-2.0571528945595023,-1.1782786407083272,0.04733671065182425
1761475847856827000,5.206826904296875,-4.608578083559871,-1.9019082645729184,-0.11818681896328925
1761475847866803700,5.2168037109375,-6.082665132459998,-3.280105374252796,0.6158901838313788
1761475847876781800,5.22678173828125,-7.569158658468723,-4.465908857508003,1.7582557265721261
1761475847886759000,5.236759033203125,-10.70392149580717,-4.033839044480025,2.5073592527806756
1761475847896735700,5.24673583984375,-13.712447478717564,-3.3622239777520297,4.023855410604178
1761475847906712800,5.256712890625,-14.905123478090763,-2.728268487332761,4.455418735414743
1761475847916689700,5.266689697265625,-13.982261613953114,-1.4143492040351033,4.037205598303675
1761475847926666800,5.276666748046875,-11.744258231246471,-1.0846958093866705,4.070483014005422
1761475847936643800,5.286643798828125,-9.167226307302712,-0.8216776179015636,2.700387085455656
1761475847946620700,5.29662060546875,-8.73689778498411,-0.29021950214356185,0.31525530533120033
1761475847956597800,5.30659765625,-10.278616354608536,-0.34248511143177746,-0.8654987855799495
1761475847966575600,5.31657568359375,-10.930283442807196,-0.99685502884835,-0.8283727316260338
1761475847976552700,5.326552734375,-9.755220841535925,-1.9786057198062539,-0.3878541661392897
1761475847986529800,5.33652978515625,-8.185653310999275,-2.7808906549736854,-0.011096673151664436
1761475847996506600,5.346506591796875,-6.893725494757295,-2.543468969298899,-0.1459712267393246
1761475848006483700,5.356483642578125,-4.862170567312837,-1.4432693013101816,-0.30488665419314054
1761475848016460500,5.36646044921875,-2.1669120769172907,-0.2744637146070599,-0.11340292742131278
1761475848026437600,5.376437744140625,0.43776656336486336,0.7889490682542324,-0.1295118483775761
1761475848036414700,5.386414794921875,2.264009346100688,1.5810858266338705,0.11638145917491055
1761475848046392600,5.396392578125,3.479885019275546,2.292454957731813,0.39397717906422913
1761475848056369700,5.40636962890625,4.286942575672269,2.938277557685971,0.24123923466894776
1761475848066346800,5.4163466796875,4.524337957862019,2.9776863157495854,0.1567657386066392
1761475848076323800,5.42632373046875,4.522760333281755,2.4094614808693526,0.31108539923541245
1761475848086300700,5.43630078125,4.964774617218971,1.8380514400817454,0.43389348479118195
1761475848096277800,5.44627783203125,5.906732226970791,1.3431293034300207,0.425199415801838
1761475848106254800,5.4562548828125,6.725728058442473,0.8380322481140494,0.5800348804656416
1761475848116231700,5.466231689453125,7.3542661999881265,0.4170391248956322,0.8041697260007262
1761475848126208800,5.476208740234375,7.961045514190197,0.07087517882063984,1.0889666916389018
1761475848136187000,5.486186767578125,8.192546577644348,-0.32278409340083597,1.2988912255138159
1761475848146163700,5.496163818359375,7.967986711630225,-0.6989524248562753,1.4381642332561313
1761475848156140800,5.506140869140625,7.543094242885708,-0.860331904336065,1.5281977015331387
1761475848166117600,5.51611767578125,7.255809332889318,-0.8875583494357764,1.6848181499175727
1761475848176094700,5.5260947265625,7.155745030593872,-0.8496810387231409,1.7040188172109425
1761475848186071600,5.536071533203125,7.131682017961144,-0.6992310956671833,1.3727302225761115
1761475848196048600,5.546048583984375,7.280612350234389,-0.5885780332095921,0.9272970701061188
1761475848206025700,5.556025634765625,7.494994521105289,-0.5068004982329904,0.3914112010337412
1761475848216003600,5.566003662109375,7.83231684294641,-0.35588016118630766,-0.33455946953166277
1761475848225980700,5.575980712890625,8.013581172591447,-0.27058278152048587,-0.8758641122497618
1761475848235957500,5.58595751953125,7.985407802030443,-0.11433613488450646,-0.7812031303025782
1761475848245934800,5.595934814453125,7.808831337940693,0.22025237807855008,-0.3042158057268709
1761475848255912000,5.605911865234375,7.458434430471062,0.7244879942595959,0.40371882087774574
1761475848265889300,5.61588916015625,6.563883884060383,1.1297035565011202,0.8407699294496327
1761475848275866400,5.625866455078125,4.519253786465526,1.3566164153821765,0.3852296263219788
1761475848285843500,5.635843505859375,1.5108575674146414,1.5490905596971511,-0.13615440993090158
1761475848295821300,5.6458212890625,-1.713102725768089,1.3172754618577658,-1.2581360212773083
1761475848305798400,5.65579833984375,-4.662915822947025,0.38442426475584507,-1.4491811557024716
1761475848315775500,5.665775390625,-6.895872443658113,-1.0496677506253123,-0.003917203126486856
1761475848325752300,5.67575244140625,-8.352454815527796,-1.7772659858599305,0.4517276495043188
1761475848335729400,5.6857294921875,-10.057150362956524,-1.0346858700707555,-0.4803437223315239
1761475848345706500,5.69570654296875,-12.475595653009414,-0.8064277340605854,-0.6636080666873604
1761475848355683300,5.705683349609375,-14.548897133815288,-1.2779764477789402,-0.08639243576037697
1761475848365660400,5.715660400390625,-14.901606994402409,-1.9115294948771595,1.0000460069093853
1761475848375638300,5.72563818359375,-13.430181858187913,-1.2474942157536744,0.9941965502288191
1761475848385615400,5.735615478515625,-12.055707860684395,0.0780146753117442,1.3386401753172277
1761475848395592400,5.745592529296875,-10.741902559155225,-0.6633706777349114,2.8740064533054825
1761475848405569300,5.7555693359375,-9.764581959599257,-1.9859040601208804,4.276915102654695
1761475848415546400,5.76554638671875,-9.555913490200043,-2.0343959960892795,4.353280549454689
1761475848425523200,5.775523193359375,-9.48723099911809,-2.1550901216983793,3.8023099239751694
1761475848435500300,5.785500244140625,-8.776244291466474,-3.021152532510459,3.2332103520870206
1761475848445477000,5.79547705078125,-7.128904954463243,-3.367667337849736,1.615209045509994
1761475848455454500,5.805454345703125,-4.948920045483112,-2.9143671052664515,0.10613903736555948
1761475848465432300,5.815432373046875,-2.871905681633949,-2.273987134757638,-0.17013181799501179
1761475848475409200,5.8254091796875,-1.083980646854639,-1.2255667538449166,0.03198193253111094
1761475848485386500,5.835386474609375,0.5398778613179922,0.23734189843684433,0.22431465908139941
1761475848495363300,5.84536328125,2.2796821315288542,1.641044913034141,0.30211401114203035
1761475848505340400,5.85534033203125,3.9436113688051697,2.3529314921349287,0.3637352586008608
1761475848515317500,5.8653173828125,5.1630339208066465,2.587540750737488,0.26165351553577926
1761475848525294300,5.87529443359375,5.769905589467287,2.453715925398469,-0.03718940151371061
1761475848535271400,5.885271484375,5.872354156550765,2.057656898558885,-0.5010373315963894
1761475848545248300,5.895248291015625,5.920462646159529,1.3902096190348268,-0.652528381203115
1761475848555226400,5.905226318359375,6.158533151131868,0.6552702272571623,-0.4476007057674229
1761475848565203500,5.915203369140625,6.797270615130662,0.19820523531287906,-0.37286578277871013
1761475848575180300,5.92518017578125,7.614005515933036,-0.0058517947681248185,-0.371531100108847
1761475848585157400,5.935157470703125,8.345234216624497,-0.2193681425899267,-0.5646945783948526
1761475848595134200,5.94513427734375,8.80075972404182,-0.6401023226112127,-0.6203143569491804
1761475848605111300,5.955111328125,8.95027574724853,-1.0859159988313913,-0.36257377707343547
1761475848615088400,5.96508837890625,8.9488378233999,-1.2990671666026115,-0.24985574491005388
1761475848625065200,5.975065185546875,8.788312914922832,-1.4191760396696627,-0.2954321952905506
1761475848635043300,5.985043212890625,8.720590208783745,-1.3657517618656159,-0.25315800132583827
1761475848645020200,5.995020263671875,8.765250019243359,-1.1757317327044903,-0.1333699211783707
1761475848654997200,6.004997314453125,8.506866794082521,-0.97275446068421,-0.1045017732862383
1761475848664974300,6.014974365234375,8.117803179088234,-0.5737034124217927,-0.024680012019909915
1761475848674951400,6.024951416015625,7.918376585286855,-0.183469000082463,0.19419230987709016
1761475848684928500,6.034928466796875,7.993259684574603,0.1404468738272786,0.17740949911409987
1761475848694905300,6.0449052734375,8.120511853525041,0.4239076954908669,0.19565155050838365
1761475848704882400,6.05488232421875,7.906625357216596,0.6566714723572135,0.43201453917678445
1761475848714860500,6.064860595703125,7.090113159254193,0.9773173846855759,0.8518561908051371
1761475848724837400,6.07483740234375,5.658133313721418,1.1854440022930501,1.0228224868629128
1761475848734814500,6.084814453125,3.8131133498013017,1.466591286317259,-0.07525228879316709
1761475848744791300,6.094791259765625,1.8853250863015651,1.6078179123453795,-1.2985494263388215
1761475848754768400,6.104768310546875,0.018724574214220045,1.3742302518755196,-1.0885917208466678
1761475848764745200,6.1147451171875,-1.2657388974964618,1.193003623892367,-0.5913717555813491
1761475848774722300,6.124722412109375,-2.366131165447831,0.996177129586786,-0.2773840225005522
1761475848784699400,6.134699462890625,-3.837614753851294,0.6786733146764338,0.40650300823617724
1761475848794676200,6.14467626953125,-5.465301295879483,0.4487175809681415,0.9030057286102324
1761475848804654300,6.154654296875,-7.226041386613249,0.036434126166999335,0.9062208912644535
1761475848814631400,6.16463134765625,-9.759531690472365,-1.2259104527160525,2.178429496231675
1761475848824608300,6.174608154296875,-11.866895599877834,-2.877667021639645,4.618339891378581
1761475848834585300,6.18458544921875,-12.252067468130587,-2.517349316397309,5.798673418790101
1761475848844562200,6.194562255859375,-12.40128421612978,0.6315609964981674,4.906898766833543
1761475848854539500,6.20453955078125,-13.061230472373962,1.833461335812509,3.7595077240809798
1761475848864516400,6.214516357421875,-14.490436761540174,0.7278910807013511,2.410048340846598
1761475848874493400,6.224493408203125,-15.527334170180557,-0.02550561265647411,0.4756975770261138
1761475848884470500,6.234470458984375,-15.124609109580517,-0.7864926150128245,-1.288195351715386
1761475848894448400,6.244448486328125,-12.877625132560729,-1.2699828186765312,-2.1572806174799797
1761475848904425500,6.254425537109375,-9.22120573477149,-1.0705652849644423,-3.032174569523334
1761475848914402300,6.26440234375,-6.090377898794412,-1.00796123701334,-3.18522461207509
1761475848924379400,6.27437939453125,-4.109066719421744,-1.2066557171478867,-1.55928491371423
1761475848934356500,6.2843564453125,-2.57995628695786,-0.6102987204998731,-0.33111221515461803
1761475848944333300,6.294333251953125,-1.256236325135827,0.3480415765151381,0.4776839285377413
1761475848954310400,6.304310302734375,0.05627426040768623,1.164084403400123,0.911672288538143
1761475848964287200,6.314287353515625,1.089862690630555,1.5599997839853166,0.7653972200140357
1761475848974265300,6.324265380859375,1.399756322798133,1.6193879386298358,0.1072600590184331
1761475848984242400,6.334242431640625,1.1750970880627631,1.3840046269148587,-1.0446860897552221
1761475848994219300,6.34421923828125,0.7013011799395084,1.4112344330154358,-2.0735148312956095
1761475849004196400,6.3541962890625,0.6432002886265515,1.4902555088907479,-2.0470316057786344
1761475849014173200,6.364173095703125,1.1156477047502993,1.1133089596044272,-0.9582326719220727
1761475849024150300,6.374150390625,1.8942653486043213,0.5677718669483438,0.12217479262091219
1761475849034127400,6.38412744140625,3.0028192957013844,0.02584631585292518,0.49521118272617454
1761475849044104400,6.3941044921875,4.226372079375386,-0.6302434841588139,0.24390374117046593
1761475849054081500,6.40408154296875,5.643356015828251,-1.2619305912546812,-0.3672502809844911
1761475849064059100,6.41405908203125,7.104842526352405,-1.9257805769391356,-1.0429468448724597
1761475849074036500,6.424036376953125,8.162219243919848,-2.6253762681350112,-1.1566204972602427
1761475849084013600,6.434013671875,8.89199423867166,-3.0332164797917005,-0.7869128862515091
1761475849093990400,6.443990478515625,9.351190543556212,-3.030516865444183,-0.33574045947715636
1761475849103967500,6.453967529296875,9.579241174295545,-2.828760367390513,0.2696555106077343
1761475849113944300,6.4639443359375,9.669076343521475,-2.4604607234835623,0.9612046734701841
1761475849123921400,6.47392138671875,9.553834930360317,-2.017578716801107,1.5421163367703556
1761475849133898200,6.483898193359375,9.295983035597205,-1.5170653360135853,1.9113246199548244
1761475849143876400,6.49387646484375,9.167754130569099,-0.8783242918182164,2.129818025536835
1761475849153853400,6.503853515625,8.92332753456831,-0.4283580259632319,2.1919695074148473
1761475849163830300,6.513830322265625,8.667038651338219,-0.14375439094007014,2.1129377640150486
1761475849173807400,6.523807373046875,8.282931197446585,0.00035955402739346027,1.9590558006837964
1761475849183784200,6.5337841796875,7.592305725300312,0.13351261758469044,1.483490837061405
1761475849193761300,6.54376123046875,6.596642244324087,0.2761621890880167,0.9726568455286323
1761475849203738400,6.55373828125,5.375390723329782,0.3821218330323696,0.4735136571157723
1761475849213715200,6.563715087890625,3.796282626509666,0.4697766625445336,-0.16108312688171864
1761475849223692500,6.573692626953125,1.458231308120489,0.7430057207901031,-0.35702385132871567
1761475849233670100,6.583670166015625,-1.5578963819652796,0.9520691077910363,-0.15076452543046326
1761475849243647200,6.593647216796875,-4.2650323571592565,0.998451358129084,0.18615805650334805
1761475849253624300,6.603624267578125,-5.702420783737302,0.9561638297587632,0.49105651073213663
1761475849263600600,6.6136005859375,-6.85924980918169,0.3158049020379782,0.739211077747494
1761475849273577500,6.623577392578125,-9.529141218608617,-1.3918785751603544,1.3749134118340909
1761475849283554600,6.633554443359375,-13.201800972580909,-2.9927684418082237,1.6243806323505936
1761475849293531400,6.643531494140625,-16.024682803326844,-3.3905952089726923,1.3698855006694792
1761475849303508500,6.653508544921875,-17.584681710529328,-3.2144790558710694,1.8605780369274316
1761475849313485300,6.6634853515625,-17.565661368238924,-1.465365105523169,2.1961931164592503
1761475849323463400,6.67346337890625,-16.03283688368797,-0.3063511372551322,2.3434159141622484
1761475849333440500,6.6834404296875,-14.845179589259624,-1.053730177758634,2.015177354747802
1761475849343417300,6.693417236328125,-13.853781364512443,-1.7946452829450368,0.46835013687275345
1761475849353394400,6.70339453125,-11.792857719242573,-2.1427529104337095,-1.5022843848586083
1761475849363371300,6.713371337890625,-9.410825220307707,-2.6012293766111134,-2.0673088162623343
1761475849373348400,6.723348388671875,-7.000643316209316,-2.7380791027292606,-1.3992553875386715
1761475849383325700,6.73332568359375,-4.541141793146729,-2.5589362952828405,-0.4949008381353691
1761475849393302500,6.743302490234375,-2.4160972656220197,-2.444828562326729,0.20263116199634967
1761475849403279600,6.753279541015625,-0.4427016816794872,-2.116496479409933,0.5142331324517727
1761475849413257500,6.763257568359375,1.4923638793468474,-1.5441998650461435,0.484102344212681
1761475849423234600,6.773234619140625,3.0304806250870224,-1.0723606439486146,0.2545227503404021
1761475849433211600,6.783211669921875,4.013912400999665,-0.7352833829097449,-0.050491914146579796
1761475849443188500,6.7931884765625,4.583075978034734,-0.27418036762103437,-0.442050743490085
1761475849453165600,6.80316552734375,4.935545015603304,0.3394360991246998,-1.1843961737405508
1761475849463142400,6.813142333984375,5.3361190356493,1.0065100152917206,-1.8902853390574454
1761475849473119500,6.823119384765625,5.738162543725967,1.4259412960208953,-1.954060915005952
1761475849483096300,6.833096435546875,5.904897997280955,1.273871204417199,-1.1617726193264126
1761475849493073400,6.843073486328125,6.308665844932198,0.757956110227853,-0.28235753659680485
1761475849503051500,6.853051513671875,6.916989465966821,0.03629866321906447,0.2890554998654872
1761475849513028400,6.8630283203125,7.430290286004543,-0.5485303927205503,0.20222305611949412
1761475849523005400,6.87300537109375,7.8364868221074335,-0.9002429858986287,-0.2934631967725232
1761475849532982500,6.882982421875,8.044161019772291,-1.233149171797931,-0.7749648204348981
1761475849542959400,6.89295947265625,7.926953859496116,-1.4954299889191984,-1.229923926141113
1761475849552936400,6.9029365234375,7.497675138491392,-1.6276806968092918,-1.2022608431898056
1761475849562913500,6.91291357421875,7.0425330774337045,-1.5022531129375098,-0.798771812479943
1761475849572890600,6.922890625,6.683442575898766,-1.262234104245901,-0.3889945318134501
1761475849582867500,6.932867431640625,6.513018204697966,-1.0475263546824454,-0.0720063382750377
1761475849592845300,6.94284521484375,6.57274640495181,-0.7047363420199603,0.15183029149845242
1761475849602822700,6.95282275390625,6.8146917055308815,-0.25480938526205715,0.3208655464284122
1761475849612799500,6.962799560546875,6.9146215677917,0.10617284830361604,0.30825689781121907
1761475849622776600,6.972776611328125,6.787863904359936,0.5386163900148123,0.19250852150861172
1761475849632753400,6.98275341796875,6.727886113259196,0.8483023707810788,-0.05108362382887862
1761475849642730500,6.99273046875,6.470468518260121,0.9185040342543274,-0.40199765964094547
1761475849652707600,7.00270751953125,5.436514177334308,0.9511896215427667,-0.5622929240806028
1761475849662684400,7.012684326171875,3.485556050649285,1.0307646780390292,-0.7494379457946866
1761475849672661500,7.02266162109375,1.5032406626701353,1.0770501169390976,-0.8734856196153908
1761475849682639400,7.032639404296875,0.07530629313588141,1.262904696983844,-1.1958221884444356
1761475849692616400,7.042616455078125,-1.0700316164791583,1.3472490137085318,-1.9526997096553445
1761475849702593500,7.052593505859375,-1.8809779970079659,0.6113388772025704,-1.7298729510441422
1761475849712570400,7.0625703125,-1.9454495923966169,-0.7049279921345413,-1.002397392341122
1761475849722547500,7.07254736328125,-1.9370237093567848,-0.7179797814093529,-1.4986530426189302
1761475849732524300,7.082524169921875,-4.392432994669676,-0.44626799585893745,-1.3365493405178188
1761475849742501400,7.09250146484375,-8.967140372809768,-0.6172913558661938,0.21639168406240641
1761475849752478500,7.102478515625,-12.779755125439166,-0.7667354828804731,1.6257970750197768
1761475849762456300,7.112456298828125,-13.729963261663913,-0.6908861689090728,2.34815901703611
1761475849772433400,7.122433349609375,-12.602578357368706,0.4757359362751245,2.501440968647599
1761475849782410500,7.132410400390625,-10.6167692820549,0.5137500251099467,3.0530174510657786
1761475849792387600,7.1423876953125,-8.90079538476467,-0.9028378977626561,2.969889670524001
1761475849802364700,7.15236474609375,-8.24230341898203,-2.755074368932843,2.735913449127972
1761475849812341500,7.162341552734375,-8.229509988382459,-3.9806066359862684,2.271003588902205
1761475849822318600,7.172318603515625,-8.964775981765985,-4.428832926306129,1.9049097844764589
1761475849832295400,7.18229541015625,-10.219797085893154,-4.510964389286935,1.648566248449683
1761475849842272500,7.1922724609375,-10.688228252112864,-4.2662937553972,0.9359305314820259
1761475849852250600,7.202250732421875,-10.091050294470786,-4.2952857488647105,0.42356246224977073
1761475849862227500,7.2122275390625,-8.389659049284457,-4.053236403389275,-0.15559863105602562
1761475849872204500,7.22220458984375,-5.679355549970269,-3.36206528005898,-0.658585416219756
1761475849882181400,7.232181396484375,-2.8704449614316223,-2.3132903866201637,-0.6205208393067121
1761475849892158500,7.242158447265625,-0.7439175018727779,-1.1121166080147027,-0.1940671125948429
1761475849902135300,7.25213525390625,0.44902211687266824,-0.17734817911460996,0.4818791152052581
1761475849912112400,7.2621123046875,0.7795709990561008,0.29116014399453993,1.0492747327197343
1761475849922089500,7.27208935546875,1.1866758821755647,0.4746976792685687,1.0147776390299201
1761475849932066600,7.282066650390625,2.217077499055862,0.6244855051539838,0.5984050882842391
1761475849942044400,7.29204443359375,3.842356395420432,0.6400622828617691,0.3152673610951751
1761475849952021200,7.302021240234375,5.712511385118961,0.5089519771784544,0.39476379939727485
1761475849961998300,7.311998291015625,7.372604405233264,0.13009206855148076,0.7323873692072927
1761475849971975700,7.3219755859375,8.735124930092692,-0.3562316049724817,0.8971157207235694
1761475849981952500,7.331952392578125,9.775974291229247,-0.9058087302669883,0.8007040226515382
1761475849991929600,7.3419296875,10.332402889853716,-1.1276046845257282,0.5667444601293653
1761475850001906400,7.351906494140625,10.401770440590381,-1.2578348463736473,0.4385402146184817
1761475850011883500,7.361883544921875,10.344807613396643,-1.405262372868508,0.2868876543071121
1761475850021860400,7.3718603515625,10.046554150140285,-1.407522719015926,0.14716562415566295
1761475850031838500,7.38183837890625,9.465039625576138,-1.2199400000043212,0.06873027574643492
1761475850041815600,7.391815673828125,8.679938464921712,-0.8055031665615737,-0.09491455484945327
1761475850051792400,7.40179248046875,7.799930823126435,-0.39694735398143527,0.03371467460785061
1761475850061769500,7.41176953125,7.228492871418595,0.017983327392861247,0.3534382113942876
1761475850071746600,7.42174658203125,7.184968786990642,0.4625692153837532,0.6295890388380736
1761475850081723400,7.431723388671875,7.8343486410349605,0.7831977381858974,0.5950261133704334
1761475850091700500,7.441700439453125,8.687801453381777,1.0302151543974876,0.2437366775078699
1761475850101677300,7.45167724609375,8.898772939026355,1.2645309830114244,-0.3277428848519921
1761475850111654400,7.461654296875,8.546258893272281,1.6028279951035975,-0.6006065438512712
1761475850121632500,7.471632568359375,7.918228116726874,1.9993439719304442,-0.28072178862113506
1761475850131609300,7.481609375,6.653541943153739,2.0283084928691384,0.33908060021791603
1761475850141586400,7.49158642578125,4.764155598762631,2.1883578927889467,0.46321997091006484
1761475850151563500,7.5015634765625,2.74730315040946,2.278536907016486,0.45650005153790113
1761475850161540600,7.51154052734375,1.025975032609701,1.9429237271808086,0.44532461406160145
1761475850171517400,7.521517333984375,-0.33816403336226936,1.4681348624974488,0.34408911256231367
1761475850181494500,7.53149462890625,-1.2941454922914504,-0.03583689092621207,0.7162560263566672
1761475850191471600,7.5414716796875,-2.293150100389123,-1.309822807764262,0.4371684878738597
1761475850201448400,7.551448486328125,-3.8340000704854726,-0.5538496880471706,-1.5127727533861994
1761475850211426600,7.561426513671875,-6.998087786507606,-0.11102788711935281,-1.7959934826835988
1761475850221403400,7.5714033203125,-11.761984442073105,-0.9421519632801413,-0.14384347572932019
1761475850231380500,7.58138037109375,-15.610751289057731,-1.1738444576531648,1.4191970824576914
1761475850241357600,7.591357666015625,-16.353896052992344,-0.573179826939106,2.352272882095724
1761475850251334400,7.60133447265625,-15.062931528824567,0.2893126164317131,2.6128537634313105
1761475850261311500,7.6113115234375,-13.343631701982021,0.46800504976212975,2.943454668062925
1761475850271289000,7.6212890625,-11.111553033149242,-0.7419476631045341,2.694047361040115
1761475850281266200,7.63126611328125,-10.06172366222143,-2.1973259198814628,1.3396329857468605
1761475850291243000,7.641242919921875,-10.28877300696373,-2.795022932961583,-0.7753479014683514
1761475850301221000,7.65122119140625,-11.13156940073967,-3.3142572347015142,-2.626685889428854
1761475850311198000,7.661197998046875,-12.412455598485469,-3.880971372757852,-3.540441487047076
1761475850321175000,7.671175048828125,-12.817705793648958,-3.748299809107184,-4.112868742053211
1761475850331152100,7.681152099609375,-11.657597015881537,-3.1082258358076214,-4.341253427052497
1761475850341129000,7.69112890625,-8.972754121038317,-1.8856882205255328,-3.6124803028196095
1761475850351106000,7.70110595703125,-5.991410744085908,-0.4608062242992222,-2.594286717866361
1761475850361083100,7.711083251953125,-3.4669220773279665,0.7278767599150539,-1.343061791151762
1761475850371060200,7.721060302734375,-1.3521394160985947,1.3965518276683986,-0.15912954512853175
1761475850381037000,7.731037109375,0.198354580655694,1.421220989500731,0.48099170137885955
1761475850391015200,7.74101513671875,1.3847399554520845,0.9940282809898257,0.08960481280246749
1761475850400992300,7.7509921875,2.8930840787410737,0.5611065273076296,-0.6076399861520156
1761475850410969000,7.760968994140625,4.852264674848318,0.45576881465390323,-0.6723244571063667
1761475850420946200,7.7709462890625,6.906250629809499,0.15664529056474566,-0.17457358156843109
1761475850430923000,7.780923095703125,8.951253652369976,-0.2683364638984203,0.6782781778790057
1761475850440900000,7.790900146484375,10.367781661748886,-0.7258093059912324,1.5788032686546445
1761475850450877200,7.800877197265625,11.139198580443859,-1.203906856831163,2.112541165912896
1761475850460854000,7.81085400390625,11.654812353599072,-1.5595260289937256,2.0324450081519783
1761475850470831000,7.8208310546875,11.725041489601134,-1.8534218815624712,1.4268242163352667
1761475850480808000,7.830807861328125,11.170068350481987,-2.1743889886692167,0.7532070890698581
1761475850490786000,7.8407861328125,10.367798028361797,-2.4594798957526685,-0.011578611449711024
1761475850500763100,7.85076318359375,9.693708680474758,-2.4470231497615575,-0.8067880918055772
1761475850510740000,7.860739990234375,9.412430317416787,-2.2462932182766497,-1.2378481432691215
1761475850520717000,7.870717041015625,9.14990458562374,-1.9546525972887872,-1.1756018957797436
1761475850530694000,7.88069384765625,8.867876280981301,-1.483619431877136,-0.8280129584029317
1761475850540671200,7.890671142578125,8.74796103079021,-0.977111194588989,-0.3745893917009234
1761475850550648300,7.9006484375,8.699968861037492,-0.5152914093330502,-0.08076737155336886
1761475850560625200,7.910625244140625,8.71035932214856,-0.07780980038940906,0.010202719986625015
1761475850570603000,7.92060302734375,8.475510117310286,0.2831483947135508,0.08211367159578949
1761475850580579000,7.9305791015625,7.53393478487432,0.7972678376577794,0.0010229863721877336
1761475850590556200,7.94055615234375,6.467891945770383,1.3067075983531773,0.10079281749939545
1761475850600534300,7.9505341796875,5.570429895827174,1.6535652257807552,0.29842460030587387
1761475850610511000,7.960510986328125,4.868087097880244,1.7790360642723737,0.11180917369015514
1761475850620488200,7.97048828125,4.096844951230287,1.6364904646001754,-0.15442578788436948
1761475850630465000,7.980465087890625,2.9355408261984586,1.436696352660656,-0.43174474579207595
1761475850640442000,7.990442138671875,1.1258195546746252,0.7523508375667035,-0.2377099462979473
1761475850650419000,8.0004189453125,-0.924304464161396,-0.22869418933987617,0.41804651183988895
1761475850660396000,8.01039599609375,-2.7349831825405357,-0.6655280018992722,0.33340302950553596
1761475850670373000,8.020373046875,-5.414979221874475,-0.37546222901269793,-0.9014004123054444
1761475850680350000,8.030349853515625,-9.952551339840888,-0.7090154075786471,-1.7492627111688255
1761475850690328000,8.040328125,-15.049631317746638,-1.618938879688084,-1.772042698253691
1761475850700305000,8.050304931640625,-18.011396718525887,-1.4628551685288547,-1.0999547533169387
1761475850710282000,8.060281982421875,-17.670475495409963,-0.8844052922323346,1.5317198843099176
1761475850720259000,8.070259033203126,-15.871450389945506,-0.41891923955380916,4.7776738365054126
1761475850730236200,8.080236083984374,-12.858558028519154,0.12335720733851194,6.827457663601637
1761475850740213200,8.090213134765625,-10.362305860686302,-0.21442191835939883,6.91892949411869
1761475850750190000,8.100190185546875,-9.210138981834053,-0.20927724894732236,4.5807188935145735
1761475850760167200,8.110167236328126,-8.866260662478208,-0.5881926871538162,1.4039771553635596
1761475850770144000,8.12014404296875,-9.516758122375608,-1.5075833680495618,-1.42628192615211
1761475850780122000,8.1301220703125,-10.623809263694286,-2.064143776360154,-3.3627111767470836
1761475850790099200,8.14009912109375,-9.86670494799018,-2.317840597270429,-3.8775104186490177
1761475850800076000,8.150075927734376,-7.731266452223062,-1.9210431731536983,-3.0569413465112447
1761475850810053000,8.16005322265625,-5.048835294696689,-0.990590415495634,-2.0266483045719563
1761475850820030200,8.1700302734375,-2.2466303412765263,0.015128303287923335,-0.841211901063472
1761475850830007000,8.180007080078125,0.3878308583289385,0.9545290681637824,0.25051293017715215
1761475850839984000,8.189984130859376,2.621256265595555,1.3788123189687729,0.6958958137646317
1761475850849961000,8.1999609375,4.203284633776545,1.5281890798352658,0.3910291794462129
1761475850859938000,8.20993798828125,5.174325130149722,2.0011251562587917,-0.11770670729614793
1761475850869915100,8.2199150390625,5.4534945382297035,2.3858003270357844,0.22002996749952433
1761475850879893000,8.22989306640625,5.02315081834197,1.9997301947690544,1.421005739314854
1761475850889870000,8.2398701171875,4.764745965871215,0.996197587852925,2.199820659306645
1761475850899847000,8.249846923828125,5.325348050788045,-0.02787570278868079,2.203103918761015
1761475850909824300,8.25982421875,6.543861086729168,-0.7880518271535635,1.7042573021419345
1761475850919801000,8.269801025390626,7.779113076025247,-1.3895211983792484,1.1693234730973838
1761475850929778200,8.279778076171874,8.520808225673436,-1.861653557204455,0.6658265464544296
1761475850939755300,8.28975537109375,8.65316210167706,-2.3402285162977874,0.3087166973426938
1761475850949733000,8.299733154296876,8.333523905086517,-2.6806039420992134,-0.09440686105564236
1761475850959710200,8.309710205078124,8.022422066172957,-2.802695367285609,-0.4968713710233569
1761475850969687000,8.31968701171875,8.035385592642426,-2.4754437730818983,-0.730465022842586
1761475850979664100,8.3296640625,8.206178797155617,-1.8200221546553075,-0.5257905184503644
1761475850989641200,8.33964111328125,8.153966379359364,-1.157806930565834,0.001616824079491198
1761475850999618000,8.3496181640625,7.78653065880537,-0.5899199493378401,0.4314889078674838
1761475851009595100,8.35959521484375,7.569777082628011,-0.20359832652807233,0.6648942340403795
1761475851019572000,8.369572021484375,7.464940743625164,0.11947335164248943,0.6217309457488358
1761475851029549000,8.379549072265625,7.622688004082441,0.4444176918171346,0.3118180243588984
1761475851039527200,8.389527099609374,7.915225427779555,0.6640586599990725,0.04305358083937317
1761475851049504000,8.39950390625,7.353916071376204,0.8810106813579798,-0.1673747743718326
1761475851059481000,8.409481201171875,6.2689399837434285,1.232090018133819,-0.4520172070354223
1761475851069458000,8.4194580078125,5.3131619384318585,1.371719438098371,-0.43260954592786727
1761475851079435000,8.42943505859375,4.49539184936285,1.4423967562593518,-0.5726980713041498
1761475851089412000,8.439412109375,3.2671465239584445,1.6088282584317029,-0.866112387433648
1761475851099389200,8.44938916015625,1.0292828419834374,1.662345182955265,-0.8087009396895766
1761475851109366300,8.4593662109375,-1.6530705741316079,1.8974922016963363,-0.7661625052981078
1761475851119343000,8.469343017578124,-3.9530566580206155,1.7374889790058134,-0.5968715585740283
1761475851129321200,8.4793212890625,-5.937990119543671,1.787298719574511,-0.7428970727838575
1761475851139298300,8.48929833984375,-8.939314208251238,2.581763044118881,-1.3226048401869832
1761475851149275100,8.499275146484376,-12.463286791056394,1.6451120163425803,-1.2863061769679187
1761475851159252200,8.509252197265624,-14.41589736112356,-0.31083178980052467,-1.819117460900545
1761475851169229000,8.51922900390625,-14.635548996829986,-1.462670167350769,-2.783536201046407
1761475851179206100,8.5292060546875,-14.041651376032828,-2.2943661981806156,-2.6319781506180764
1761475851189183000,8.539182861328126,-13.030414478349686,-2.5323265207767487,-0.6708340724181383
1761475851199160000,8.54916015625,-11.27375551944971,-2.983696077558398,1.4564640061870215
1761475851209137200,8.55913720703125,-9.99924996265173,-4.048757796670496,2.452254036152363
1761475851219115000,8.569114990234375,-9.360657460081576,-4.264039254468679,1.9068482051931321
1761475851229092000,8.579092041015626,-8.948905043417215,-4.029548069287836,0.8917806433059274
1761475851239069000,8.58906884765625,-9.368444460695981,-4.058313560523093,-0.550509912632592
1761475851249046000,8.5990458984375,-10.111335542130469,-4.027079341086745,-2.6821874118983744
1761475851259023000,8.609023193359375,-9.806701437926291,-3.8180931840404866,-3.027728696030378
1761475851268999700,8.618999755859376,-8.062464738225936,-3.4154774290338157,-1.3718946485348045
1761475851278976800,8.628976806640624,-5.334605708476901,-2.274167752021551,-0.21230587605349718
1761475851288953600,8.63895361328125,-2.1367337962746618,-0.7405921568423509,0.25056352785322816
1761475851298930700,8.6489306640625,0.7780588409274816,0.3020679069779813,0.5378071559911594
1761475851308907800,8.65890771484375,2.9558681594341993,0.9519444584980606,0.1878126735762693
1761475851318885600,8.6688857421875,4.411713449200987,1.2749367878220974,-0.494052733406052
1761475851328862700,8.67886279296875,5.235042925962805,1.701357050655782,-1.059120054103434
1761475851338839600,8.688839599609375,5.331036033296585,2.1782550164476038,-0.8207607953175902
1761475851348816600,8.698816650390626,4.966192667323351,2.027306330089271,0.3985397012067958
1761475851358793700,8.708793701171874,5.069713247552514,1.5240299143292009,1.5808998025424779
1761475851368770600,8.7187705078125,5.713380569168925,0.8884482840128243,2.120767288596928
1761475851378747600,8.72874755859375,6.556706539776921,0.1620220151670277,2.018351016347855
1761475851388724500,8.738724365234376,7.661230208444595,-0.39762510711252685,1.1603112415369599
1761475851398701600,8.74870166015625,8.553255035769938,-1.0724905539385974,0.35489999104253944
1761475851408679700,8.7586796875,8.865700105985999,-1.660435257680714,0.0023663900629791895
1761475851418656500,8.768656494140625,8.540394385153055,-1.9681537377662957,0.1521646654188167
1761475851428633600,8.778633544921876,7.80654176569879,-2.009500916546583,0.6380972663991152
1761475851438610400,8.7886103515625,7.017913015440106,-1.8594160074107349,0.7240747372835874
1761475851448587800,8.798587890625,6.34894758643806,-1.7478776865512131,0.7395576261628418
1761475851458564900,8.80856494140625,6.148541333949566,-1.4703348567597567,0.9356597517166286
1761475851468541700,8.818541748046876,6.4757403211832045,-0.9203832721296697,1.2267821209840475
1761475851478518800,8.828518798828124,6.829037626269459,-0.36647900435104963,1.3262526951700448
1761475851488495600,8.83849560546875,7.218089550825953,0.1761887799464166,1.3342350722260772
1761475851498472700,8.84847265625,7.730912816479802,0.5941916353076696,1.3766861205950378
1761475851508450800,8.858450927734374,8.062075446647405,0.8378974427532404,1.2131740130007267
1761475851518427600,8.868427734375,8.008153302323818,0.946644817719981,0.6591871815051883
1761475851528404700,8.87840478515625,7.297068979516625,0.9408053709767759,0.005853877127356827
1761475851538381600,8.888381591796875,6.187172385638952,0.8689430808149278,-0.8439888914961368
1761475851548358700,8.898358642578126,4.411804050093889,0.9185833100356161,-1.0433721576124428
1761475851558335500,8.90833544921875,1.5675164432257414,1.2997284069903194,-0.4552557505652308
1761475851568312600,8.9183125,-1.222917992901802,1.8465834138445556,0.22174762160498648
1761475851578289700,8.92828955078125,-2.8202193335384127,1.5810582079745827,1.149220669332519
1761475851588266500,8.9382666015625,-2.3963901101112364,0.6701547849170864,1.20204055150263
1761475851598244600,8.94824462890625,-1.70955760050714,-0.3983440690368414,0.21422133601969107
1761475851608221400,8.958221435546875,-2.9302351210057735,-1.1243553273409603,-1.5470244209475814
1761475851618198500,8.968198486328125,-6.310353359627723,-2.007948572538048,-2.8873516725689172
1761475851628175600,8.978175537109376,-11.498448071932792,-3.448765073868632,-2.320998915170878
1761475851638152700,8.988152587890625,-15.440543190956115,-3.5092484764039513,-0.49975971287600696
1761475851648129800,8.9981298828125,-16.197493192881346,-1.6074097699359058,1.6767776129335163
1761475851658106600,9.008106689453125,-15.222293238741159,0.3658972589403391,4.169022006429731
1761475851668083700,9.018083740234376,-13.242550331598519,1.6158967355132101,6.369679993343353
1761475851678060500,9.028060546875,-10.950007549452781,2.071418735799193,6.60616761303842
1761475851688037600,9.03803759765625,-10.1021012653172,1.6189879795268176,4.8023745625197884
1761475851698015700,9.048015625,-10.159376227200031,1.040085975548625,2.133315658394247
1761475851707992600,9.05799267578125,-9.814504805153607,0.2988528904542327,-0.1606817612729035
1761475851717969700,9.0679697265625,-9.22004838142991,-0.930555925771594,-1.7890420561105012
1761475851727946800,9.07794677734375,-8.877661761936546,-1.910896165409684,-2.4753707078456877
1761475851737923600,9.087923583984375,-8.373547872439026,-2.036487269280106,-2.5949866828292607
1761475851747900700,9.097900634765624,-7.062090595340728,-1.5129504480406641,-2.3373985535688697
1761475851757877500,9.10787744140625,-4.904992640951275,-0.5274247685886919,-1.624110437107086
1761475851767854600,9.1178544921875,-2.589987851628661,0.614399287686497,-1.0557590532377361
1761475851777831700,9.127831787109375,-0.3846569044679403,1.3581965241804719,-1.0327530023120344
1761475851787809500,9.1378095703125,1.4352046527981757,1.4956727116338908,-1.5577468904919922
1761475851797786600,9.14778662109375,3.058619508856535,1.5540737549372017,-2.2008562859646976
1761475851807763500,9.157763427734375,4.486266293621063,1.9440254048123955,-2.2519440836451947
1761475851817740800,9.16774072265625,5.503751730304956,2.0568287771716713,-1.041711092532426
1761475851827717600,9.177717529296874,6.27835487782061,1.5093173522353172,0.7676368156343698
1761475851837694700,9.18769482421875,7.25414519906938,0.8706740693259983,1.8601186027221381
1761475851847671800,9.197671875,8.36436737163961,0.20752477925680576,2.0669199630752204
1761475851857648600,9.207648681640626,8.934326482966542,-0.5640796978995204,1.42476669928357
1761475851867625700,9.217625732421874,9.164743842837215,-1.479963393587619,0.455570515602827
1761475851877602600,9.2276025390625,9.306704920619726,-2.417487258675694,-0.12298961613513529
1761475851887580700,9.23758056640625,9.144166334232688,-3.0783857010781763,-0.33984763906765725
1761475851897557800,9.247557861328126,8.803196595799923,-3.2534766027852893,-0.3135429849879816
1761475851907534600,9.25753466796875,8.472471772527694,-2.9508339646592736,-0.06119496660446748
1761475851917511700,9.26751171875,8.238900917062162,-2.417607962445915,0.37653241552747785
1761475851927488500,9.277488525390625,8.307674009037017,-1.9475947877317665,0.761318572398275
1761475851937465600,9.287465576171876,8.570985338249802,-1.5062905517600476,0.8018851952601224
1761475851947442400,9.2974423828125,8.468333942070602,-0.981482176214829,0.8017565273791551
1761475851957419500,9.30741943359375,8.113928383481502,-0.3336677448563278,0.9521094398014247
1761475851967396900,9.31739697265625,7.846391545528173,0.35281259030923245,1.0156636280842124
1761475851977373700,9.327373779296876,7.865871906545758,0.9334247592061757,0.721970896872133
1761475851987351600,9.3373515625,7.993204154995083,1.1626540052708239,0.5593036426041275
1761475851997328600,9.34732861328125,7.679685318067669,1.2191560100197791,0.32410913145951925
1761475852007305700,9.3573056640625,6.26880729727447,1.218197028794512,0.08850114414319396
1761475852017282800,9.36728271484375,4.035018317392468,1.1342634848278015,0.11873422371298074
1761475852027259600,9.377259765625,1.5139374132513999,1.0958588623054324,-0.14913783754408358
1761475852037236700,9.38723681640625,-0.6589911474764347,1.3312696465492249,-0.7198832769431174
1761475852047213600,9.397213623046875,-2.490762338244915,1.3320569975346326,-1.1991621465221047
1761475852057190700,9.407190673828126,-3.8936972910791634,0.399814433850348,-1.1574067522671072
1761475852067167500,9.41716748046875,-5.036366858267784,-1.312463677661866,-0.8439233519792556
1761475852077145600,9.4271455078125,-6.912977892237901,-3.4434321884080767,-0.15404478921014814
1761475852087122700,9.437122802734375,-9.215296802988648,-4.523347777780891,-0.8134791869420558
1761475852097099500,9.447099609375,-11.823487835305928,-3.9324674589782953,-2.3754557508930563
1761475852107076600,9.45707666015625,-14.897424155759811,-4.529591056084633,-0.34561069610640405
1761475852117053700,9.4670537109375,-16.02057127635479,-4.376372963489592,2.3132037312500175
1761475852127030500,9.477030517578125,-14.509662855535744,-2.4433175732418895,3.7107694121360777
1761475852137007600,9.487007568359376,-13.016346205508707,-1.3470233882591127,4.125508443395793
1761475852146984700,9.496984619140624,-12.910949894535541,-1.109850124387443,2.9262250085815786
1761475852156961800,9.5069619140625,-13.863077600646019,-0.4576557974442839,1.0628286262977868
1761475852166938600,9.516938720703125,-15.145837775570154,-0.061624097003042694,-0.008456917498912662
1761475852176916500,9.52691650390625,-15.361276177495718,-0.5645537451520561,-0.15747001441847533
1761475852186893800,9.536893798828125,-14.089099355906248,-2.093991509874165,0.13767940014163033
1761475852196870700,9.54687060546875,-11.4345399556458,-3.1116984803542493,-0.2585867118436843
1761475852206847700,9.55684765625,-7.918273709434271,-3.6007381348386405,-1.1659686097115278
1761475852216824600,9.566824462890626,-4.495240458193421,-3.3929973016783594,-1.9811045508846639
1761475852226801700,9.5768017578125,-1.5786831494063138,-2.643129659229517,-2.201490346084535
1761475852236778800,9.58677880859375,0.525914802417159,-1.74064291299209,-1.6771949615627526
1761475852246755600,9.596755615234375,2.1511288168519735,-0.8834216880224645,-0.8852743301518261
1761475852256732700,9.606732666015626,3.7287563197255134,0.12227379601597785,-0.507724627340585
1761475852266711000,9.6167109375,5.170025971651077,1.2638478230528534,-0.45181101693883535
1761475852276688000,9.62668798828125,6.5274173169285055,1.8027980481319128,-0.031031719134189187
1761475852286665000,9.6366650390625,8.088515709805488,1.4382725159361958,0.9864648599982261
1761475852296642000,9.64664208984375,10.041443090736866,0.9157055626422166,1.7416314856380224
1761475852306619000,9.656618896484375,11.563395468139648,0.16547668566554785,2.197220998202264
1761475852316596000,9.666595947265625,12.556542582380771,-0.6774883426755667,1.9658342087775467
1761475852326572800,9.67657275390625,12.957066333544253,-1.4718576824128626,1.4027911604493855
1761475852336550000,9.6865498046875,12.488204959213732,-2.187477748953551,1.1520142455738036
1761475852346527000,9.69652685546875,11.418605888932943,-2.5596242775470017,0.7299486708182841
1761475852356504000,9.706504150390625,10.52027407041788,-2.481254212926328,0.2383890511359088
1761475852366482000,9.71648193359375,9.729096804720163,-2.0881869152486323,0.1151359343595337
1761475852376459000,9.726458984375,9.088068599435687,-1.5003271133109926,0.3114389253808185
1761475852386436000,9.73643603515625,8.75415228664577,-0.8104691184058785,0.674603288758546
1761475852396413200,9.7464130859375,8.897734828150272,-0.03591594751179218,1.3297346920669078
1761475852406390000,9.75639013671875,9.642112348750233,0.8009628927834331,1.9726497340112923
1761475852416367000,9.7663671875,10.647332762622833,1.3623039594992994,1.8909665993198752
1761475852426344000,9.776343994140625,11.501520318984985,1.4987889439582824,1.2841541135005652
1761475852436321000,9.786321044921875,11.348632773518561,1.4652183905288576,0.45691060510016973
1761475852446297900,9.7962978515625,10.164435848677158,1.4845935376062989,-0.1338236197626218
1761475852456275000,9.80627490234375,8.336045532518625,1.6625047574311493,-0.46831298320014025
1761475852466253000,9.816253173828125,6.101386784064769,2.0636456175796685,-0.5850437216036022
1761475852476230000,9.82622998046875,4.163432515859603,2.4155830324895677,-0.4787081570189446
1761475852486207000,9.83620703125,2.602021403771639,2.5416902691885825,-0.5582117922468111
1761475852496183800,9.846183837890624,0.9468237544834613,2.5251857091113923,-1.0723453733142465
1761475852506161000,9.856160888671875,-0.9060662121593952,2.344417784681171,-1.7080264454171061
1761475852516138000,9.866137939453125,-3.166677732515335,1.80375432594344,-1.9745289718866348
1761475852526114800,9.87611474609375,-5.903394022458792,0.8457835928931832,-1.564805430701375
1761475852536092200,9.886092041015624,-8.393126433134078,0.11679273425638675,-1.2524318182863294
1761475852546069000,9.896069091796875,-9.989808765089512,0.09893252178654074,-1.5878864465594291
1761475852556046000,9.906046142578125,-11.486187140774726,-0.749754829724133,-1.3675795618146658
1761475852566024200,9.916024169921876,-12.984970239514112,-1.5720923728391527,-1.3528450801499188
1761475852576001000,9.9260009765625,-14.157861341965198,-1.9652660535007713,-1.0202681262049824
1761475852585978000,9.93597802734375,-14.592848503744602,-1.941342741599679,0.07818634208422154
1761475852595955000,9.945954833984375,-14.268188679599762,-1.071326916986704,1.5733365276813507
1761475852605932000,9.95593212890625,-13.454519011586903,-0.8227034538179635,3.119254302561283
1761475852615908900,9.965908935546874,-12.752062816393375,-1.2008826867043971,3.869142987798154
1761475852625886000,9.975885986328125,-11.778358069247007,-0.965517349037528,2.632273041911423
1761475852635863000,9.985863037109375,-11.034950270462035,-0.8777063791155815,1.0323050393488258
1761475852645840000,9.99583984375,-11.26141041713953,-1.0433189661204814,0.008777180695533751
1761475852655817000,10.00581689453125,-11.501959879446028,-1.1755778573170304,-1.0851660572469233
1761475852665795000,10.015795166015625,-10.6874894164443,-1.8013871584206818,-1.9448031111866235
1761475852675772000,10.02577197265625,-8.531390994486213,-2.205095384839177,-2.166008990597725
1761475852685749000,10.0357490234375,-5.469649554216861,-1.8114014796957372,-1.806832564345002
1761475852695725800,10.045725830078124,-2.2565613681823016,-1.1144897668868303,-1.311087859264016
1761475852705703000,10.055702880859375,0.5689928966432809,-0.3520652790732682,-0.6843902310185134
1761475852715680000,10.065679931640625,2.704752294927835,0.14442936759218572,-0.06799863243706059
1761475852725657000,10.075656982421876,4.070784627300501,0.26768326068669557,0.4504798414003104
1761475852735634200,10.08563427734375,4.964280696222186,0.42756534121558065,0.3303692513002083
1761475852745611000,10.095611083984375,5.60617107129395,0.5586300541914999,-0.06479626533233095
1761475852755588000,10.105588134765625,6.103500999739766,0.37327991653755305,-0.13482789230118505
1761475852765566000,10.11556591796875,6.556552225998043,0.012887757819518446,0.09063218308882787
1761475852775543000,10.12554296875,7.405212543371319,-0.26332265432439744,0.26318609539791943
1761475852785520000,10.13552001953125,8.485780751433968,-0.5614684194225817,0.4153416002627462
1761475852795497000,10.1454970703125,9.287727248427272,-0.9149100283503532,0.565230548435077
1761475852805474000,10.15547412109375,9.889481427943705,-1.1801591937579214,0.7502263927586377
1761475852815451000,10.165450927734375,10.07948026818633,-1.3908476246774195,1.0322398651581257
1761475852825428000,10.175427978515625,9.704369775220751,-1.5539336158141492,1.3678073792211711
1761475852835404800,10.18540478515625,8.96879456975758,-1.6051365643069146,1.7597390969976783
1761475852845382000,10.1953818359375,8.269812772676348,-1.4956497691497206,1.964328480389714
1761475852855359000,10.20535888671875,8.019241682571172,-1.3845381492696702,1.9523934201851485
1761475852865336800,10.2153369140625,8.000396696847677,-1.3765715543046593,1.7319092791773378
1761475852875314000,10.22531396484375,7.953173173379898,-1.3229120064400135,1.3181123510733246
1761475852885290800,10.235290771484374,8.052780379557609,-1.2269219678461551,0.9125358465649187
1761475852895267800,10.245267822265625,8.369825637045501,-1.0445323604982346,0.8083093830887228
1761475852905245200,10.2552451171875,8.665904678872227,-0.9287791253574192,0.7507789851401001
1761475852915222000,10.265221923828125,8.764076299288869,-0.7874862291600555,0.434133321429044
1761475852925199000,10.27519921875,8.054262142547964,-0.4803809125367552,0.024709639973193406
1761475852935176000,10.285176025390625,6.0324342438697816,-0.01551752180121839,-0.3486433418005705
1761475852945153000,10.295153076171875,3.466595914113521,0.5254206622246652,-0.5090097717802972
1761475852955129900,10.3051298828125,0.9766671040832996,1.0623522409576922,-0.7422277952201664
1761475852965108000,10.31510791015625,-1.0225900663465262,1.0708142912894487,-1.375440212187171
1761475852975085000,10.3250849609375,-2.2643314176619054,0.8624322376161814,-1.8032509064659474
1761475852985062000,10.335061767578125,-3.5228222437262535,0.3190367235660553,-2.255437624849379
1761475852995039000,10.3450390625,-6.149882227164507,-0.3581514671191573,-2.760782809707522
1761475853005016000,10.35501611328125,-9.42074046512246,-0.15614362465292214,-3.5121330919295546
1761475853014993000,10.364992919921875,-11.981482933044433,-0.23751783952563998,-3.3586326752617954
1761475853024970000,10.374969970703125,-12.298698286402225,-1.8388057655803858,-1.2771347362577914
1761475853034946800,10.38494677734375,-10.079829812276364,-1.9631299182549118,-1.0420099293485283
1761475853044924000,10.394923828125,-8.795750955969094,-1.1400696138232946,-0.3219309837028384
1761475853054902000,10.404902099609375,-10.61470007456541,-1.7798212233006954,3.6563510087281466
1761475853064878800,10.41487890625,-11.98896715131998,-0.5242486227706075,5.635629220968484
1761475853074856000,10.42485595703125,-12.332118909966946,0.7450926831319927,6.178665254056454
1761475853084833000,10.4348330078125,-13.018515950763225,0.09271452405452728,5.78569644831717
1761475853094810000,10.44481005859375,-13.136902676212786,0.05144318698942661,2.755179582872987
1761475853104787000,10.454786865234375,-13.03618487844467,-0.10912176123708486,-0.321874358144775
1761475853114764000,10.464763916015626,-12.503341738069057,-1.1988193244338035,-1.7597483032174408
1761475853124741000,10.4747412109375,-11.247283692109583,-2.335948208630085,-2.9848017007127403
1761475853134718000,10.484718017578125,-9.671987847054003,-3.53761824631989,-3.7049829376891252
1761475853144695000,10.494695068359375,-7.676940987795591,-4.392455498762429,-3.79924089179337
1761475853154671900,10.504671875,-5.278132710626721,-4.271180358394981,-3.146784991304576
1761475853164650000,10.51464990234375,-3.054402183422446,-3.441424940238893,-1.8713804398402571
1761475853174627000,10.524626953125,-1.1259867279350757,-2.1777827227607367,-0.567327301518619
1761475853184604000,10.53460400390625,0.825778038957715,-1.0803481355711817,0.6603545447841286
1761475853194581000,10.5445810546875,2.5013380927950144,-0.6190615804091095,1.4802823964089153
1761475853204557800,10.554557861328124,3.726555594810843,-0.499778782902658,0.6617404461845755
1761475853214535000,10.564534912109375,4.715345098364353,-0.2625954360283911,-1.0013694375328719
1761475853224511700,10.57451171875,5.353157848733663,0.11708908685445785,-1.8272564898230135
1761475853234489000,10.584489013671876,5.695748466366529,0.25576573613882064,-1.660450162988901
1761475853244466200,10.594466064453124,6.2485600435376165,0.07487798472121357,-0.777731800930202
1761475853254443000,10.604443115234375,7.1895181208580725,-0.31601196891739963,0.10735013018837199
1761475853264420900,10.6144208984375,8.44649971140325,-0.6373023166291415,0.30662093063984064
1761475853274397700,10.624397705078126,9.639111997890472,-0.7549563438899815,-0.11935546088386326
1761475853284374800,10.634374755859374,10.448112505048513,-0.9999269836395979,-0.6049192924838512
1761475853294352000,10.644351806640625,10.613332293343543,-1.2370143227934836,-0.7477808262374251
1761475853304328700,10.65432861328125,10.391882668304444,-1.103422283297032,-0.16576522028334437
1761475853314305800,10.664305908203126,10.12543654819727,-0.5697944222845137,0.663183046208322
1761475853324282600,10.67428271484375,9.980313791513442,0.09163111273199319,1.3593342960387467
1761475853334259700,10.684259765625,9.82662428201437,0.725159025388956,1.8336591964721678
1761475853344236500,10.694236572265625,9.6023560924232,1.277754621721804,2.093300166609138
1761475853354213600,10.704213623046876,9.329604150170088,1.6650415824323892,2.1484406006813046
1761475853364191700,10.714191650390624,9.017893239447474,1.9118907294049858,2.0853828176133336
1761475853374168600,10.72416845703125,8.806887851533293,2.238135776914656,2.111158479382843
1761475853384145700,10.734145751953125,8.557349611607194,2.5109277589172123,2.0733061569809914
1761475853394122800,10.744122802734376,8.244791144144534,2.5514444782227277,1.893106241697073
1761475853404099600,10.754099609375,7.898203565829991,2.612285608154535,1.7121419179119168
1761475853414077000,10.764076904296875,7.0315534182578325,2.5549694374784826,2.1554119009986517
1761475853424053800,10.7740537109375,5.803482280376553,2.725308468483388,2.4019391225405036
1761475853434030800,10.78403076171875,4.96089689900279,3.0450387272715567,2.1273359994627534
1761475853444007700,10.794007568359374,3.8493361713051795,2.6928531828194857,1.820408815885335
1761475853453984800,10.80398486328125,2.0387503919064995,2.777484061400592,0.9855208571463823
1761475853463963000,10.813962890625,0.027884032225608823,2.590525027245283,0.7077160884831101
1761475853473939700,10.823939697265626,-1.1132605173528194,1.6800475745148955,1.3240652681283651
1761475853483916800,10.833916748046875,-1.1752227602690457,1.074469014404714,1.4375626141011715
1761475853493893600,10.8438935546875,-1.2053992873460053,1.5148308549597858,0.6930524800974875
1761475853503870700,10.85387060546875,-2.5085867487490177,1.8300453898891806,0.14113686538543552
1761475853513847800,10.863847900390626,-5.945853108003735,1.484360313372314,0.3780012094384059
1761475853523824600,10.87382470703125,-10.078078584694861,0.28100656037926675,1.5816468215174972
1761475853533801700,10.8838017578125,-12.39365269833803,-0.4653928214371204,2.59150059427917
1761475853543778600,10.893778564453125,-12.029614803528785,0.49031888063997026,2.599364751783013
1761475853553755600,10.903755615234376,-10.239649787354468,0.8351774432048201,3.355442062526941
1761475853563732700,10.913732666015624,-9.015451691514253,2.1057284171581268,1.7942678279347717
1761475853573710600,10.923710693359375,-7.383300571292638,2.4056961369864642,-0.6095224388977513
1761475853583687700,10.933687744140625,-8.258015951898694,2.455953475192189,-1.2153936618115753
1761475853593664800,10.943664794921874,-9.613891047394276,2.6076298913031817,-1.8022464055985212
1761475853603641900,10.953641845703125,-10.368810420274734,1.0690087031722069,-1.7863357197612524
1761475853613618700,10.96361865234375,-10.665789625811577,0.1529487741343677,-1.9085738599419593
1761475853623595800,10.973595703125,-9.836056127226351,-0.46764849140942094,-2.133881183322519
1761475853633572900,10.98357275390625,-8.024759569209813,-1.4217340535894036,-1.86962643577978
1761475853643549700,10.9935498046875,-5.796934466168284,-2.144499461840093,-1.6309813457898794
1761475853653526800,11.00352685546875,-3.8187668455183506,-1.7934990355193614,-1.0779290917307138
1761475853663503600,11.013503662109375,-0.15360124669373035,-2.1826675721928477,-1.9867722212575374
1761475853673481700,11.023481689453124,0.7259358549803495,-3.524381455866992,-3.2401933428421614
1761475853683458800,11.033458740234375,0.5283849919229745,-3.2984728055924175,-3.2985604838758706
1761475853693435600,11.043435546875,0.6428671111494303,-3.1113319851294157,-4.173521071414649
1761475853703412700,11.053412841796876,0.4158312104105949,-2.7610081428959963,-4.080058943863213
1761475853713389600,11.0633896484375,0.9680565121263265,-2.664332313995063,-2.72902573544085
1761475853723366700,11.07336669921875,1.493000423684716,-2.309483833944052,-1.7578306330278515
1761475853733343700,11.08334375,1.6913941673070192,-2.1085580876260996,-0.6987410471279174
1761475853743320600,11.093320556640625,2.5203999361395835,-2.1061934043213726,0.10310308546945451
1761475853753298000,11.1032978515625,3.1615625814586874,-1.9242168347537516,0.06890300196483731
1761475853763274800,11.113274658203125,3.590703355297446,-1.5104782127082348,-0.5730532779499888
1761475853773252600,11.123252685546875,3.675268475165963,-1.1054526931460946,-0.7385469147503375
1761475853783230000,11.13322998046875,2.520081371709704,-0.5212311746455729,0.2799688878946006
1761475853793206800,11.143206787109374,2.403932780575752,-0.35923736265972256,0.3702620300211012
1761475853803183900,11.153183837890625,-0.24763971282839772,-1.0101445724017917,1.8156300571762025
1761475853813160700,11.16316064453125,-0.08000643365085125,-1.4655268719561396,2.615879833254218
1761475853823137800,11.1731376953125,0.5243675729751587,-0.9091810562442988,0.7175942892231046
1761475853833114600,11.183114501953124,1.0727432135254145,-0.8182922863122075,-0.8751904507718979
1761475853843091700,11.193091796875,1.1593448076575994,-1.2772796976864338,-1.0664391449451447
1761475853853068800,11.20306884765625,0.5287397967100144,-1.4510469495743512,-0.9741087979026138
1761475853863045600,11.213045654296875,0.7584101376056671,-0.7890153384234756,-1.2643076956495642
1761475853873022700,11.223022705078124,1.8514052810430526,1.5166589471697807,-2.022127173885703
1761475853883000600,11.23300048828125,2.502922147116065,3.675829908441007,-2.2869062375634908
1761475853892977700,11.242977783203125,2.59310393782258,3.0958985614150762,-1.3351277832821011
1761475853902954800,11.252954833984376,1.4532675482332706,1.6882481243662535,-1.0887264531422405
1761475853912931600,11.262931640625,-0.12580138562023638,-0.10464061550134793,-0.8748231518294661
1761475853922908700,11.27290869140625,-1.420364226540923,-1.7721226316221057,-0.6484482722826301
1761475853932885800,11.2828857421875,-2.1336808384448287,-1.9869225895136593,-1.0545504081003367
1761475853942862800,11.29286279296875,-0.353521176970005,-0.8641676831066608,-1.5526279400430618
1761475853952839700,11.302839599609374,2.0250462762027976,0.40624775483347475,-0.6362900708466768
1761475853962816800,11.312816650390625,1.990973910731077,0.8912595420412719,0.3462222521334886
1761475853972793900,11.3227939453125,0.17418284695148467,0.7586443847529589,0.7592565253019332
1761475853982771700,11.332771728515626,-0.9265864376187324,0.5158220821436494,0.8175394951835274
1761475853992748800,11.342748779296874,-1.4383926351845264,0.8876477812848985,0.31488749493211504
1761475854002726000,11.352725830078125,-1.967985833853483,1.0342318426929413,0.19492374769048765
1761475854012702700,11.36270263671875,-2.1900082903444766,0.8968041705563664,0.14265545325484125
1761475854022679800,11.3726796875,-2.1276094095766545,0.4409234930258244,0.22861635659700258
1761475854032656600,11.38265673828125,-1.9030980588793753,-0.04630333988294005,0.24915928707849233
1761475854042633700,11.3926337890625,-1.6625409977883099,-0.5782502620711922,0.18246183233391491
1761475854052610600,11.402610595703125,-1.459108090955019,-1.0854700086295603,-0.026113058764021844
1761475854062587600,11.412587646484376,-1.2595605011224746,-1.3790810529075561,-0.27766621870910746
1761475854072564700,11.422564697265624,-1.143313710311055,-1.6104039833158255,-0.24316538042593747
1761475854082542600,11.43254248046875,-0.9277478826135397,-1.5703743168748914,-0.17921373552447184
1761475854092519700,11.442519775390625,-0.40184243254661556,-1.3205639820091426,-0.13018734561949968
1761475854102496500,11.45249658203125,0.06053425593972206,-1.072703904428333,0.0511541774475947
1761475854112473600,11.4624736328125,0.28733576340079303,-0.8904796437099576,0.28066443241070954
1761475854122451000,11.472450927734375,0.29705227077305313,-0.6249195857223123,0.4398252494603395
1761475854132427800,11.482427734375,0.5975958907932043,-0.2046342454470694,0.5958146333996206
1761475854142404900,11.49240478515625,0.9642688102811574,-0.015412636654637752,0.6852293121911585
1761475854152381700,11.502381591796874,1.27337041528821,-0.10390377999362535,0.5187787034595385
1761475854162358800,11.51235888671875,1.4657359846621751,-0.35692539592292155,-0.04712528725769371
1761475854172335600,11.522335693359375,1.097233511659503,-0.44612003875561057,-0.4672030857294798
1761475854182312700,11.532312744140626,0.8304653199911117,-0.2057059845981188,-0.40470001393482086
1761475854192290800,11.542290771484375,0.24495967996418475,0.17848295529820024,0.011995412089675665
1761475854202267600,11.552267578125,-0.2622854932963848,0.36667617089096455,0.13177319003883747
1761475854212244700,11.56224462890625,-0.5352180528134107,0.4834876829130575,0.3129680711768567
1761475854222221600,11.5722216796875,-0.746933050301671,0.6691799485355615,0.5748830871930346
1761475854232198700,11.58219873046875,-0.93052611515522,1.0516120896261185,0.7639405914649366
