time,seconds_elapsed,z,y,x
1761476175361034800,0.11503466796875,4.566333517548442,1.1836442593947052,-0.38291283727958797
1761476175371069700,0.125069580078125,3.2827889142483473,0.41273090630769727,0.0857693810917437
1761476175381105700,0.135105712890625,2.427182138738036,-0.453230089956522,0.8183752153553068
1761476175391141600,0.1451416015625,1.5479080719143152,-1.5322966612845659,1.8053543084859847
1761476175401177600,0.155177490234375,-0.3230354378134012,-2.6668574485585093,2.692283858498931
1761476175411213600,0.165213623046875,-2.4960189435988664,-3.6810590412661433,3.1172204586461185
1761476175421249500,0.17524951171875,-4.371660255753993,-4.020127329991758,2.852925671353936
1761476175431284700,0.18528466796875,-6.5208285861879585,-3.33914325415492,2.119042510630935
1761476175441320700,0.19532080078125,-7.985122555348276,-2.2785271162748337,1.2826836025565862
1761476175451356700,0.205356689453125,-8.547120478537678,-1.9172756373137234,0.878027135502547
1761476175461392600,0.215392578125,-9.543581831893324,-2.4299320219680665,0.4660865758549422
1761476175471428600,0.2254287109375,-10.873035368931292,-3.261363848903775,-0.3016465032281354
1761476175481464600,0.235464599609375,-11.655735898184776,-3.6387355647996067,-1.166181156483665
1761476175491499800,0.245499755859375,-12.342270886147022,-3.384623733347654,-1.5809160230249166
1761476175501535700,0.25553564453125,-12.739374015212059,-3.219166336904466,-1.029308341750875
1761476175511571700,0.26557177734375,-13.12283440337181,-3.6515389322713014,-0.22238540805187074
1761476175521607700,0.275607666015625,-13.203475043272972,-4.128660185424983,0.27239180370382965
1761476175531643600,0.2856435546875,-12.56454702513814,-3.7739895461589095,0.5418654549386352
1761476175541679600,0.2956796875,-10.738506486976146,-2.7067905227571725,0.5841870682416483
1761476175551714600,0.305714599609375,-8.571198104217649,-1.7033523161262272,0.6128907462870702
1761476175561750500,0.31575048828125,-6.206206171932816,-1.3958739284068344,0.6697605979677289
1761476175571786800,0.325786865234375,-3.7244898944526907,-1.5722025552153587,0.7017549881216139
1761476175581822700,0.33582275390625,-1.844669835308194,-1.8920155238509178,1.0152009790085255
1761476175591858700,0.345858642578125,-0.3894002996027469,-2.421673312188685,1.4154090883515775
1761476175601894700,0.355894775390625,0.6535533403366803,-2.8453865080207583,1.7912977260828018
1761476175611929600,0.3659296875,1.3927572576910257,-2.9102725294291973,1.85424488838315
1761476175621965600,0.375965576171875,1.7205571334272622,-2.3518372671574355,1.634763640807569
1761476175632001500,0.38600146484375,1.8329104239314793,-1.3607125986546278,1.2387857163801788
1761476175642037500,0.39603759765625,2.330201773932576,-0.29660248117893934,0.7250780691072345
1761476175652073700,0.40607373046875,2.435792730695009,0.6012795477420091,0.09847074949368834
1761476175662109700,0.416109619140625,2.4141671743422743,1.1486216074608266,-0.18379351932909338
1761476175672144600,0.42614453125,2.5945617354154584,1.23893725368008,-0.19952808141447603
1761476175682180600,0.4361806640625,3.115157973158359,1.0789942367441951,0.01252188364919275
1761476175692216600,0.446216552734375,3.832085761296749,0.968351257289201,0.3338106604583561
1761476175702252500,0.45625244140625,4.767712998983264,0.8814645626053214,0.5693978972475976
1761476175712288500,0.46628857421875,5.597882550898194,0.8858620669119059,0.8119621334426105
1761476175722324700,0.47632470703125,6.307574542564153,0.8793491778865457,1.0501369755722583
1761476175732359700,0.486359619140625,6.969964100307226,1.0081766333296895,1.2192488028697668
1761476175742395600,0.496395751953125,7.440723417213559,1.2251400528654455,1.292195527267456
1761476175752431600,0.506431640625,7.783052753561734,1.3963631732285022,1.3109832298457622
1761476175762467600,0.516467529296875,8.01825734770894,1.4722943202644585,1.179522064898163
1761476175772503600,0.526503662109375,8.171405589938164,1.532427009665966,0.9776306884184479
1761476175782539500,0.53653955078125,8.31487064254284,1.6791344051927326,0.7054140220858156
1761476175792574700,0.54657470703125,8.495390291300415,1.9672350154861806,0.4402290079556405
1761476175802610700,0.556610595703125,8.56867530774176,2.333545531402528,0.14044201498907058
1761476175812646700,0.566646728515625,8.572515032035112,2.616780581486225,-0.1917630003709346
1761476175822682600,0.5766826171875,8.575219614818693,2.795464539249241,-0.4385179662540555
1761476175832718600,0.586718505859375,8.582624338117242,2.900722318534553,-0.49336862359941003
1761476175842754600,0.596754638671875,8.631860954973101,2.925713551928103,-0.4386445152431726
1761476175852789800,0.606789794921875,8.442130410277843,2.856252185428142,-0.39765542918555435
1761476175862825700,0.61682568359375,7.996148391753435,2.7499109948202967,-0.4269824267610907
1761476175872861700,0.62686181640625,7.522444253566861,2.7411872978776692,-0.5186931440679357
1761476175882897700,0.636897705078125,7.092398639842868,2.751250718991458,-0.7267663875203579
1761476175892933600,0.64693359375,6.691814682924747,2.765861720407009,-1.146443898095563
1761476175902969600,0.656969482421875,6.143907244408131,2.497024905771017,-1.5708016023762523
1761476175913004500,0.667004638671875,5.027288064277172,1.9268278940349817,-1.2978550143338738
1761476175923040500,0.67704052734375,3.635859424841404,0.854015999187529,-0.7007694111503661
1761476175933076700,0.68707666015625,2.197840883666277,-0.7328001877918839,-0.2928390004595742
1761476175943112700,0.69711279296875,0.43460020828843116,-2.2165978988453743,0.2550279964488
1761476175953148700,0.707148681640625,-1.7781062360763549,-3.159083916385472,0.9418740231215953
1761476175963184600,0.7171845703125,-4.42901529713571,-3.548407351359725,1.365164463496953
1761476175973219600,0.727219482421875,-7.146492049080133,-3.466503851915896,1.9868869336783885
1761476175983255600,0.737255615234375,-9.21145006443262,-3.829405728432536,2.582456287080049
1761476175993291500,0.74729150390625,-10.530182885491847,-5.288481086161732,2.391791676405072
1761476176003327500,0.757327392578125,-11.46628066329956,-5.9158969456791874,0.9846211318276822
1761476176013363700,0.76736376953125,-11.75545065639019,-4.236355128729343,-1.2276973361328243
1761476176023399700,0.777399658203125,-12.917694108098745,-1.9502961556449532,-3.014363895283639
1761476176033434600,0.7874345703125,-14.81743467324376,-1.4717702963903545,-2.8358541250437495
1761476176043470600,0.797470703125,-16.58596059554815,-2.970316371503472,-1.547472018584609
1761476176053506600,0.807506591796875,-18.076973060286043,-4.019914564023912,0.009099581050314009
1761476176063542500,0.81754248046875,-19.18421183313131,-4.2959199551150204,1.06980964429155
1761476176073578500,0.82757861328125,-19.686061284828185,-4.563653192423284,1.1925883210897446
1761476176083614500,0.837614501953125,-19.09678372504711,-4.321305156262219,0.6104222007490694
1761476176093649700,0.847649658203125,-17.19593490639925,-3.3331025126859544,-0.08518272204389796
1761476176103685600,0.857685546875,-14.053462225335835,-2.4213714066326615,-0.8191070367611945
1761476176113721600,0.8677216796875,-10.390760386276245,-1.9005366839587687,-1.25033250791952
1761476176123757600,0.877757568359375,-6.5532257119238375,-1.5878578049868344,-1.1886506893798707
1761476176133793500,0.88779345703125,-2.760571212783456,-1.336038176125288,-1.186000174871087
1761476176143828700,0.897828857421875,-0.31575287958979603,-0.9953422861978412,-1.35056296056211
1761476176153864700,0.90786474609375,0.8292880929052829,-0.5804232221961021,-1.1311607695721089
1761476176163900700,0.917900634765625,1.8381547543257475,-0.3180079650402069,-0.6858261821057647
1761476176173936600,0.9279365234375,2.8755712184041737,-0.1507066942960024,-0.3683347152203321
1761476176183972600,0.93797265625,3.769731304192543,0.16824381229132412,-0.20066307679377496
1761476176194008600,0.948008544921875,4.6022290067940945,0.5780649686321616,-0.02869527554325759
1761476176204043500,0.95804345703125,5.237255925837159,0.9285992387458681,0.1781153640948236
1761476176214079700,0.968079833984375,5.936237722918391,1.2734475721776484,0.43100587359089404
1761476176224115700,0.97811572265625,6.687201051649451,1.4810893288776277,0.6590241729632019
1761476176234151700,0.988151611328125,7.480929170873761,1.7141759079575538,0.8795359326303005
1761476176244187600,0.998187744140625,8.234707557025551,2.0364920915856954,1.152141525215283
1761476176254223600,1.0082236328125,8.843879903843998,2.220024950684607,1.4719057593382894
1761476176264258600,1.018258544921875,9.347212872096895,2.3151506275340914,1.6625997422382235
1761476176274294500,1.02829443359375,9.706820090982317,2.5222175069555637,1.7347183452486992
1761476176284330500,1.03833056640625,10.06187329982519,2.7492385023862123,1.5175935976713895
1761476176294366700,1.04836669921875,10.632283662050963,3.0535543344214555,1.272858520243317
1761476176304402700,1.058402587890625,11.139380951273441,3.295115019597113,1.3563836295396088
1761476176314438700,1.068438720703125,11.494054805409908,3.299262786926329,1.3579540937267243
1761476176324473600,1.0784736328125,11.640164235043525,3.4168092621594663,1.0549686335124075
1761476176334509600,1.088509521484375,11.790697326338291,3.6295001189425586,1.1489514239370822
1761476176344545500,1.098545654296875,11.917622747552395,3.7013816983267662,1.220696809720993
1761476176354581500,1.10858154296875,11.859438269609212,3.955709802877903,1.2052755148358643
1761476176364617500,1.118617431640625,11.708186216390132,4.092328935110569,1.0075823206983505
1761476176374652700,1.128652587890625,11.612932529246807,4.300229927268624,0.7782678075030446
1761476176384688600,1.138688720703125,11.248146446418762,4.567922540305554,0.6435848309647292
1761476176394724600,1.148724609375,10.74730003428459,4.669803536634147,0.5223085215535015
1761476176404760600,1.158760498046875,10.44270684661269,4.570331355012953,0.45224714333377775
1761476176414796500,1.168796630859375,10.21003206320405,4.416068721801042,0.3514797342702746
1761476176424832500,1.17883251953125,9.710437112435699,4.3449563732236625,0.11731957114208488
1761476176434867700,1.18886767578125,9.101762778267263,4.34075453761965,-0.18024287764281033
1761476176444903700,1.198903564453125,8.274889929810167,4.307577075161039,-0.2718605098387226
1761476176454939600,1.208939697265625,7.314900988805293,3.833207166542113,-0.014357209317572414
1761476176464975600,1.2189755859375,3.914563553497195,2.293938328157365,0.4863312723085284
1761476176475011600,1.229011474609375,2.0596838743418453,1.113321015368402,0.7316416654065251
1761476176485046500,1.239046630859375,0.6728466543495655,0.2982245294228196,1.2067496790416539
1761476176495082500,1.24908251953125,-1.3601269077211617,-0.6546496111407876,0.7940718911606818
1761476176505118700,1.25911865234375,-3.247356366339326,-1.4783967287927866,0.5333794392094016
1761476176515154700,1.26915478515625,-5.944972233515977,-2.6104534242913124,0.47974736387357114
1761476176525190700,1.279190673828125,-8.855037257674336,-3.8929400429710745,0.4164241348024457
1761476176535225600,1.2892255859375,-12.667085024070738,-4.4458740774780505,0.4312791741069406
1761476176545261600,1.299261474609375,-16.342004539668558,-4.506366247841716,-0.3625600773416459
1761476176555297500,1.309297607421875,-17.972250118529796,-3.744724873229861,-2.976509965446591
1761476176565333500,1.31933349609375,-18.81695906792879,-1.7957409692272543,-6.273484641435742
1761476176575369500,1.329369384765625,-19.318979200017452,-0.289357624617219,-8.236195749756693
1761476176585404700,1.33940478515625,-20.60480577677488,-0.9643411448650061,-7.255025489035249
1761476176595440600,1.349440673828125,-21.44247474453449,-2.5761487113684414,-4.855596449619531
1761476176605476600,1.3594765625,-21.957548419463635,-3.3787428586155173,-2.6987770199105143
1761476176615512600,1.3695126953125,-22.26479650555849,-4.106432279264927,-1.2613681350663304
1761476176625548500,1.379548583984375,-20.949552111136914,-4.640082059848308,-1.1625007874704896
1761476176635583700,1.389583740234375,-18.304819692885875,-3.9973391596004366,-1.6408552356809376
1761476176645619700,1.39961962890625,-15.039916563940047,-3.386448026165366,-2.3729189258918164
1761476176655655700,1.40965576171875,-11.656579947793483,-3.101652010375261,-2.4449073266513643
1761476176665691600,1.419691650390625,-9.062038670644164,-2.858996223439276,-1.5933004344321786
1761476176675727600,1.4297275390625,-6.534799828395247,-2.9391403119951485,-1.4089901612199842
1761476176685762300,1.43976220703125,-4.355957659709453,-2.5311232824668286,-1.3565396968841552
1761476176695798500,1.449798583984375,-3.0326147145062685,-2.1121856304734945,-1.4615589912384748
1761476176705834800,1.459834716796875,-2.1225147167861462,-1.7817869704157112,-1.5836140299372374
1761476176715870700,1.46987060546875,-0.9640455229192971,-1.0488641791574655,-1.5669678694322704
1761476176725906700,1.47990673828125,-0.1355471190869808,-0.17334785743206738,-1.2248776025369763
1761476176735941400,1.48994140625,0.9826946938097476,0.3117950818747282,-0.527152381388098
1761476176745977600,1.4999775390625,2.1801251942336557,0.4364402831971645,0.5959985385991633
1761476176756013600,1.510013671875,3.532643380516767,0.37461204192414876,1.6375325209990144
1761476176766049500,1.520049560546875,5.086626388430595,0.43674116583988065,2.1935312037736177
1761476176776085500,1.53008544921875,6.4656128949224945,0.8955209988780319,2.188592578327656
1761476176786120400,1.540120361328125,7.9874068668931715,1.3767792057059705,1.5647320732042191
1761476176796156400,1.550156494140625,9.314579014995694,1.6914821378514169,0.7611820865370332
1761476176806192600,1.560192626953125,10.26352166132927,2.1151696147203443,0.642333296533674
1761476176816228600,1.570228515625,11.219626454377174,2.583605749376118,1.0560767408847809
1761476176826263600,1.580263671875,11.590150204074382,2.7462705924913284,1.5491495964080095
1761476176836299500,1.590299560546875,11.736095967578887,2.7291820950463412,2.187365959142148
1761476176846335500,1.60033544921875,11.740947499263285,2.7155688724964855,2.745546077609062
1761476176856371700,1.610371826171875,11.592841342854499,2.7378260047510263,3.0631597826346755
1761476176866407700,1.62040771484375,11.491578770685194,2.8524212289631365,2.9880343990236518
1761476176876442400,1.6304423828125,11.36812657853961,3.0062586225003,2.549278824621439
1761476176886478300,1.640478271484375,11.478511199319362,3.161235833722353,1.8817199014164507
1761476176896514300,1.650514404296875,11.764918741959333,3.3799817527607083,1.3675728398129343
1761476176906550500,1.660550537109375,11.899645192313194,3.659895257206261,1.1644251796618104
1761476176916586800,1.670586669921875,11.966638415133952,3.797695123656094,1.2938804116144775
1761476176926621400,1.680621337890625,11.332897444248198,3.791219497901201,1.4670423910856245
1761476176936657400,1.690657470703125,10.526531961768866,3.8530025848582383,1.6590838430717587
1761476176946693400,1.700693359375,10.011841733199358,3.901590382416546,1.7088500367596744
1761476176956729300,1.710729248046875,9.444991109281778,3.8674639486700295,1.463558056101203
1761476176966764500,1.7207646484375,8.87215030503869,3.831973825354874,1.0525091115310787
1761476176976800500,1.730800537109375,8.489311848169566,3.842596341656148,0.6150431385479868
1761476176986836500,1.74083642578125,7.980961344015598,3.730951783943176,0.2459882192943245
1761476176996872400,1.75087255859375,7.6526143557906146,3.323168563170731,-0.017595204858109354
1761476177006908400,1.760908447265625,7.0975640597820275,2.7997105062559244,-0.25715660597532985
1761476177016943400,1.770943359375,5.798297571215033,2.384159866352379,-0.48800906932763755
1761476177026979300,1.780979248046875,4.4027112275779245,1.701624177159369,-0.8374222995221614
1761476177037015600,1.791015625,2.834906030538678,0.8853226993381976,-0.5427342005971819
1761476177047051500,1.801051513671875,0.7647785035938024,-0.8092021672099828,0.5000736011307686
1761476177057086500,1.81108642578125,-2.101080299091339,-2.793504929614067,1.5649875092700123
1761476177067122400,1.821122314453125,-4.198590923002362,-4.363293117164075,2.1855770298987625
1761476177077158400,1.831158447265625,-6.2544099386096,-5.393818944945931,1.6395190186411142
1761476177087194400,1.8411943359375,-8.97746945912242,-5.022637023600936,0.17902626839466393
1761476177097229600,1.8512294921875,-12.251775207185744,-3.6819983679428696,-1.2602531595617532
1761476177107265500,1.861265625,-15.737024383842945,-2.482768124620616,-2.9935534547060727
1761476177117301500,1.871301513671875,-18.637998339051006,-1.4443585578516125,-4.709580543488264
1761476177127337500,1.88133740234375,-20.283945344913004,-1.2299150121822953,-5.911736903390288
1761476177137373400,1.89137353515625,-21.10973916596174,-1.5352733390077948,-5.464138681840896
1761476177147408400,1.901408447265625,-22.247136930227278,-2.2197625003561376,-3.709219260084629
1761476177157444400,1.9114443359375,-22.759664427804946,-2.933717410163581,-1.7989020636066793
1761476177167480600,1.92148046875,-22.931032217335698,-3.3874037194550035,-0.3391700685996562
1761476177177516500,1.9315166015625,-22.420169438099858,-4.101519372782111,0.2734987420324236
1761476177187551500,1.941551513671875,-20.773847169184684,-4.411653535707295,-0.22536402200385927
1761476177197587500,1.95158740234375,-18.25794337542057,-4.0370740808784955,-1.190412730616331
1761476177207623400,1.96162353515625,-14.85356163315773,-3.8672032519072292,-2.3237382770068944
1761476177217659400,1.971659423828125,-10.940283443295955,-3.7504707234054804,-3.1005899341017007
1761476177227694600,1.981694580078125,-7.872994305771589,-3.2325837446212766,-3.003366115929186
1761476177237730600,1.99173046875,-5.308360091108083,-2.7290193057000636,-2.399881605488807
1761476177247766500,2.0017666015625,-3.411571361505985,-2.1112911658518017,-1.612136067805439
1761476177257802500,2.011802490234375,-2.104896642509103,-1.3357755796663462,-0.8443335402153432
1761476177267837400,2.02183740234375,-0.9888397724360227,-0.5494076139464974,-0.3124642133079469
1761476177277873400,2.031873291015625,0.2779571096807718,0.16842530633807182,-0.07183817863389849
1761476177287909600,2.04190966796875,1.4727011474996805,0.8412000644952058,0.18403101787939666
1761476177297945600,2.051945556640625,2.8905881702721117,1.424082954803109,0.37739699646756053
1761476177307981600,2.061981689453125,4.473915346091985,1.82907683711797,0.5372416675955057
1761476177318016500,2.0720166015625,6.019864685153961,2.1929484354496003,0.7176604863271117
1761476177328052700,2.082052734375,7.46658967987597,2.4111685770481825,0.959038216151297
1761476177338088700,2.092088623046875,8.433491176748275,2.624086228324473,1.1448831515848636
1761476177348124000,2.1021240234375,9.377221056869626,3.071752838934958,1.3776663638040423
1761476177358160000,2.112159912109375,10.214491965222358,3.4878882929891346,1.6879383277647195
1761476177368195800,2.12219580078125,10.762427460789679,3.7207398942694065,2.006765061841905
1761476177378231800,2.132231689453125,11.257850678831339,3.890920227581262,2.147882674537599
1761476177388267800,2.142267822265625,11.82949087511301,4.21237745629251,2.0620460734285415
1761476177398302700,2.152302734375,12.556046907818317,4.491973565351962,2.037058493296802
1761476177408338700,2.162338623046875,12.996736665153502,4.492518632014096,1.9277128601759672
1761476177418374700,2.172374755859375,13.455617912739514,4.522225203491747,1.7513778036266565
1761476177428409900,2.182409912109375,13.8580740932703,4.704536996363103,1.6718289044849575
1761476177438445800,2.19244580078125,13.7526684299469,4.812745734408497,1.6736381458640097
1761476177448481800,2.202481689453125,13.534213895070552,4.868760467097163,1.7569466898001729
1761476177458517800,2.212517822265625,13.217854281759262,4.9493596059441565,1.836984979894012
1761476177468552700,2.222552734375,12.628616469466685,5.0648324897736305,1.8951789563179016
1761476177478589000,2.2325888671875,11.993065818810463,5.22039480740726,1.8659258276961743
1761476177488625000,2.242625,11.396507454371452,5.4520963618695735,1.7421021718896925
1761476177498660900,2.252660888671875,10.853355685949325,5.527661013680696,1.5478507887691257
1761476177508695800,2.26269580078125,10.575132618808746,5.370137040585279,1.449661340434849
1761476177518731800,2.272731689453125,10.215212096190452,5.069786312788724,1.3989685334213078
1761476177528767700,2.282767822265625,9.349804057633877,4.868970310455561,1.08879491526857
1761476177538803700,2.2928037109375,8.656745805382728,4.7791918398529285,0.731292632773146
1761476177548839000,2.3028388671875,7.88358467336893,4.493292246735096,0.5559720139633864
1761476177558875000,2.312875,6.707136170697212,3.9335540851712225,0.3771484285339713
1761476177568910800,2.322910888671875,5.014284790319204,3.2756668072834607,0.1601108477834612
1761476177578946800,2.33294677734375,3.396854269367456,2.2839266372308136,0.029288784456998108
1761476177588981800,2.342981689453125,2.3624732274621723,0.36609716542661186,0.40090237521752714
1761476177599018000,2.35301806640625,1.0107003065884113,-2.377047111737728,1.1785296928599476
1761476177609054000,2.363053955078125,-1.5428525420904158,-4.0583188212201,1.8992133264005182
1761476177619090000,2.37308984375,-5.4304824959546325,-4.214399025247991,1.6238072163768111
1761476177629124900,2.383124755859375,-9.314868937852978,-3.7171386549070475,-0.0008251257125288248
1761476177639160800,2.393160888671875,-13.115965102124214,-2.732850262165069,-2.5822137104958296
1761476177649196800,2.40319677734375,-16.27484648167491,-1.4606617501378059,-4.985341019907594
1761476177659231700,2.413231689453125,-18.371106813263893,-0.6777817726641893,-6.193364226016402
1761476177669268000,2.42326806640625,-20.098490577840803,-0.9190463975027203,-5.511915747538208
1761476177679304000,2.433303955078125,-21.318310604727266,-1.8520099689379332,-3.4474478537902233
1761476177689340000,2.44333984375,-22.579033135366437,-2.4112366738483306,-1.3259431908294557
1761476177699374600,2.45337451171875,-23.221025217247007,-2.7178900089204308,-0.10250658088102936
1761476177709410600,2.46341064453125,-22.919421274518964,-3.4089190934315323,0.6609467385236173
1761476177719446800,2.47344677734375,-21.64774246557951,-4.260323448815941,0.6962017379086465
1761476177729483000,2.48348291015625,-19.360412449645995,-4.602213224703073,0.04716353690885007
1761476177739517700,2.493517578125,-16.804503977751732,-5.028189397031069,-0.9039047963418066
1761476177749553700,2.5035537109375,-13.987463858771322,-5.464968702924251,-1.9477979090884328
1761476177759589600,2.513589599609375,-11.414766749161481,-5.423803164321184,-2.821447706289589
1761476177769624800,2.523624755859375,-9.933522814244032,-4.932441204369068,-3.215312876346707
1761476177779660800,2.533660888671875,-8.641752234390378,-4.3528222842931745,-3.0961051899030805
1761476177789696800,2.54369677734375,-7.619432217156887,-3.642103287667036,-2.5194968498200176
1761476177799732700,2.553732666015625,-6.632089989802241,-2.714286431470513,-1.827079525820911
1761476177809767700,2.563767578125,-5.443609104031324,-1.6749498129844664,-1.2779399151608346
1761476177819803600,2.5738037109375,-4.025854767727852,-0.8688274916112423,-0.7784486439626663
1761476177829839600,2.583839599609375,-2.326923190653324,-0.19256284551173447,-0.40853834998868405
1761476177839874800,2.593874755859375,-0.650353667512536,0.6043073711305856,-0.24158830383494495
1761476177849910800,2.603910888671875,1.0022329224944113,1.188954348501563,-0.14557386145219206
1761476177859946800,2.61394677734375,2.812407198482752,1.57754362398237,-0.044883317017182706
1761476177869982700,2.623982666015625,4.5769221315801145,2.0234142910867927,-0.010527093102782964
1761476177880017700,2.634017578125,6.282446531048417,2.4089324885591865,0.024446970449015497
1761476177890053600,2.6440537109375,7.823469519624114,2.7644141519472,0.17515965609438716
1761476177900089900,2.65408984375,9.125990041550994,3.2094208956986665,0.48774917628243564
1761476177910125800,2.664125732421875,10.136751722937822,3.681441318581998,0.9222630214616656
1761476177920160800,2.674160888671875,10.932593473315238,4.076201391652226,1.346115771894902
1761476177930196700,2.68419677734375,11.490851625454425,4.308205143931508,1.7073067528404295
1761476177940232700,2.694232666015625,11.823311309695244,4.580504081720114,1.927520844735205
1761476177950268000,2.704267822265625,12.184059515309333,4.793057283598184,1.8970041259184478
1761476177960303900,2.714303955078125,12.533227173244953,4.941012633359432,1.8170599438488482
1761476177970339800,2.72433984375,12.896526232385634,5.1140007175683975,1.899740711275488
1761476177980375800,2.734375732421875,13.195031040054559,5.175528076198697,2.006030463957041
1761476177990410800,2.74441064453125,13.284559919810293,5.251673158246279,2.0942463614180684
1761476178000446700,2.75444677734375,13.32490946585536,5.316573792701959,2.133774800338596
1761476178010482700,2.764482666015625,13.399058405649662,5.368116932934522,2.134047625930607
1761476178020518000,2.774517822265625,13.609390424346923,5.409819647154212,2.152457727368176
1761476178030553900,2.784553955078125,13.66920805644989,5.545063399380445,2.028241857373714
1761476178040589800,2.79458984375,13.170545418095587,5.683180076694488,1.7206902582876382
1761476178050624800,2.804624755859375,12.404827587825059,5.576757345283031,1.569315017080307
1761476178060660700,2.81466064453125,11.793259870302677,5.347721795159578,1.4831046142227946
1761476178070696700,2.82469677734375,10.912159757095575,5.286362778833508,1.3374693779721856
1761476178080733000,2.83473291015625,9.77686451806724,5.319878679466247,1.167000144716352
1761476178090768000,2.844767822265625,8.659363294404745,5.09603602181077,0.986618004733324
1761476178100803800,2.854803955078125,7.642230324420333,4.796195873884856,0.7035789156131446
1761476178110839800,2.86483984375,6.614260903123021,4.40394135389477,0.42241957582496104
1761476178120875000,2.874875,5.563457134205103,3.6912896356403824,0.10510149274505674
1761476178130911000,2.884910888671875,4.224012364506721,2.8234914870768786,-0.19626294213868675
1761476178140947000,2.894947021484375,2.522646253761649,1.8128075471013783,-0.37929574276097117
1761476178150981600,2.904981689453125,0.7458446705430746,0.027061025404930113,0.1871677815351635
1761476178161017600,2.915017578125,-1.4526713359057903,-2.8704011222898957,1.1447981767151505
1761476178171053800,2.9250537109375,-4.003573377814889,-5.121635742491484,2.0491564889781175
1761476178181089800,2.93508984375,-6.786396754416823,-6.045492462885379,1.8684777041360734
1761476178191124700,2.945124755859375,-9.856305134528874,-5.889059792158007,0.3035261429622769
1761476178201160700,2.95516064453125,-13.207010231661796,-5.1484939388006925,-1.6957321965113281
1761476178211196700,2.96519677734375,-16.612117950111628,-3.978893402327597,-3.862487621562183
1761476178221231600,2.975231689453125,-19.74651487674713,-2.8734584640339014,-5.5041158874422305
1761476178231267600,2.985267578125,-22.067207064056394,-2.6669296370118856,-5.6007356022417545
1761476178241303800,2.9953037109375,-23.799496136331555,-3.048766515623033,-4.364157625038922
1761476178251338800,3.0053388671875,-24.899896003067493,-3.422271619218588,-2.8582722930788993
1761476178261374700,3.015374755859375,-25.084314997351168,-3.8127673128426074,-1.529263869459927
1761476178271410700,3.02541064453125,-25.014661030888554,-4.280500267665088,-0.6193514302011579
1761476178281446700,3.03544677734375,-23.916660041987896,-4.401047093757986,-0.4955483057260513
1761476178291481900,3.04548193359375,-21.78287457412481,-3.9205607480853795,-0.8727843394782394
1761476178301517800,3.055517822265625,-18.075175070953367,-3.7469896032914516,-1.9515144453935325
1761476178311553800,3.0655537109375,-13.378913443243503,-3.760609255582094,-3.407679030242562
1761476178321588700,3.075588623046875,-9.367958723005652,-3.1531203318059444,-3.9916181516051292
1761476178331628300,3.085628173828125,-6.4717240712791675,-2.5906337483167645,-3.809556534102559
1761476178341664300,3.095664306640625,-4.670401210266351,-2.2287468940615653,-3.0432679182067512
1761476178351699500,3.105699462890625,-3.073832275557518,-1.73822737628296,-2.120102248816937
1761476178361735400,3.1157353515625,-1.4817477927863596,-1.04729853727594,-1.4317618188679218
1761476178371771400,3.125771484375,0.1235047991156578,-0.5412354134067893,-0.8896681811966002
1761476178381806300,3.135806396484375,1.272189681071043,-0.06225844938382506,-0.11892696980610488
1761476178391842300,3.14584228515625,2.1306863328039647,0.6645131257683038,0.2579763979256153
1761476178401878300,3.155878173828125,3.4453847837805744,1.3042112514927982,0.46229310185611244
1761476178411913200,3.165913330078125,5.128706119269133,1.7340049362823367,0.7593063557930291
1761476178421949400,3.175949462890625,7.077611989599466,2.1292250280797482,0.9637387950576841
1761476178431985400,3.1859853515625,8.973727349984646,2.3032459624677895,1.156361407932639
1761476178442020000,3.19602001953125,10.581824225401878,2.4921806806102396,1.5316577788591383
1761476178452056000,3.20605615234375,11.722088485014439,2.6906562572970985,2.0165327148795127
1761476178462092300,3.21609228515625,12.402886975151299,2.8928292271971703,2.3861076394192873
1761476178472127200,3.226127197265625,12.794675631195306,3.1537767498880624,2.68142198048383
1761476178482163200,3.2361630859375,12.928172247493267,3.458187274469435,2.8838790280222892
1761476178492199200,3.24619921875,12.858677270984648,3.735575352090597,3.042974195957184
1761476178502235100,3.256235107421875,12.66137892138362,3.846393688112497,3.2104756654486057
1761476178512270300,3.266270263671875,12.608739218086004,3.838306827768683,3.253613088646531
1761476178522306300,3.276306396484375,12.788245890408753,4.082008324365318,2.9809897412091493
1761476178532342300,3.28634228515625,12.867293123638628,4.485574804225564,2.4694927557229995
1761476178542377200,3.296377197265625,12.807155173540115,4.661372977419197,2.1364557099856434
1761476178552413200,3.3064130859375,12.686729635739326,4.709707092477381,2.0390099196255207
1761476178562449200,3.31644921875,12.526710923218726,4.873572251293063,2.0523612763687966
1761476178572484400,3.326484375,12.125659933310747,5.015144037497043,2.110397578012943
1761476178582520300,3.336520263671875,11.525590930402279,4.945943660020828,2.18056533921659
1761476178592556300,3.346556396484375,10.918123049414158,4.959430918103457,2.165904068918526
1761476178602591200,3.35659130859375,10.473937851178645,4.8950633676111694,2.0364716333195565
1761476178612627200,3.366627197265625,10.171744710385799,4.847976914526522,1.7651580533064901
1761476178622663200,3.3766630859375,9.76304291346371,4.889218733236193,1.3036550789147614
1761476178632698400,3.386698486328125,9.179350460338592,4.83500900414288,0.8000384714148938
1761476178642734300,3.396734375,8.274518173888325,4.585465795780718,0.3276685775067657
1761476178652770300,3.406770263671875,7.282153149935603,4.223617519970238,-0.029087051339820025
1761476178662805200,3.41680517578125,5.7197167864531275,3.715447925341129,0.004704232168197631
1761476178672841200,3.42684130859375,3.8509196411043405,2.8085207124382254,0.12714242496564984
1761476178682877200,3.436877197265625,2.4992472579956053,1.7263886160597204,0.020652546602115032
1761476178692912400,3.446912353515625,1.2432406499624251,0.39854309874027966,0.20341931669935584
1761476178702948400,3.4569482421875,-0.6776870801180601,-1.3742460339665412,0.4839529988698661
1761476178712984300,3.466984375,-2.749460620704293,-2.8857261171936988,0.25624935493730006
1761476178723019300,3.477019287109375,-5.412701924592256,-4.034519720220565,-0.057592211138457056
1761476178733055200,3.48705517578125,-8.87526463766694,-5.055700504291058,-0.6994071828864514
1761476178743091500,3.497091552734375,-12.299280470204353,-4.898178284761309,-2.0881248097978533
1761476178753126400,3.50712646484375,-16.544398751103877,-3.64191887101084,-3.9973300995111463
1761476178763162400,3.517162353515625,-20.84451352756023,-2.2092085192464292,-5.94727992593646
1761476178773198300,3.5271982421875,-24.082601130294798,-0.4135607812605798,-7.267952190625667
1761476178783233300,3.5372333984375,-26.861203089809415,0.6005298253532498,-6.433340272349119
1761476178793269200,3.547269287109375,-29.382601389336585,0.36224998847916723,-3.789298758971691
1761476178803305500,3.557305419921875,-30.3832981883049,-0.5363294846540316,-1.2950515012204646
1761476178813340200,3.567340087890625,-29.662475146293637,-1.2024926061190664,0.10317644296661019
1761476178823376100,3.577376220703125,-27.236830884647368,-1.5495269052878022,0.2936906123202294
1761476178833412000,3.587412109375,-23.55284660358429,-1.7706820774249732,-0.2514771720994264
1761476178843447300,3.597447265625,-19.47328830271959,-1.9929832047268747,-0.8165700656294822
1761476178853483300,3.607483154296875,-14.83610313335657,-2.3238874762192365,-1.2742974670052527
1761476178863519200,3.617519287109375,-10.445986014413833,-2.540979782831669,-1.805443886465579
1761476178873554200,3.62755419921875,-6.868378872054815,-2.2906838564060625,-2.137492067296058
1761476178883590100,3.637590087890625,-4.15734121324718,-1.8320554145373402,-2.054186445969343
1761476178893625300,3.647625244140625,-2.5416928995370864,-1.4130403133936225,-1.669215945507586
1761476178903661300,3.657661376953125,-1.6784148587465286,-0.897484700166434,-1.1419070583835242
1761476178913697300,3.667697265625,-0.7135609420537948,-0.3129515584334731,-0.6898283304192125
1761476178923732200,3.677732177734375,0.6416320163965225,0.18832272372394798,-0.5343453616321087
1761476178933768200,3.687768310546875,2.2648528111875055,0.40349166105836626,-0.5506979460179805
1761476178943804200,3.69780419921875,3.581383738288283,0.6972593572027981,-0.12484729976579546
1761476178953839400,3.70783935546875,4.998539524176716,0.9233638223104178,0.29854017124325033
1761476178963875300,3.717875244140625,6.811815273311733,1.1607996826410294,0.6094229605786502
1761476178973911300,3.727911376953125,8.544995741468668,1.5588080899827181,0.9095955553293228
1761476178983946200,3.7379462890625,9.874857859307527,1.8514527734465895,1.1224949402965605
1761476178993982200,3.747982177734375,11.007704536139965,2.0683267611332234,1.2599693741843103
1761476179004018400,3.758018310546875,11.970524316656588,2.324625435104966,1.415714208777994
1761476179014053400,3.768053466796875,12.618695963954925,2.48954010297358,1.6056927368849514
1761476179024089300,3.77808935546875,12.859374021077155,2.6589628959164022,1.8938564755424856
1761476179034125300,3.788125244140625,12.783275116258858,2.904065491482615,2.012789875089377
1761476179044160300,3.79816015625,12.810161954140662,3.097593674895167,2.1151701992422343
1761476179054196500,3.808196533203125,12.841139276206492,3.175095724509656,2.2197066785156725
1761476179064232400,3.818232421875,13.245545421761273,3.3088872321009632,2.226320689827949
1761476179074267400,3.828267333984375,13.286633803474903,3.49816389554888,2.0082357189163567
1761476179084303400,3.838303466796875,12.986177861738204,3.627000703342259,1.7289619736790656
1761476179094338300,3.84833837890625,13.118902909141779,3.7706639088675376,1.56058109100461
1761476179104374300,3.858374267578125,12.951772903311252,3.968270301504433,1.522837051282823
1761476179114410200,3.86841015625,12.393159361863136,4.122708583544195,1.5202954039759933
1761476179124445200,3.878445068359375,11.835576917028426,4.211995763498544,1.526437998384237
1761476179134481200,3.888481201171875,11.433376757085323,4.2930955453440545,1.4324699671372771
1761476179144517000,3.89851708984375,11.064698927515744,4.430299491727352,1.3535573200725017
1761476179154552300,3.90855224609375,10.548409447056054,4.464508927582204,1.2038931936319917
1761476179164588300,3.91858837890625,10.287395873391628,4.369551008515059,1.000464889908582
1761476179174624300,3.928624267578125,10.076785622274874,4.3348777545407415,0.674618486327678
1761476179184659200,3.9386591796875,9.268400032144784,4.319612380869686,0.2828109794527292
1761476179194695200,3.948695068359375,8.411005204173922,4.1616263432204725,-0.0836476396974176
1761476179204731100,3.958731201171875,7.358163207426667,3.9362282728165385,-0.29287220860943197
1761476179214766300,3.968766357421875,5.854697503829002,3.503445343083143,-0.42116073487028477
1761476179224802300,3.97880224609375,4.0948441328018905,2.9786823410496113,-0.5783156554576009
1761476179234837200,3.988837158203125,2.265726086890697,2.2917203598469493,-0.8475762484636157
1761476179244873200,3.998873291015625,0.5343091212749481,1.2744012196406722,-0.8448335986919701
1761476179254909200,4.0089091796875,-1.2241250306040048,-0.2604284672528505,-0.47095936952307815
1761476179264943400,4.018943359375,-2.9880162788450715,-2.0474191437914966,0.4042041932418942
1761476179274979300,4.028979248046875,-4.939777538606524,-3.499145892323553,1.1971657120078802
1761476179285014300,4.03901416015625,-7.7949226395756,-4.12699809743166,0.5866723457187414
1761476179295050500,4.049050537109375,-11.184569169521332,-3.564200548297167,-1.0920326550807804
1761476179305085200,4.059085205078125,-15.210414584898947,-2.5202932608947157,-2.869351028715074
1761476179315121200,4.06912109375,-20.26575736179352,-2.1893664853096007,-3.9192122560858724
1761476179325157000,4.0791572265625,-23.63324408237934,-2.4610037443190813,-4.303663408848643
1761476179335190000,4.08918994140625,-25.149430735862254,-2.4776515122592446,-3.9518732934549448
1761476179345226000,4.09922607421875,-25.387539234757423,-2.6396710432082413,-2.864307773850858
1761476179355262000,4.109261962890625,-24.84227617326975,-3.1845766695603728,-1.5152829826414584
1761476179365297000,4.119296875,-23.57410449566841,-3.6194594941824674,-0.6503970682628453
1761476179375332900,4.129332763671875,-22.180709524595738,-3.7795366588920354,-0.2964461946386844
1761476179385367800,4.139367919921875,-20.707735405373572,-3.8815935963094232,-0.2661521055966615
1761476179395403800,4.14940380859375,-18.607564622342586,-4.080906792864203,-0.48441842442452904
1761476179405439700,4.159439697265625,-16.415530379128455,-4.120444438004493,-0.6891138985395431
1761476179415475000,4.169474853515625,-13.791534459435939,-4.0111967123001815,-1.0351794257413596
1761476179425511000,4.179510986328125,-11.243408311980962,-3.7819285224646326,-1.3184189328044653
1761476179435547000,4.189546875,-9.054048840934037,-3.4208100222334266,-1.3811650195747613
1761476179445581800,4.199581787109375,-6.852201644235849,-2.9231963084101675,-1.3616583550721406
1761476179455617800,4.20961767578125,-4.774418634101748,-2.217255485971272,-1.2718784231647848
1761476179465654000,4.219654052734375,-2.8542601348280905,-1.4636040872000158,-1.1680258345022796
1761476179475689000,4.22968896484375,-0.8711363530755043,-0.8038591987468302,-1.1925074378732592
1761476179485725000,4.239724853515625,1.1577888103872538,-0.10591142088845372,-0.9670393709730356
1761476179495760000,4.249759765625,2.655430922397971,0.5867161848604678,-0.3245055834311992
1761476179505795800,4.2597958984375,3.8371483053833244,1.1249871955037116,0.1472880449589342
1761476179515832000,4.26983203125,4.989067931476235,1.6063459400966762,0.6415491604186594
1761476179525867000,4.279866943359375,6.0264084077090025,2.0014821530029177,1.2228293647702784
1761476179535903000,4.289903076171875,7.089494150573015,2.3275562278598545,1.433805307394266
1761476179545939000,4.29993896484375,8.518891578397154,2.7795708045467733,1.297843616157025
1761476179555974000,4.309973876953125,10.014657959663868,3.278874663414061,1.194134235357493
1761476179566010000,4.320010009765625,11.057570098549126,3.6125901929348707,1.1293092964865266
1761476179576045000,4.330045166015625,12.027159811592101,3.8882062924474474,1.24621586638093
1761476179586081000,4.3400810546875,12.533925092381239,4.104843256507814,1.424709562268853
1761476179596117000,4.350116943359375,12.605137394201755,4.294687490710616,1.5752729025714098
1761476179606152000,4.36015185546875,12.636976301532982,4.403921480150521,1.6801060267038643
1761476179616188200,4.370188232421875,12.72135671248436,4.5187858766928315,1.7045796659640966
1761476179626222800,4.380222900390625,12.966096027696132,4.6211914814174175,1.7251561516553162
1761476179636258800,4.3902587890625,13.038154717212915,4.678842290875315,1.8077888421565294
1761476179646294800,4.400294677734375,12.916161491703987,4.655386596485972,1.8059464291602372
1761476179656330000,4.410330078125,12.714103964877127,4.6280654588401315,1.7935608487091959
1761476179666366000,4.420365966796875,12.46338615977764,4.661158165624737,1.7228846995919942
1761476179676402000,4.43040185546875,12.179044317495823,4.810433073551953,1.5840608969219028
1761476179686436900,4.440436767578125,11.888897003805637,4.881631931369006,1.4645128726080059
1761476179696472800,4.450472900390625,11.507194857490061,4.82221557354331,1.3389824128836392
1761476179706508000,4.460508056640625,11.104477980196476,4.759256720805168,1.2559186374887823
1761476179716544000,4.4705439453125,10.680621284240484,4.715343637059629,1.1198495403543114
1761476179726580000,4.480580078125,10.218361500132083,4.7156879204526545,0.9142111593659966
1761476179736615000,4.490614990234375,9.624449266287684,4.576808149811625,0.6480230326078832
1761476179746651000,4.50065087890625,8.783858273601531,4.312856476868689,0.3806801097914576
1761476179756686000,4.51068603515625,7.803349107137322,4.1462358818650245,0.09092742144204675
1761476179766722000,4.52072216796875,6.416991195094585,3.9288951534494756,-0.1796857552167028
1761476179776758000,4.530758056640625,4.972688459083438,3.3549379123970864,-0.3939066711112857
1761476179786793000,4.54079296875,3.5952865914344785,2.609778886030614,-0.47739276357144117
1761476179796829000,4.550828857421875,2.1155086374163625,1.6538085330173373,-0.4019478656824678
1761476179806865000,4.560864990234375,0.26129531321525573,0.20001900673657655,-0.1913221978008747
1761476179816900000,4.570900146484375,-1.6494436158061025,-1.6890511113122104,0.39077491242419926
1761476179826936000,4.58093603515625,-3.304109934696555,-4.083807190480828,1.2505100564435123
1761476179836971000,4.590970947265625,-5.4712435454100365,-5.831326565113663,1.8366295905850827
1761476179847007000,4.601007080078125,-8.702451325502992,-6.198783328455686,1.5646072777807711
1761476179857045000,4.611044921875,-12.931497008001804,-5.903111113864183,0.299076543142274
1761476179867081000,4.6210810546875,-17.65806025047302,-4.795560790851712,-1.9546544969849287
1761476179877117000,4.631116943359375,-21.776166600918767,-3.018066549193859,-4.677503151226043
1761476179887151900,4.64115185546875,-24.322949517071244,-1.9973770557716488,-6.600324732229113
1761476179897187800,4.651187744140625,-25.166982759165762,-2.0060019685149193,-6.588342618012428
1761476179907223000,4.66122314453125,-25.352937876975535,-2.9939976913422344,-4.405701057043672
1761476179917259000,4.671259033203125,-25.002687684500216,-4.16331882635206,-1.6710159806668758
1761476179927295000,4.681294921875,-24.552269144833087,-4.7262581220448014,0.027486411210149525
1761476179937330000,4.691329833984375,-23.768390219449994,-4.7354584965884685,0.4100031983768567
1761476179947366000,4.701365966796875,-21.554277415418625,-4.389561238625645,-0.017572043178230523
1761476179957401000,4.711401123046875,-18.53383069308996,-4.1551510097265245,-0.6880121478427201
1761476179967437000,4.72143701171875,-14.805579400277137,-4.154346707606315,-1.4748172628708183
1761476179977473000,4.73147314453125,-10.32965212984085,-4.027653926104307,-2.2650562248051167
1761476179987508000,4.741508056640625,-6.6129404681742185,-3.4085324322015045,-2.630085468739271
1761476179997544000,4.7515439453125,-3.7299744633436203,-2.6192747363895177,-2.645046598766744
1761476180007579000,4.761578857421875,-1.5570120003461836,-1.8595958940222859,-2.262599479302764
1761476180017614800,4.77161474609375,-0.2201829661041498,-0.8758470149844885,-1.6761510054677724
1761476180027650800,4.78165087890625,1.0695482168763875,0.050311844871938224,-1.1842447095058857
1761476180037685800,4.791685791015625,2.557489603605866,0.8133909972019493,-0.7254534782908857
1761476180047722000,4.801721923828125,4.024881538781523,1.448996154524386,-0.09295739289969206
1761476180057757000,4.8117568359375,5.2100487699598075,1.9335824828617274,0.7455854350849985
1761476180067793000,4.82179296875,6.011878362575173,2.164680664603412,1.6983536310561
1761476180077828900,4.831828857421875,6.765929135927558,2.3590748171955345,2.3235747570082546
1761476180087863800,4.84186376953125,7.96394824989438,2.7764935890585183,2.4367881714731454
1761476180097900000,4.851900146484375,9.082116413033008,3.2927234482854604,2.515038993628323
1761476180107935000,4.86193505859375,10.191501550257206,3.5673093279674646,2.5278265790089964
1761476180117971000,4.871970947265625,11.37127948961258,3.6278704719141124,2.687283565993607
1761476180128007000,4.8820068359375,12.331076122915745,3.6610631319418547,2.9001377966448665
1761476180138041900,4.892041748046875,13.295520874285698,3.707353466212749,3.04180632122159
1761476180148078000,4.902078125,13.930636640655994,3.7447184434890746,3.135608932773769
1761476180158113000,4.912113037109375,14.272696512413024,3.867343537160754,3.1040242924645542
1761476180168149000,4.92214892578125,14.269500346720218,3.8880724369347095,3.0185899885460734
1761476180178185000,4.93218505859375,13.914038557076454,3.8693697822913524,2.946701979421079
1761476180188220000,4.942219970703125,13.627348105841874,3.9824318055868146,2.728692265702784
1761476180198256000,4.952256103515625,13.21645610539913,4.156440465015173,2.34915226585716
1761476180208291000,4.962291015625,12.684293348503113,4.3156981300354005,2.077178614500165
1761476180218327000,4.9723271484375,12.0944908880651,4.443680366826057,1.9089780568286776
1761476180228363000,4.982363037109375,11.50417638645172,4.537798327937722,1.7760211003653703
1761476180238398000,4.99239794921875,11.040510242676735,4.663745259508491,1.740998886822909
1761476180248434000,5.002433837890625,10.67548099874258,4.743798162649572,1.8042510234192013
1761476180258468900,5.01246875,10.366965669190883,4.751436986964941,1.7555840231448412
1761476180268504800,5.0225048828125,10.041591559296846,4.811112872509658,1.7079472427010536
1761476180278539800,5.032539794921875,9.671554716333747,4.76311398075521,1.6686504205793142
1761476180288576000,5.042575927734375,9.382215796416997,4.658879114776849,1.468362972164899
1761476180298612000,5.052612060546875,9.062906685650349,4.541929144132137,1.2309434784471989
1761476180308647000,5.06264697265625,8.574150524282455,4.236615533231198,0.9979219274275004
1761476180318683000,5.072682861328125,7.654002010756731,3.8683442386358973,0.6119288059197366
1761476180328717800,5.0827177734375,6.5066375637501475,3.5689079953357576,0.2626201320782304
1761476180338753000,5.0927529296875,5.069394098600745,2.941621607416868,0.1551300636962056
1761476180348789000,5.1027890625,3.3620039052605626,1.7912670386835932,0.053874213528633114
1761476180358824000,5.112823974609375,1.3868524175614119,0.37535306954979897,0.06967237890213727
1761476180368860000,5.12285986328125,-0.6710019032657146,-1.6680854801729321,0.3848378139927983
1761476180378894800,5.132894775390625,-2.7807003930985927,-4.238358869767189,0.6611540245987475
1761476180388930800,5.142930908203125,-6.126736329376697,-6.113232704681158,0.9969633115284144
1761476180398965800,5.1529658203125,-10.77880342605114,-7.220809331178665,0.9765846864968538
1761476180409001700,5.163001708984375,-15.051352150189876,-7.480809343886375,-0.245255740301311
1761476180419037700,5.17303759765625,-19.478110608309507,-6.19566139704287,-3.0657442461699245
1761476180429073000,5.183072998046875,-23.192425730228422,-3.495080834841728,-6.276824014991521
1761476180439108900,5.19310888671875,-25.06230190298557,-1.2762540079005062,-7.7825266838610165
1761476180449143800,5.203143798828125,-27.516868307733535,-0.8785590504221618,-6.291278656801581
1761476180459179800,5.2131796875,-29.113478158974647,-1.3128536998927594,-3.217338536955416
1761476180469215000,5.223215087890625,-29.12654339225292,-1.5395707439407704,-0.8989968582950532
1761476180479251000,5.2332509765625,-28.223326139783858,-2.032561766399443,0.4452658330790698
1761476180489287000,5.243286865234375,-26.214387533295152,-2.7304829485118387,0.7440823370456695
1761476180499321900,5.25332177734375,-23.278719865846632,-3.1359844880878924,0.28028913282491263
1761476180509357800,5.26335791015625,-19.54557963194847,-3.118704267463088,-1.088490233233571
1761476180519393000,5.27339306640625,-14.53067291033864,-3.214625478604436,-2.679946939495206
1761476180529429000,5.283428955078125,-9.610579730889201,-3.1352289935454722,-4.071026619362831
1761476180539464000,5.2934638671875,-5.334654223793745,-2.638764742018282,-4.356216602906584
1761476180549500000,5.3035,-2.616702255553007,-2.195652725972235,-3.577426525095105
1761476180559535900,5.313535888671875,-1.3120201716780662,-1.888982439765334,-2.3292808596953747
1761476180569571000,5.323571044921875,-0.7625304324060678,-1.281578271663189,-1.1840449491500853
1761476180579607000,5.33360693359375,-0.33601474637389184,-0.4534147988736629,-0.4574098598591983
1761476180589641700,5.343641845703125,0.5136801747441292,0.23659897111505268,-0.29108094127848744
1761476180599677700,5.353677734375,1.998963740441203,0.8489572544932364,-0.33950741079524155
1761476180609713000,5.363712890625,3.9573680914789438,1.4114634194657205,-0.3174045923195779
1761476180619748900,5.373748779296875,5.809220531767607,1.8018197046190498,-0.2600982123851776
1761476180629784800,5.383784912109375,7.589516971364617,2.114412951134145,0.029111674324423072
1761476180639819800,5.39381982421875,9.082514472439884,2.468566580788791,0.6573416267037391
1761476180649855700,5.403855712890625,10.321863960182666,2.7671555596098303,1.2373169590018689
1761476180659891000,5.413890869140625,11.288443385493755,2.9613343158856034,1.8745627231381832
1761476180669927000,5.423927001953125,11.864096909070014,3.1491739322677255,2.4291838339492675
1761476180679961900,5.4339619140625,12.299502588522433,3.3654826872870323,2.7610505207329985
1761476180689997800,5.443997802734375,12.641415160763263,3.4882466049075123,2.8664947625011203
1761476180700033800,5.45403369140625,12.683491384470463,3.5601124022006987,2.899532524228096
1761476180710069000,5.464069091796875,12.704227883028983,3.6256694547384973,2.8579104740291834
1761476180720105000,5.47410498046875,12.864917626678944,3.7716394759014245,2.7161738526523114
1761476180730140000,5.484139892578125,12.978511272633074,3.9798283450901506,2.477507135352492
1761476180740176000,5.49417578125,13.115343170833587,4.11380280803293,2.1853402985334394
1761476180750211000,5.504211181640625,13.047011392885446,4.183727992652356,2.0103119406685233
1761476180760247000,5.5142470703125,12.83790102493763,4.274259911970794,1.9039251573532818
1761476180770281700,5.52428173828125,12.672459118324518,4.344741853690147,1.9245137718737124
1761476180780317700,5.534317626953125,12.206548410493134,4.328608465012907,2.0030454567968845
1761476180790354000,5.54435400390625,11.533099698597193,4.298132662728428,1.9289263276189565
1761476180800388900,5.554388916015625,10.862499946391582,4.347722330805659,1.7963880349591372
1761476180810424800,5.5644248046875,10.18653194515109,4.352028795827925,1.65198511698246
1761476180820459800,5.574459716796875,9.552237432035803,4.295624479299783,1.3992033650904894
1761476180830495700,5.584495849609375,8.938640254512428,4.262530018949509,1.0461071355342864
1761476180840531000,5.594531005859375,8.439304831463097,4.229977118130028,0.6436407989356666
1761476180850567000,5.60456689453125,7.861314389371872,4.11386739770174,0.24096060039065778
1761476180860601900,5.614601806640625,7.08463385106027,3.8634608505085106,-0.1335438895057887
1761476180870637800,5.624637939453125,5.811819316089153,3.4463659037724135,-0.1925521049220115
1761476180880673800,5.634673828125,4.361114311820268,2.7152441705867645,-0.04364171945825219
1761476180890709000,5.644708984375,3.0506507219344376,1.7257427193716168,-0.15409071071110664
1761476180900745000,5.654744873046875,1.855548372197151,0.7654571335077285,-0.22902495566420256
1761476180910780000,5.66477978515625,0.5620920312136412,-0.6396218456178904,0.07210347850657998
1761476180920815900,5.67481591796875,-1.0772791033893823,-2.6912778963267803,0.9051433251608163
1761476180930851000,5.68485107421875,-3.356911550557613,-4.835122693650424,2.0091773836806417
1761476180940887000,5.694886962890625,-6.481938006779552,-6.519243947345018,2.503998251914978
1761476180950922000,5.704921875,-10.02642087817192,-6.750302527728676,1.8047515202872455
1761476180960958000,5.7149580078125,-14.320817861503361,-5.611244136774539,-0.11910261863395571
1761476180970993000,5.724992919921875,-18.343144455105065,-3.935867330549657,-3.2923841333284973
1761476180981028900,5.73502880859375,-20.267461827623844,-2.0091233154058457,-6.5268900781840085
1761476180991064800,5.74506494140625,-21.551184125578402,-0.4728242866121232,-8.182691538584232
1761476181001099800,5.755099853515625,-23.269942685151097,0.10135521888881921,-7.132073647627234
1761476181011135700,5.7651357421875,-25.189512570881842,0.14114698492065073,-4.241831514313817
1761476181021171000,5.7751708984375,-26.31735690938234,-0.22877762983962893,-1.3672504759907722
1761476181031207000,5.78520703125,-26.44434545896053,-1.0114274518191815,0.510194962976873
1761476181041241900,5.795241943359375,-24.73579732775688,-1.4321006954334676,0.7862764880441129
1761476181051277800,5.80527783203125,-21.061972037136552,-1.4798884286552667,0.20887531708292661
1761476181061313000,5.81531298828125,-16.586016709649563,-1.5087386755645273,-0.30977314759306607
1761476181071349000,5.825348876953125,-11.901896770632266,-1.9291754800744354,-0.6250820097424089
1761476181081384000,5.835384033203125,-6.963722575569152,-2.6227590713739395,-0.8348036414563655
1761476181091420000,5.845419921875,-3.0139287187367674,-2.7954437887221575,-0.7106710658311843
1761476181101456000,5.855455810546875,-0.052039983838796613,-2.618212075594067,-0.3533474278382957
1761476181111491000,5.865490966796875,1.7240666028529406,-2.2498957728132605,0.09597411037236452
1761476181121527000,5.875527099609375,2.488426588773727,-1.6460422829300165,0.2922283577479422
1761476181131562000,5.88556201171875,2.8520868824422356,-0.9083908557146787,0.38854470568671823
1761476181141598000,5.895597900390625,3.323972573029995,-0.3947096580572426,0.361314168933779
1761476181151633000,5.9056328125,4.164370088970661,0.062114218607544895,0.1735565317466855
1761476181161669000,5.915669189453125,5.230075074422359,0.436893433792144,0.03960778776705265
1761476181171703800,5.925703857421875,6.352181746053695,0.5922725038133562,0.2607040693238377
1761476181181739800,5.93573974609375,7.079117133465409,0.6319644627325236,1.0032499905824661
1761476181191774700,5.945774658203125,7.654649661010503,0.5351199992664158,1.934762778687477
1761476181201811000,5.95581103515625,8.54814280732274,0.5220569579452276,2.5216961134299636
1761476181211846000,5.965845947265625,9.38552828196585,0.7749770953945815,3.0198636617437002
1761476181221881900,5.9758818359375,10.026014050936698,0.9306073636978864,3.3734117267206307
1761476181231916800,5.985916748046875,10.625932247197627,1.0569579076334834,3.4987951791897416
1761476181241953000,5.995953125,11.23664188658595,1.3098600710347295,3.4058415856823325
1761476181251989000,6.005989013671875,11.846979770052432,1.583944138674438,3.175197139057517
1761476181262024000,6.01602392578125,12.449322563111782,1.8273568814575671,2.9521599525660274
1761476181272060000,6.026059814453125,12.904390389889478,2.0023685804486275,2.8417589651733635
1761476181282094800,6.0360947265625,12.9546662866652,2.0323542611286043,2.7585850074023006
1761476181292131000,6.046131103515625,12.92046474185586,2.2075208584204313,2.8511288510650394
1761476181302166000,6.056166015625,12.708559190231561,2.3159318410396574,2.9367583852946755
1761476181312202000,6.066201904296875,12.377042924320698,2.41437146474272,2.8986493116527794
1761476181322237000,6.07623681640625,11.999739889746904,2.588857678554952,2.8478590356141327
1761476181332273000,6.08627294921875,11.600241389977931,2.716942498937249,2.740119376385212
1761476181342307800,6.096307861328125,10.94460306006074,2.8115125877305864,2.5023352871388194
1761476181352343800,6.10634375,10.215576837849616,2.862714951701462,2.1646631289467213
1761476181362378800,6.116378662109375,9.661944591945408,2.971421994657814,1.7963804361745714
1761476181372414700,6.126414794921875,8.944598870655893,3.13760156789571,1.4627679286368191
1761476181382450000,6.136449951171875,8.085768456923962,3.1311984228551384,1.1761644250333307
1761476181392486000,6.14648583984375,7.092951597550511,2.8983474060967565,0.6955572294600307
1761476181402520600,6.1565205078125,5.565132373940944,2.852731317825615,0.1863381257779896
1761476181412556800,6.166556884765625,3.7425638958036895,2.950989739742875,-0.3370429203778505
1761476181422591700,6.176591796875,2.050590467303991,2.521983990460634,-0.5334961974568665
1761476181432627700,6.186627685546875,0.19194705170094967,1.3365662916526198,-0.5640491566307843
1761476181442663700,6.19666357421875,-1.8982202237099408,0.22836539577692747,-0.8152323872849345
1761476181452698600,6.20669873046875,-3.482171668908,-0.47815761046409605,-0.8033646932281553
1761476181462734600,6.216734619140625,-5.226043626949191,-1.5297069370523093,-0.37239962657168507
1761476181472769800,6.226769775390625,-7.391349437713623,-2.7415874031111596,0.16258783235624433
1761476181482805800,6.2368056640625,-10.071372949576377,-3.4395480404511094,0.23944946517534552
1761476181492840700,6.2468408203125,-13.19459966289997,-3.0378923626482486,-0.6227054898694158
1761476181502876700,6.256876708984375,-17.447944504874943,-1.502160612348467,-2.3240409132152795
1761476181512912000,6.266911865234375,-20.921869154441357,-0.041508360691368575,-4.212444968570769
1761476181522947800,6.27694775390625,-22.678883502650258,0.367849123660475,-5.941776067823171
1761476181532982800,6.286982666015625,-22.9442377358675,0.6151939451955258,-6.949261504018306
1761476181543018800,6.297018798828125,-22.444728709816932,0.6725812814116477,-6.4275681186884634
1761476181553054000,6.307053955078125,-21.4006416819334,0.05606120217889547,-4.652233393152057
1761476181563090000,6.31708984375,-20.220342349052427,-0.526096734855324,-2.7358669796377417
1761476181573124900,6.327124755859375,-18.89782065710425,-1.0190464023903012,-1.3707894637718796
1761476181583160800,6.337160888671875,-17.080518721193073,-1.6818413260638714,-0.7858605276543646
1761476181593195800,6.34719580078125,-14.771949517875909,-2.0257729830421507,-0.537734273418039
1761476181603231700,6.357231689453125,-12.229060686552524,-2.213142059303075,-0.4190392857369035
1761476181613266700,6.3672666015625,-9.488788749954104,-2.2978682149522007,-0.46755701373368497
1761476181623302700,6.377302734375,-6.502213902088999,-2.3154949109271166,-0.508797955660522
1761476181633337900,6.387337890625,-3.788389827433228,-2.299568004607409,-0.5852050496451556
1761476181643373800,6.397373779296875,-1.6557161202043293,-1.9804994245983658,-0.5979826981537044
1761476181653408800,6.40740869140625,-0.0036620296388864514,-1.462294465906173,-0.48025297530815003
1761476181663444700,6.41744482421875,1.2924410264611244,-1.0722519228771328,-0.16060542636737227
1761476181673479700,6.427479736328125,2.2719833937197924,-0.9018800125159323,0.31821970809474587
1761476181683516000,6.437515869140625,3.177718181967735,-0.751113404726237,0.8172067560978233
1761476181693550800,6.44755078125,4.0256642135918135,-0.47146015865206714,1.2388950219735502
1761476181703586800,6.4575869140625,4.758441897290945,-0.15481018409207462,1.4189735028348862
1761476181713621800,6.467621826171875,5.54943620763719,0.1584850732125342,1.5179272135399282
1761476181723657700,6.47765771484375,6.496947944384813,0.47384164696112274,1.6298938428141176
1761476181733693000,6.48769287109375,7.7501090998589985,0.6487000550866127,1.7135557302325963
1761476181743729000,6.49772900390625,9.055727587801217,0.7463442906282842,1.9044860061064361
1761476181753763600,6.507763671875,10.262149203932285,0.8105408684678376,2.1490518644474443
1761476181763799600,6.517799560546875,10.958630416369438,0.8442644205018878,2.4017139354825017
1761476181773834800,6.527834716796875,11.362333966612816,0.8584196409739553,2.7028385702610014
1761476181783870700,6.53787060546875,11.779631157922744,0.8336052254520356,2.832115815298259
1761476181793905700,6.54790576171875,12.0975455994606,0.8882849101446568,2.860420995545387
1761476181803941600,6.557941650390625,12.226853531897067,0.9912393809236586,2.855181049065292
1761476181813976800,6.567976806640625,12.179977214431762,1.0400677092395723,2.7190774651393292
1761476181824012800,6.5780126953125,12.089777303546667,1.1355074204742908,2.5198592533916235
1761476181834047700,6.5880478515625,12.070451840829849,1.3009775302685795,2.282960714808106
1761476181844083700,6.598083740234375,12.178082194465398,1.4047875949636102,2.0771897204160688
1761476181854119000,6.608118896484375,12.17043197197318,1.5272373320683836,1.7691078138455747
1761476181864155000,6.61815478515625,11.780101113522052,1.6753619009166956,1.4830981844820081
1761476181874189800,6.62818994140625,11.26038399670124,1.717925908140838,1.4833254173666237
1761476181884225800,6.638225830078125,10.671856963026523,1.847758156712353,1.5661021925136447
1761476181894261000,6.648260986328125,9.843790520870686,2.066402076680958,1.5791189104750751
1761476181904297000,6.658296875,8.843557832282782,2.149406523104012,1.619659010656178
1761476181914331600,6.66833154296875,7.818319881775975,2.125155294422805,1.4351003156408666
1761476181924367600,6.67836767578125,6.921327202910184,2.1795114462494847,0.8320010051257908
1761476181934402800,6.68840283203125,6.3066843157261605,2.3314602495610712,0.0070364745080471035
1761476181944438800,6.698438720703125,5.816886536350846,2.4520547141879794,-0.6905700156319886
1761476181954473700,6.7084736328125,4.838879123574495,2.525971014270186,-1.0409798556484282
1761476181964509700,6.718509765625,3.6324072385609147,2.401635317288339,-1.0752219516638666
1761476181974544600,6.728544677734375,2.047759043270349,1.685247335115075,-1.0407147749714554
1761476181984580900,6.738580810546875,0.25730478227436543,0.6288555369317531,-0.7089083670075983
1761476181994615800,6.74861572265625,-1.9841794282853602,-0.41784664188623427,-0.11235409422181546
1761476182004651800,6.75865185546875,-4.224966888752579,-1.114134085316956,0.18405797895155845
1761476182014686700,6.768686767578125,-6.069807988974452,-1.670312508572638,-0.042378713785111904
1761476182024722700,6.77872265625,-8.809625167542695,-2.4692346893087027,-0.08357545124404132
1761476182034758000,6.7887578125,-11.148581325817107,-3.280608355338871,0.09863149301335215
1761476182044793900,6.7987939453125,-13.47457395762205,-3.729407477110624,-0.2579845812320709
1761476182054828800,6.808828857421875,-16.557358770442008,-3.3406121576637027,-1.14093163748011
1761476182064864800,6.81886474609375,-19.42484195945859,-2.6476325236067173,-2.2766551849231123
1761476182074899700,6.828899658203125,-20.846706653690337,-2.2097268440321085,-3.3036244892671704
1761476182084935700,6.838935791015625,-21.405759755599497,-2.0849825662493706,-3.6627027158424257
1761476182094970600,6.848970703125,-21.35015535727739,-2.357518527664244,-2.7933576300978658
1761476182105006600,6.859006591796875,-19.988619167280195,-3.3155899446099997,-1.8133546595901249
1761476182115041800,6.869041748046875,-18.473465948498248,-3.7996035876259207,-1.1042726895812898
1761476182125077800,6.879077880859375,-16.894987966275213,-3.7558670294910668,-0.8322844982422888
1761476182135112700,6.88911279296875,-15.106505297613143,-3.6911052189841866,-0.7515405440971255
1761476182145148700,6.899148681640625,-12.997325863218308,-3.6306212319269773,-0.6730244951345026
1761476182155183900,6.909183837890625,-10.621384666895866,-3.4728526364207264,-0.6001560236047953
1761476182165219800,6.9192197265625,-8.161726491966844,-3.1054242223903534,-0.598835150264576
1761476182175254800,6.9292548828125,-5.8481251397013665,-2.5313486156553027,-0.6959966437906027
1761476182185290800,6.939290771484375,-3.816104348310828,-1.9168094811066985,-0.7278526483871043
1761476182195326000,6.949325927734375,-2.079268864777684,-1.3650322154194117,-0.5150909913901239
1761476182205362000,6.95936181640625,-0.5491232440471648,-0.8822720795959234,-0.23193463256582617
1761476182215396900,6.96939697265625,0.7008470064312219,-0.4913756962165236,-0.14025390853844583
1761476182225432800,6.979432861328125,1.9446113880068063,-0.11985416765362024,-0.0655449967738241
1761476182235467800,6.9894677734375,2.8198955084115265,0.3920098975792527,0.28421207842230795
1761476182245503700,6.999503662109375,3.558371696013212,0.8937167259350418,0.422288204530254
1761476182255538700,7.00953857421875,4.754220480203628,1.2474766800969839,0.47013080974444743
1761476182265574700,7.01957470703125,6.005161037018895,1.500402808895707,0.5473161946251988
1761476182275609900,7.02960986328125,7.149268528056144,1.7316826308146118,0.578455721515417
1761476182285645800,7.039645751953125,8.173203579270838,1.9510490198388695,0.7056970768108963
1761476182295680800,7.0496806640625,9.060590225401521,1.976219701452553,0.8738604442771524
1761476182305716700,7.059716796875,9.942878671610355,2.0193392967328427,1.018227341092378
1761476182315751700,7.069751708984375,10.540037924551964,2.0554171568080783,1.1210144194152205
1761476182325788000,7.079787841796875,10.890443599849938,2.107501272049546,1.3088197682015597
1761476182335824000,7.089823974609375,11.120941623741388,2.1649258715361355,1.5050119101263582
1761476182345859800,7.09985986328125,11.21883267365098,2.210215212070942,1.6562001043289898
1761476182355894800,7.109894775390625,11.185993064844608,2.277673714315891,1.7939236906722187
1761476182365929700,7.1199296875,11.168471436679363,2.3569714151754972,1.8568835663236676
1761476182375965700,7.129965576171875,11.190657549524307,2.392946399398148,1.7456778384193776
1761476182386000600,7.140000732421875,11.266152058708666,2.453403498448431,1.4288297109387813
1761476182396036600,7.15003662109375,11.393418840706348,2.6220874557226894,1.0892588795185087
1761476182406071600,7.160071533203125,11.281443151342868,2.6865976295560596,0.9412304645210504
1761476182416107800,7.170107666015625,10.982558404445648,2.6243270513430237,1.0149022883228958
1761476182426142700,7.180142822265625,10.598853686136007,2.630605693221092,1.0898514385841787
1761476182436178700,7.1901787109375,10.172733721423148,2.690530000568926,1.100053245255351
1761476182446213600,7.200213623046875,9.689103232505916,2.7870249199450012,0.9680296971846372
1761476182456249600,7.21024951171875,9.185667972922325,2.8276182116180655,0.7143988541826606
1761476182466284800,7.220284912109375,8.809750839748977,2.7870436246454715,0.4684773434489965
1761476182476320800,7.23032080078125,8.271438912573457,2.6816893992483615,0.2263202998153865
1761476182486355700,7.240355712890625,7.307766899141669,2.587244690400362,-0.054153614991903305
1761476182496391700,7.2503916015625,6.188149121716618,2.4427333436131478,-0.29205402409434317
1761476182506426600,7.260426513671875,4.728158402708172,2.2384093331590296,-0.6212922620706259
1761476182516462800,7.270462890625,2.587232999962568,1.9955530552148817,-0.8754423797063529
1761476182526497500,7.28049755859375,0.36125966226756573,1.6347718241140246,-0.8963551846798509
1761476182536533500,7.290533447265625,-0.9365870226293802,0.7410445767849684,-1.0824126668855547
1761476182546568700,7.300568603515625,-1.8655068716317413,-0.8343336858570575,-1.219867811550945
1761476182556604700,7.310604736328125,-3.879208746999502,-2.416806582935154,-0.9051394527032971
1761476182566639600,7.3206396484375,-6.254271991443634,-3.2653301221862434,0.012540478751808404
1761476182576674800,7.3306748046875,-8.507625503495335,-3.8225510402321814,1.2178168703705072
1761476182586710800,7.340710693359375,-11.662841346275806,-4.482735781407356,1.6195274932309984
1761476182596745700,7.350745849609375,-15.651536888432501,-4.775789045672118,1.1233371632743627
1761476182606781700,7.36078173828125,-18.3776920368731,-4.638789389689267,-1.0885676093187182
1761476182616816600,7.370816650390625,-18.5173074283123,-4.195893939003348,-4.7003515273720025
1761476182626852900,7.380852783203125,-17.66628798059225,-2.665617385369539,-7.832859279260039
1761476182636887800,7.3908876953125,-17.46591036967635,-1.0571382326364516,-8.060952580097318
1761476182646923800,7.400923828125,-17.84403991820216,-1.5454434353664517,-5.919168514695763
1761476182656958500,7.41095849609375,-17.81123771879673,-3.3714202606424686,-2.6430779290422795
1761476182666994700,7.42099462890625,-16.746828033852577,-4.234855537821352,0.08785506479199975
1761476182677029600,7.431029541015625,-14.509254859256744,-4.168014290691912,1.4784716937251388
1761476182687065600,7.441065673828125,-11.889109769773482,-4.195571867442131,1.6545792251288889
1761476182697100500,7.4511005859375,-9.083036450487375,-3.7984447729796167,0.8762997271880507
1761476182707136500,7.461136474609375,-6.069486501935124,-2.8027544039964676,0.03267009745836258
1761476182717171700,7.471171630859375,-3.151315912732482,-2.2415099295228718,-0.552548103929311
1761476182727207700,7.481207763671875,-0.02822714657485485,-1.924583329978585,-0.9764993463009596
1761476182737242600,7.49124267578125,2.579552966853976,-1.3786694033667444,-1.2655819533690809
1761476182747277800,7.50127783203125,4.090719161826372,-0.36680122204273935,-1.2181035783573984
1761476182757313800,7.511313720703125,4.874850016143918,0.41811873682588335,-1.0993284381121395
1761476182767348700,7.5213486328125,5.237213840261101,0.5398793226227164,-1.018297337588668
1761476182777384700,7.531384765625,4.966065826073288,0.634504940995574,-0.794104551321268
1761476182787420000,7.541419921875,4.228267683863639,0.9709621704399585,-0.04607976026013493
1761476182797456000,7.551455810546875,3.334527869313955,1.1718427624419332,0.6227890764996409
1761476182807490600,7.561490478515625,2.7759651812702417,1.1995409167066216,0.8942577009439467
1761476182817526500,7.571526611328125,2.97972015966475,1.212785305944085,1.033374641341716
1761476182827561700,7.581561767578125,4.066766039308906,1.4708067120552062,1.1254739561073481
1761476182837597700,7.59159765625,5.012870831868052,1.763643849351257,1.1564990628376604
1761476182847632600,7.601632568359375,5.5711488577514885,1.7168652931720016,1.2786457253426313
1761476182857668600,7.611668701171875,6.115176239964366,1.3846451167754827,1.5630338909842072
1761476182867703600,7.62170361328125,6.862468771228194,1.1040775323353706,1.7083201676666735
1761476182877738800,7.63173876953125,7.608492889991402,1.1018852829881012,1.6730818271555006
1761476182887774700,7.641774658203125,8.24041892040968,1.3040661439336836,1.6797478609159588
1761476182897809700,7.6518095703125,8.778371366623043,1.3943440884910523,1.7873494268484413
1761476182907845600,7.661845703125,9.280720000013709,1.2491799768835306,1.9545732484422622
1761476182917880800,7.671880859375,9.698470195788145,1.0852069737792014,2.0762642761342227
1761476182927916800,7.681916748046875,10.027865816283226,1.104201304845512,2.204102136018127
1761476182937951700,7.69195166015625,10.074171640384197,1.1964809446141123,2.29951072146222
1761476182947987700,7.70198779296875,9.869974763441085,1.1701172538235782,2.126410847441852
1761476182958022700,7.712022705078125,9.801941676178574,1.2312979909732937,1.8015001172758638
1761476182968058600,7.72205859375,9.745098675972223,1.5604273617476223,1.5593229076370596
1761476182978093600,7.732093505859375,9.466783838894962,1.8382769194006918,1.3687956596061586
1761476182988128800,7.742128662109375,9.143544987463951,1.9823677026882767,1.242519057689607
1761476182998164700,7.752164794921875,8.790816422176361,1.9531296255052089,1.2433628150373697
1761476183008199700,7.76219970703125,8.222169562491773,1.8500959520101545,1.3555936482056974
1761476183018235600,7.772235595703125,7.5655732011973855,1.7702493850961327,1.3565131011381744
1761476183028270800,7.782270751953125,6.927884953990579,1.6095643176212906,1.2694991268128155
1761476183038306800,7.792306884765625,6.15838059091866,1.2208043617486952,0.8102386706508695
1761476183048341800,7.802341796875,5.15273113797903,0.8883435084640979,0.14344320609904826
1761476183058377700,7.812377685546875,4.035046374443173,0.8624833832815288,-0.5382520867470652
1761476183068412700,7.82241259765625,2.4591081398308274,0.9801642985492944,-1.0944682116646318
1761476183078449000,7.832448974609375,0.26389175944924353,0.8046265298575163,-0.6063200991924852
1761476183088483600,7.842483642578125,-2.2848984048724175,-0.2581643217131495,0.7015365230653434
1761476183098518500,7.8525185546875,-4.522114436593651,-1.9205244099766015,2.480131638637185
1761476183108554500,7.862554443359375,-6.989502913513779,-3.4134172816336155,3.395751276561618
1761476183118589700,7.872589599609375,-9.621295770692825,-3.786907479920983,2.761001420894265
1761476183128625700,7.882625732421875,-12.137369075804948,-3.278883723503351,0.8668310570970177
1761476183138660600,7.89266064453125,-13.427183260893822,-2.643404969039559,-2.296408663793653
1761476183148696600,7.902696533203125,-14.740299995636938,-1.6016329401001332,-5.478841160932183
1761476183158731800,7.912731689453125,-16.84249322440624,-0.5435474897414445,-7.397165430516004
1761476183168767700,7.922767822265625,-18.92509094134569,0.02717325360774994,-7.418869312801957
1761476183178802700,7.932802734375,-20.93911021209955,-0.6320104938313365,-5.056604175132513
1761476183188838000,7.942837890625,-21.277190658831596,-2.2783543900564314,-2.2633628648906945
1761476183198873900,7.952873779296875,-20.3849250084877,-3.4140450581431385,-0.0914738763436675
1761476183208908800,7.96290869140625,-18.906283365023135,-3.9253319080099462,0.896783566159755
1761476183218944800,7.97294482421875,-16.553795525002478,-4.417158562864363,0.9649097385331987
1761476183228979700,7.982979736328125,-13.99907129445672,-4.602159156428277,0.47725876192823047
1761476183239015700,7.993015625,-11.51367136002779,-4.55933416018039,-0.3386241982199251
1761476183249050600,8.003050537109376,-8.402593349659442,-4.449515941111743,-1.310918347916007
1761476183259086600,8.013086669921876,-5.314466591289639,-3.6987691777408123,-2.0829079519324005
1761476183269118700,8.02311865234375,-2.9189707996696233,-2.928434501324594,-2.5289140819847584
1761476183279154700,8.03315478515625,-1.2413380312114952,-2.1083748400136826,-2.1880109790474176
1761476183289189600,8.043189697265625,-0.24141338565945625,-1.4129916519463062,-1.3423102421320974
1761476183299224600,8.053224609375,0.42225685954391956,-0.9640180503904819,-0.6094641693718731
1761476183309260500,8.063260498046875,1.1297498798608778,-0.44423517485708,-0.19520722254067657
1761476183319295700,8.073295654296874,1.7185101377695797,0.26384499769806863,0.26414105803519483
1761476183329331700,8.083331787109374,2.403175824728608,0.7695284745998681,0.8821732953965663
1761476183339366400,8.093366455078124,3.2985189828217027,1.011900768419355,1.4905669129274786
1761476183349402400,8.10340234375,4.45150828397274,0.8139801952667534,1.8535719575576484
1761476183359437600,8.1134375,5.788636008900403,0.7844105480417609,1.7905792025499045
1761476183369472500,8.123472412109376,7.077737661805749,1.421641991391778,1.6526877122938632
1761476183379508500,8.133508544921876,7.92502669082582,2.16474452361986,1.7899837208747862
1761476183389543200,8.143543212890625,8.427959846106171,2.26145030926764,2.147537806622684
1761476183399579400,8.153579345703125,9.09622969405949,1.9271056880630553,2.6466496500492096
1761476183409614300,8.1636142578125,9.74935691793859,1.7475053461074828,3.038434506700933
1761476183419650300,8.173650390625,10.35190137104988,1.8050205464869737,3.176150201998651
1761476183429685200,8.183685302734375,10.948268012309073,2.060622908757627,3.104661713585257
1761476183439720400,8.193720458984375,11.272249791061878,2.454788230805099,2.9918960428878663
1761476183449756400,8.20375634765625,11.491660603749752,2.7048800129607318,2.9253087705194947
1761476183459791400,8.213791259765625,11.73417172151804,2.5928967248126864,2.647359259623289
1761476183469827300,8.223827392578125,11.679348244440554,2.5341210029780865,2.334770981544256
1761476183479862500,8.233862548828125,11.314919889008998,2.7261308907821773,2.266657084130496
1761476183489898500,8.2438984375,10.888649117648601,2.814035091945529,2.264354360146075
1761476183499933400,8.253933349609374,10.468636237639188,2.8620377830922603,2.3046176892124115
1761476183509968400,8.263968505859374,10.105053100860118,2.9622885478705165,2.3269722904920576
1761476183520004600,8.274004638671874,9.75825041849017,3.0144375450417398,2.267237075975537
1761476183530039300,8.284039306640626,9.437850589877366,3.019890549750626,2.1212435278065502
1761476183540075300,8.2940751953125,9.180208538472652,3.0993741285711525,2.032273450977355
1761476183550110500,8.3041103515625,8.688358502742648,3.13321034719944,2.022741652522236
1761476183560146400,8.314146484375,8.21884187937379,2.850439115235209,1.719515661550313
1761476183570181400,8.324181396484375,8.080117299294471,2.6657413040101527,1.260648880881071
1761476183580216300,8.33421630859375,7.865394936683773,2.905695430772006,0.9970032051473855
1761476183590252300,8.344252197265625,7.300353408014774,3.055359630277753,0.9310480932027101
1761476183600287500,8.35428759765625,6.443514460361003,2.6707284447729585,0.9362344097994267
1761476183610323500,8.364323486328125,5.268904279032349,1.8489993889451026,0.7347628661669791
1761476183620358400,8.3743583984375,4.001253410434723,1.3705831275448201,0.6004259996525942
1761476183630394400,8.384394287109375,1.917908674520254,0.6146092771753668,0.4055468400225043
1761476183640429600,8.3944296875,-0.8152484616369009,-0.9052136869832873,0.7763752717547118
1761476183650464300,8.40446435546875,-3.045444385462999,-2.5612252830028535,1.5938596757501362
1761476183660500200,8.414500244140624,-4.95379203543365,-3.909976225706935,2.338651183978468
1761476183670535400,8.424535400390624,-7.437678642690181,-4.981530521708726,2.081162131178379
1761476183680571400,8.4345712890625,-11.13658459855318,-4.711635137930513,0.15527940903902052
1761476183690606300,8.4446064453125,-14.948513707005977,-3.0647654642656446,-3.189311004605889
1761476183700642300,8.454642333984374,-18.738450763881204,-1.2957608185335994,-7.099578322213888
1761476183710677500,8.464677490234376,-21.66066039934158,0.03005421587154269,-9.544551553708315
1761476183720712400,8.47471240234375,-23.86060439276695,0.45202100642770526,-9.516591533637046
1761476183730748400,8.48474853515625,-24.922961236834524,0.17736016181334852,-7.805243542581796
1761476183740783400,8.494783447265625,-24.880136825108526,-0.2822504229605198,-5.307029719287157
1761476183750819300,8.5048193359375,-24.21835049395561,-0.49475189465135333,-3.208414933526516
1761476183760854500,8.5148544921875,-23.017020063483713,-0.7566292455382645,-2.0416646719180047
1761476183770889200,8.52488916015625,-21.26127763490677,-1.1606354319900274,-1.5667885673426092
1761476183780925400,8.534925537109375,-18.909357950162885,-1.5878762174263596,-1.350002257939428
1761476183790960400,8.54496044921875,-16.146222439849375,-1.9701598168916998,-1.2047102821685374
1761476183800996400,8.554996337890625,-12.433134813898802,-2.699473477742076,-1.4221768289208412
1761476183811031300,8.56503125,-8.156642905092239,-3.3547476505219933,-1.7639317263819276
1761476183821067300,8.5750673828125,-4.6968584245592355,-3.241630389907956,-1.7531737471327185
1761476183831102500,8.5851025390625,-2.706502937987447,-2.7283699018806216,-1.290699735751748
1761476183841137400,8.595137451171874,-1.8706658618301153,-2.088274447401613,-1.0010627096712588
1761476183851177500,8.605177490234375,-0.989622447246313,-1.208774462867528,-0.928734701693803
1761476183861212400,8.61521240234375,0.06854746652543545,-0.4069100911997258,-1.0706180380649863
1761476183871248400,8.625248291015625,1.2684382195830344,0.2271018055818975,-0.9364658804677426
1761476183881283300,8.635283447265625,2.665132232201099,0.7263458970859646,-0.5239350267767906
1761476183891319600,8.645319580078125,4.213395108902454,1.0684349949374794,0.19215791797265408
1761476183901354200,8.655354248046875,5.6889890552341935,1.208945581650734,1.1069003346711397
1761476183911390200,8.66539013671875,7.275194416838884,1.4417258712604641,1.7973900516085326
1761476183921425400,8.67542529296875,8.755162340471148,1.757571982091665,2.298155215200037
1761476183931460400,8.68546044921875,10.068770658123492,2.027912479288876,2.6488860307991504
1761476183941496300,8.695496337890624,11.30889113023877,2.347161676561832,2.8365362620890138
1761476183951531500,8.705531494140626,12.221791572332382,2.670838919410109,2.902425907582044
1761476183961567500,8.7155673828125,12.654031481230259,2.725167014186084,2.8123613135144114
1761476183971602400,8.7256025390625,13.240690382945537,2.734414150480926,2.940316370037198
1761476183981637400,8.735637451171876,13.474022168958186,2.859521708618104,3.025530309203267
1761476183991673300,8.74567333984375,13.063718197536467,3.175933928899467,2.639618143977225
1761476184001708500,8.75570849609375,12.846823167061805,3.3528505847290155,2.67574247354269
1761476184011744500,8.76574462890625,12.68209671524167,3.1302237326040863,2.861674794998765
1761476184021779200,8.775779296875,12.444697825920581,3.1105063479602335,2.8896108496725557
1761476184031814400,8.785814453125,12.538632831680774,3.3207764073371884,2.6404391049712896
1761476184041850400,8.795850341796875,12.481618566560744,3.5732276121005415,2.3841139813840386
1761476184051885300,8.80588525390625,12.133439919662475,3.7809643536075948,2.183902520815283
1761476184061921300,8.81592138671875,11.636079596078396,3.86914152649343,2.047430688098818
1761476184071956500,8.82595654296875,11.115625981676578,3.9664959853082893,2.0032582227647304
1761476184081992400,8.835992431640625,10.467019450092316,4.163571047547459,1.8527284924708305
1761476184092027400,8.84602734375,9.597614450854062,4.36634373690635,1.669234357947111
1761476184102062300,8.856062255859374,8.677596285709738,4.41588518192768,1.5583891339182854
1761476184112098600,8.8660986328125,7.76017865845263,4.225336306586861,1.4946128273174166
1761476184122133500,8.876133544921874,6.649840166026354,4.027437068483233,1.3258356388017534
1761476184132169500,8.88616943359375,5.584143363881111,3.7267081550240513,0.8244329079590738
1761476184142204200,8.8962041015625,4.708652322727442,3.297762903757393,0.2847469159513712
1761476184152239400,8.9062392578125,3.631123628491163,2.6432489016950127,-0.20862112312614917
1761476184162275300,8.916275390625,2.5088082825452087,1.8953584045380354,-0.398683237863332
1761476184172310300,8.926310302734375,1.0839923372924327,1.0620865026935935,-0.17817527758851645
1761476184182346200,8.93634619140625,-0.49236616855859755,-0.22775836979448794,0.12657872666828335
1761476184192381400,8.94638134765625,-1.9839561409235,-1.9431825242474674,0.41750886129923165
1761476184202416400,8.95641650390625,-3.53334714487195,-3.843764216391742,1.092047779584676
1761476184212452400,8.966452392578125,-5.4317801345497365,-5.579891551655531,1.2503572039693593
1761476184222487600,8.976487548828125,-7.981371093860268,-5.920238189753889,0.17369411358647047
1761476184232523500,8.9865234375,-11.515551182425021,-5.249153868901729,-1.430824830278754
1761476184242558500,8.996558349609375,-14.306584753489494,-4.126537494182586,-4.034464190641045
1761476184252593400,9.006593505859374,-15.708668057930469,-2.7784377088636156,-7.102661090660095
1761476184262629600,9.016629638671875,-16.770222937965393,-1.380621121956408,-8.751307418608665
1761476184272664300,9.026664306640624,-18.223913680046795,-0.5923191194340587,-8.221531264588236
1761476184282699300,9.03669921875,-19.299318221735952,-0.8541536540925502,-5.989608663100004
1761476184292735200,9.0467353515625,-19.388423907643556,-1.9335189161062238,-3.280345612749457
1761476184302770400,9.0567705078125,-18.808833044618368,-3.159026925501227,-1.1780870636589824
1761476184312806400,9.066806396484376,-18.03960574492216,-3.9346456798002123,-0.004807619477435946
1761476184322841300,9.07684130859375,-16.248573391777278,-4.283048490843177,0.3103963209927082
1761476184332876000,9.0868759765625,-13.900665865284203,-4.21159361243844,-0.005180690573528409
1761476184342912000,9.096912109375,-11.523044753050803,-3.8133641096919773,-0.17513137984797358
1761476184352947000,9.106947021484375,-8.653246272829174,-3.544878884972632,-0.5824259403206408
1761476184362983000,9.11698291015625,-5.788329719430208,-3.260543180170655,-1.1434836600504814
1761476184373017900,9.127017822265625,-3.5243016686290503,-2.7430574756637216,-1.7925199613541363
1761476184383052800,9.137052734375,-1.51229607578516,-2.0967282413616775,-2.295858628695458
1761476184393088800,9.1470888671875,0.3302431772351265,-1.542096755287051,-2.3765458842173217
1761476184403124000,9.1571240234375,1.5265642551124095,-1.0294090987116098,-2.0819733014307915
1761476184413160000,9.167159912109375,2.1108727943092584,-0.5374497573882341,-1.5482986786670982
1761476184423195000,9.17719482421875,2.2914736916095015,-0.1532464419066906,-0.7982530493028461
1761476184433229800,9.187229736328124,2.3420254827171565,0.1084801023326814,-0.24078648593276739
1761476184443265800,9.197265869140624,2.402864859083295,0.4425279325477779,0.36519904754310845
1761476184453301000,9.207301025390626,2.6252766071528195,0.708262981776148,0.5827054879143834
1761476184463337000,9.2173369140625,3.1402836465865374,1.2157459093153475,0.6409139312550425
1761476184473372000,9.227371826171876,4.124495174700021,1.7750136768884957,0.7686570985928177
1761476184483406800,9.23740673828125,5.079148015373945,1.9489177068985997,0.8528660985000431
1761476184493443000,9.247443115234375,6.0137353886187075,1.7861439965814352,0.9687952016644179
1761476184503477800,9.257477783203125,7.114509349364042,1.5812581144608557,1.0969865511611103
1761476184513513700,9.267513671875,8.02068077546358,1.828731384681165,1.2398201739944517
1761476184523549000,9.277548828125,8.738572440198062,2.1413976964324712,1.4797088343046605
1761476184533584000,9.287583984375,9.290786635997891,2.2175661593556404,1.812852847547829
1761476184543619800,9.297619873046875,9.759064072960614,2.1461209255620837,2.156304758185148
1761476184553654800,9.30765478515625,9.99065047661066,2.1187965730458496,2.3781740699410436
1761476184563690000,9.31768994140625,10.046254874932766,2.0732272465258834,2.521396545961499
1761476184573726000,9.327725830078125,10.254445205426215,1.9732748801723121,2.481242522488534
1761476184583761000,9.337760986328124,10.422357301545143,1.8946803591459989,2.448169397187233
1761476184593796900,9.347796875,10.432407570916414,1.9215373864114282,2.3293939646810293
1761476184603832000,9.35783203125,10.4919633372128,2.044772428674996,2.078243028861284
1761476184613866800,9.36786669921875,10.289232441169023,2.321348313130438,1.7791832176581024
1761476184623902700,9.37790283203125,9.772442025449871,2.592173963496089,1.5355826972179114
1761476184633938000,9.38793798828125,9.428087320753932,2.646268541777134,1.3442135915353894
1761476184643972900,9.397972900390625,8.962991436436772,2.5841177905514834,1.1133946651265025
1761476184654008800,9.4080087890625,8.53947025604546,2.7474574641883374,1.0884972474962473
1761476184664043800,9.418043701171875,8.317868070793152,2.8063986057177184,0.9448998006835579
1761476184674080000,9.428080078125,7.92058666255176,2.737478214226663,0.7068336065601557
1761476184684115000,9.438114990234375,7.59329590538144,2.675219326451421,0.5607675046116113
1761476184694150000,9.44814990234375,7.126535302722454,2.5027342233285306,0.3631738253258168
1761476184704185900,9.458185791015625,6.325282048690319,2.279938152116537,0.18756182235404847
1761476184714221000,9.468220947265625,5.34348401145935,1.9392305717512963,0.10546806103512645
1761476184724255700,9.478255859375,4.012676137202978,1.165792960883677,-0.2986005231283605
1761476184734291700,9.488291748046874,1.9271739309936762,0.4502303236186504,-0.5879078788630664
1761476184744327000,9.498326904296874,-0.171912563931942,-0.24464228457808493,-0.26432949327938254
1761476184754363000,9.50836279296875,-1.8567893121689556,-1.43416157348603,-0.006760360980406403
1761476184764397800,9.518397705078126,-3.411714569368958,-2.6286788168117403,0.4248364642409608
1761476184774433000,9.52843310546875,-5.097203312024474,-3.7099797230631113,1.3969038559764624
1761476184784469000,9.538468994140626,-6.907167744654417,-4.952117964741587,1.5903599970661102
1761476184794504000,9.54850390625,-9.932035790556668,-5.294390017944574,0.917040683703497
1761476184804539000,9.558538818359375,-12.988612979930638,-4.262074676397442,-0.6858336347598583
1761476184814574800,9.568574951171875,-15.617412500512598,-2.5698256458267568,-2.9911107377290724
1761476184824610000,9.578610107421875,-16.876128952026367,-0.8249711064890026,-4.875898356153071
1761476184834646000,9.58864599609375,-17.668821298462152,0.5358868919856846,-5.61456305206418
1761476184844680700,9.5986806640625,-18.944687622219323,0.8124477250024675,-4.770809211432933
1761476184854716000,9.6087158203125,-19.41034698563814,0.2370211420498788,-2.528925772422552
1761476184864751900,9.618751953125,-19.217492171442508,-0.6088498368658125,-0.6343590297188609
1761476184874786800,9.628786865234375,-18.35223844666481,-1.4092121334075927,0.3807731583697721
1761476184884822000,9.638822021484375,-16.554330947053433,-2.337283548887074,0.910515081327036
1761476184894858000,9.64885791015625,-13.85046595635414,-3.41657837601304,0.9252879222407937
1761476184904893000,9.658892822265624,-11.151702672708034,-3.757216690534353,0.5837505765205249
1761476184914927900,9.668927978515624,-8.30604611557424,-3.693928167450428,0.2003772090571001
1761476184924963800,9.6789638671875,-5.413294045266508,-3.6144945652514693,-0.21684293496124446
1761476184934999000,9.6889990234375,-3.176551476275921,-3.18598975122869,-0.19042064585126936
1761476184945035000,9.699034912109376,-1.638439406710863,-2.512974754574895,0.1954416888836771
1761476184955069700,9.709069580078125,-0.40833471717536446,-1.9895643361940978,0.47441075208596883
1761476184965105000,9.71910498046875,0.45268473103344437,-1.5210104203775525,0.5159952467534691
1761476184975140900,9.729140869140625,1.3479992475539444,-0.8702262524932622,0.4653392646189779
1761476184985175800,9.73917578125,2.2244179249465463,-0.16090119444355366,0.2405051117081195
1761476184995211000,9.7492109375,3.0237855113625525,0.39125747177675363,-0.004340951813757419
1761476185005247000,9.7592470703125,3.5757881102383133,0.7732469106011092,-0.06995689493194222
1761476185015282000,9.769281982421875,4.135471911266446,1.2244031168930232,0.14018530028164386
1761476185025316900,9.77931689453125,4.86639666057527,1.367601189124584,0.32008696327134967
1761476185035352800,9.789352783203125,5.2099342036694285,1.4395434126548468,0.6146541392304002
1761476185045388000,9.799387939453124,5.335016042843461,1.362860716599226,0.9157549547418952
1761476185055424000,9.809424072265625,5.51487810447514,1.3559031525462866,1.0503216844893992
1761476185065459000,9.819458984375,5.849008352276683,1.5660329266697168,1.0338200470216572
1761476185075494000,9.829493896484376,6.359599913355708,1.7567010444760323,0.9548815348632633
1761476185085529900,9.83952978515625,7.098699201291799,1.8219234582319854,0.9883281696520745
1761476185095564800,9.849564697265626,7.678525042116641,1.7782433064594865,1.2253722541861236
1761476185105600000,9.85960009765625,8.089588307473063,1.666097521226108,1.4477908703878521
1761476185115636000,9.869635986328126,8.544853118127584,1.6487085795298217,1.664155301117152
1761476185125671000,9.8796708984375,9.119012019231915,1.3927690942592919,1.9641279893815515
1761476185135705900,9.889705810546875,9.552515664455294,1.0590409975178539,2.1463895133703947
1761476185145741800,9.899741943359375,9.774395497605203,0.7906466659523547,2.1894641004651785
1761476185155777000,9.909777099609375,9.834043033838272,0.6923319838032126,2.1284739174515006
1761476185165812000,9.91981201171875,9.745991825419663,0.807993375942111,1.9826237232759594
1761476185175848000,9.929847900390625,9.398664826914667,1.0618272672355173,1.5987152990877627
1761476185185883000,9.9398828125,9.277629632782936,1.4436185531392693,1.261724985679984
1761476185195917800,9.949917724609374,9.334227133795618,1.772863366986811,1.0917263656105844
1761476185205953800,9.959953857421874,8.993476591071486,1.9811583268985151,0.8282330308943986
1761476185215989000,9.969989013671874,8.546993637287617,1.9915441118344663,0.6707216250196099
1761476185226025000,9.98002490234375,8.280244150319694,1.5783192845299838,0.7895559481061994
1761476185236060000,9.990059814453126,7.711088172069191,1.1482555506274104,0.9959469010274856
1761476185246094800,10.0000947265625,6.979006653940678,1.0160364069193601,0.9872533800274134
1761476185256130800,10.010130859375,6.136361651334166,0.9555889524802565,0.6041348641078919
1761476185266166000,10.020166015625,5.069486453059316,0.8743988620027899,0.09458287520967423
1761476185276201000,10.030200927734375,4.1756174591720105,0.7316077631369232,-0.23991138359867034
1761476185286237000,10.04023681640625,3.0246529418468473,0.5123989027619361,-0.4033133453493938
1761476185296272000,10.05027197265625,1.8162515500754117,-0.03299596841186285,-0.21042415396012365
1761476185306306800,10.060306884765625,0.32460312552154064,-0.9869450447306036,0.53833413900733
1761476185316342800,10.0703427734375,-1.9391431857287882,-2.3705162486642597,1.3428748902775347
1761476185326378000,10.0803779296875,-4.7607232862263915,-3.6448283287167547,1.7716028455317019
1761476185336412700,10.09041259765625,-7.458226925200224,-4.019988506042957,1.547306014367938
1761476185346448600,10.10044873046875,-9.57031377147436,-3.3020033178061245,0.7471684664927423
1761476185356483600,10.110483642578124,-11.380858634340763,-2.194715152861178,-0.754893434721604
1761476185366518800,10.120518798828124,-13.790572336405514,-1.1015130886748432,-2.6113641093954443
1761476185376554800,10.1305546875,-15.345619174158573,0.25577859562039373,-3.923077407081425
1761476185386589700,10.140589599609376,-16.077622950875757,1.0386216020844876,-4.300903588746488
1761476185396624600,10.150624755859376,-16.654569436872006,0.5537332220606506,-3.6533404287353157
1761476185406660600,10.16066064453125,-16.724733106422423,-0.11904138996601105,-2.2076851090714333
1761476185416695600,10.170695556640625,-16.46835829847455,-0.3326346024163067,-0.819405289055407
1761476185426730800,10.180730712890625,-16.165413462531564,-0.37872473793998357,0.32531083539947864
1761476185436766700,10.1907666015625,-15.026103142642974,-0.8348243919834494,0.6734167823877185
1761476185446801700,10.2008017578125,-13.397870657169818,-1.3160397825829684,0.5791926574878394
1761476185456836600,10.210836669921875,-11.56962062626481,-1.5401871222734451,0.533835329750739
1761476185466872600,10.22087255859375,-9.596457097512483,-1.6762240707039833,0.497139666570723
1761476185476907800,10.23090771484375,-7.737809590256214,-1.6225265289165078,0.34842988171298056
1761476185486942700,10.240942626953125,-6.000961247241497,-1.2706651018522679,0.1171239024395123
1761476185496978700,10.250978759765625,-4.215234599289298,-0.8202187973953783,-0.03321322789173573
1761476185507013600,10.261013671875,-2.548099843969941,-0.3477820487961173,-0.0401664445631206
1761476185517048600,10.271048583984374,-0.7925888860613107,0.03170812055841088,0.005720715734362602
1761476185527084500,10.28108447265625,0.8246884901553392,0.5063204596310854,0.006759849523752927
1761476185537119700,10.29111962890625,2.213347664877772,0.8081915288627147,-0.11233312449902295
1761476185547154700,10.30115478515625,2.991863017401099,0.9055047788843512,0.02701784385032952
1761476185557190700,10.311190673828126,3.159553579723835,0.7796738749086857,0.34391558262631294
1761476185567225600,10.3212255859375,3.5494670895457268,0.6043424424439668,0.5215856141064316
1761476185577260800,10.3312607421875,4.084733073154092,0.662574120529741,0.5433765901539475
1761476185587296800,10.341296875,4.8539825846821065,0.9492601878501474,0.5706497970048338
1761476185597331700,10.351331787109375,5.532339526885748,1.0710429124135523,0.7175859597861767
1761476185607366700,10.36136669921875,5.937044363126159,1.0453941649593412,1.085268860034272
1761476185617402600,10.371402587890625,6.297548238590359,1.0465193695969879,1.5892995282277464
1761476185627437600,10.3814375,6.507823558664321,0.9093453799605369,2.0163604270525277
1761476185637472500,10.391472412109374,6.901175810763239,0.6629933688551187,2.2706471766799687
1761476185647508700,10.4015087890625,7.457025732716917,0.4881114337235689,2.3270433099016548
1761476185657543700,10.411543701171874,8.101614260831475,0.40819223996475335,2.3439707715660334
1761476185667578600,10.42157861328125,8.722863998934626,0.44935500208884477,2.1878690863586963
1761476185677614600,10.431614501953124,9.114442227098346,0.6037998599998653,1.937890263058245
1761476185687649800,10.44164990234375,9.243339240646362,0.870558553187549,1.6761869535639882
1761476185697684700,10.451684814453126,9.151905404052139,1.0993160170219838,1.6532507530041038
1761476185707720700,10.461720703125,9.00443286937177,1.0813909226223826,1.4680558059118687
1761476185717755600,10.471755615234375,8.905700107941032,1.0670654601499439,1.2153212541624903
1761476185727790600,10.48179052734375,8.901212733393907,1.0290350047022103,0.890299903228879
1761476185737826600,10.49182666015625,8.874331740731,0.9840426012873649,0.4279280005155131
1761476185747861500,10.501861572265625,8.637623171761632,1.2296940629079938,0.08850318996980786
1761476185757896700,10.511896728515625,8.25556037544012,1.5468556402519344,-0.10819145811703056
1761476185767932700,10.5219326171875,7.550102075821161,1.721598166912794,-0.1701191046439111
1761476185777967600,10.531967529296875,6.545441049396992,1.7620982273444532,-0.19237658395832402
1761476185788002800,10.5420029296875,5.594703336340189,1.5961583080813289,-0.16855739001883194
1761476185798038800,10.552038818359375,4.75222083081901,1.0722352640032768,-0.16539770214520394
1761476185808073700,10.56207373046875,4.51667253780067,0.5911325399979949,-0.2890643772916868
1761476185818108700,10.572108642578126,4.293105774477124,0.149879303561151,-0.5599144314462319
1761476185828144600,10.58214453125,3.555141628050804,-0.4708326744034886,-0.7373933608010411
1761476185838179600,10.5921796875,2.4370278254479167,-1.1813742686361073,-0.762175627619028
1761476185848214500,10.602214599609376,0.42692602039873595,-1.8076655080378055,-0.5640309633869678
1761476185858250500,10.61225048828125,-0.9781178874135017,-2.1412232166483998,0.03860040082279593
1761476185868285700,10.62228564453125,-2.432501287934184,-2.3488354549929498,0.6719361884411424
1761476185878320600,10.632320556640625,-3.847957284167409,-2.455834232726693,0.858822230425477
1761476185888355800,10.64235595703125,-4.759013559699058,-2.251470767045021,0.7459780145991594
1761476185898391800,10.652391845703125,-5.505238169470429,-1.7676959012210367,0.17686932782279327
1761476185908426800,10.6624267578125,-6.930293184176087,-1.3584215651080012,-0.6720386989675462
1761476185918461400,10.67246142578125,-8.177540731692314,-1.0960720666646957,-1.4204538045205175
1761476185928497700,10.68249755859375,-8.584978792288899,-0.83675360648036,-1.7269716766446828
1761476185938532600,10.69253271484375,-9.297069077268242,-1.0655185229688882,-1.5120035225793718
1761476185948567600,10.702567626953124,-10.251171882843972,-1.4267150568723679,-0.8045633284281939
1761476185958603500,10.712603515625,-11.590855137473344,-1.2414333082795141,-0.43812513101156797
1761476185968638700,10.722638671875,-12.916903834503888,-0.6934758931413293,-0.4360755780706182
1761476185978673700,10.732673583984376,-13.241160338544844,-0.3711442196831107,-0.1388698703015223
1761476185988709600,10.742709716796876,-12.77003218832612,-0.3594853460714221,0.23033662278465925
1761476185998744800,10.752744873046876,-11.869783138012885,-0.5561179252400994,0.7045888963732868
1761476186008779800,10.76277978515625,-10.84758294776678,-0.9047272186405956,1.3084918514214456
1761476186018815700,10.772815673828125,-9.897172566968202,-1.309209059780091,1.634678739003092
1761476186028850400,10.782850341796875,-8.809592434316873,-1.589427976913005,1.3972425864115356
1761476186038885600,10.7928857421875,-7.44187667890191,-1.7387430707201361,0.8049193753242492
1761476186048921600,10.802921630859375,-5.681141848865151,-1.7506161716043949,0.11609028507545589
1761476186058956500,10.81295654296875,-4.200052227726578,-1.3503864349514245,-0.4685994354587048
1761476186068991700,10.82299169921875,-3.299768690621853,-0.4536130979247391,-0.6640661126531661
1761476186079026700,10.833026611328124,-3.2320436463952062,0.19604469627812504,-0.3909979440577328
