time,seconds_elapsed,z,y,x
1761476187223268900,0.109268798828125,-0.1963832825422287,-0.06749654561281204,-0.8050715923309326
1761476187233303600,0.119303466796875,-0.09887749701738358,-0.06248687580227852,-0.5154653191566467
1761476187243339500,0.129339599609375,-0.01784227415919304,-0.015851814299821854,-0.23748481273651123
1761476187253374500,0.13937451171875,0.03389628604054451,0.09662732481956482,0.022732112556695938
1761476187263409700,0.14940966796875,0.04187002032995224,0.20696638524532318,0.22817102074623108
1761476187273444600,0.159444580078125,0.02243560180068016,0.31659141182899475,0.3495906889438629
1761476187283480600,0.16948046875,-0.0022663897834718227,0.43208882212638855,0.40158170461654663
1761476187293515800,0.179515869140625,0.008893320336937904,0.5221577286720276,0.4253688156604767
1761476187303550700,0.18955078125,0.061050985008478165,0.5940713286399841,0.47655031085014343
1761476187313586700,0.199586669921875,0.14273785054683685,0.6341095566749573,0.5674975514411926
1761476187323621600,0.20962158203125,0.2527223825454712,0.6383813619613647,0.7007293105125427
1761476187333656600,0.219656494140625,0.38198742270469666,0.6246240139007568,0.8699764013290405
1761476187343689200,0.229689208984375,0.5057907104492188,0.5862113833427429,1.0690070390701294
1761476187353724200,0.23972412109375,0.6004365086555481,0.5193937420845032,1.2483046054840088
1761476187363759400,0.24975927734375,0.643458902835846,0.44468972086906433,1.3945984840393066
1761476187373794300,0.259794189453125,0.6663474440574646,0.41994574666023254,1.5020219087600708
1761476187383830300,0.269830322265625,0.684651792049408,0.419291615486145,1.5474077463150024
1761476187393865500,0.279865478515625,0.6858949661254883,0.42633166909217834,1.5231658220291138
1761476187403900400,0.289900390625,0.6457133293151855,0.431964248418808,1.4284340143203735
1761476187413936400,0.299936279296875,0.5831742882728577,0.39516550302505493,1.3078298568725586
1761476187423971300,0.309971435546875,0.5225109457969666,0.26056134700775146,1.1536469459533691
1761476187434006300,0.32000634765625,0.4882499575614929,0.06661345064640045,0.993667721748352
1761476187444042200,0.330042236328125,0.48919427394866943,-0.08341169357299805,0.8776417970657349
1761476187454077200,0.3400771484375,0.5457445979118347,-0.16960597038269043,0.866870105266571
1761476187464112400,0.3501123046875,0.6530386209487915,-0.13545699417591095,0.9245452284812927
1761476187474147300,0.360147216796875,0.7763711810112,-0.024866562336683273,0.9876392483711243
1761476187484183300,0.370183349609375,0.9369487762451172,0.10996275395154953,1.0219587087631226
1761476187494218200,0.38021826171875,1.106955885887146,0.36190977692604065,1.05802583694458
1761476187504253400,0.39025341796875,1.1895201206207275,0.6112946271896362,1.0990657806396484
1761476187514289400,0.400289306640625,1.1505208015441895,0.663165271282196,1.154100775718689
1761476187524324400,0.410324462890625,0.9551666975021362,0.5172759890556335,1.1567741632461548
1761476187534359300,0.420359375,0.7309394478797913,0.06257397681474686,1.054173231124878
1761476187544394200,0.430394287109375,0.6452118158340454,-0.5449965596199036,0.8185421228408813
1761476187554430200,0.44043017578125,0.7278696894645691,-1.275861144065857,0.4446750581264496
1761476187564465400,0.45046533203125,0.9537563323974609,-2.07895827293396,-0.01365705393254757
1761476187574500400,0.460500244140625,1.2332582473754883,-2.5081334114074707,-0.5921105146408081
1761476187584536300,0.470536376953125,1.3606972694396973,-2.052283525466919,-1.2928801774978638
1761476187594571300,0.4805712890625,1.1858735084533691,-0.7323417067527771,-2.0700042247772217
1761476187604606500,0.4906064453125,0.7622547745704651,0.8077067136764526,-2.768524408340454
1761476187614642400,0.500642333984375,0.3521234095096588,1.8140289783477783,-3.2292213439941406
1761476187624677400,0.510677490234375,0.12412199378013611,1.9868643283843994,-3.3232674598693848
1761476187634712300,0.52071240234375,0.04012935236096382,1.4603334665298462,-3.053455352783203
1761476187644747300,0.530747314453125,-0.05528031289577484,0.514228343963623,-2.536285877227783
1761476187654783200,0.540783203125,-0.19915306568145752,-0.6244248151779175,-1.8999862670898438
1761476187664818200,0.550818115234375,-0.3102633059024811,-1.7843228578567505,-1.231842041015625
1761476187674853400,0.560853271484375,-0.26957258582115173,-2.777116298675537,-0.6010779142379761
1761476187684889300,0.570889404296875,0.0017526829615235329,-3.2771263122558594,-0.1527865082025528
1761476187694924300,0.58092431640625,0.38539862632751465,-3.1327011585235596,-0.00007126480340957642
1761476187704959500,0.59095947265625,0.6846221685409546,-2.5215368270874023,-0.13963423669338226
1761476187714995500,0.600995361328125,0.8401741981506348,-1.6734305620193481,-0.4158748984336853
1761476187725030400,0.611030517578125,0.8234848380088806,-0.7712394595146179,-0.7353796362876892
1761476187735065300,0.6210654296875,0.64107745885849,-0.037784643471241,-1.0103925466537476
1761476187745100300,0.631100341796875,0.4188271760940552,0.3285575211048126,-1.1652212142944336
1761476187755136300,0.64113623046875,0.21143215894699097,0.3106091320514679,-1.1471399068832397
1761476187765171200,0.651171142578125,0.03709147870540619,0.06733500957489014,-0.9477634429931641
1761476187775206400,0.661206298828125,-0.09574566781520844,-0.34391430020332336,-0.5627044439315796
1761476187785242400,0.671242431640625,-0.20973654091358185,-0.6521037817001343,-0.004837902262806892
1761476187795277300,0.68127734375,-0.29856520891189575,-0.7543156147003174,0.6899035573005676
1761476187805312500,0.6913125,-0.35579514503479004,-0.5420416593551636,1.4036113023757935
1761476187815348500,0.701348388671875,-0.3777520954608917,-0.21002241969108582,1.954965591430664
1761476187825383400,0.711383544921875,-0.448536217212677,0.035014305263757706,2.2462661266326904
1761476187835418000,0.721418212890625,-0.5269295573234558,0.209659606218338,2.3308074474334717
1761476187845453300,0.731453369140625,-0.5581120848655701,0.4334792196750641,2.286296844482422
1761476187855489300,0.7414892578125,-0.4914547801017761,0.5845696926116943,2.0696470737457275
1761476187865524200,0.751524169921875,-0.2934466302394867,0.4481065273284912,1.7083582878112793
1761476187875559400,0.761559326171875,-0.04916442930698395,0.2214781790971756,1.3493857383728027
1761476187885595400,0.771595458984375,0.1651453971862793,0.05257811024785042,1.0488494634628296
1761476187895630300,0.78163037109375,0.22855259478092194,0.025178708136081696,0.7902881503105164
1761476187905665300,0.791665283203125,0.15692642331123352,0.06875531375408173,0.6081458330154419
1761476187915700200,0.8017001953125,-0.0008285939693450928,0.15041156113147736,0.5132811069488525
1761476187925736400,0.811736328125,-0.18964916467666626,0.25596457719802856,0.4428730905056
1761476187935771100,0.821771240234375,-0.37143412232398987,0.3834839165210724,0.39502301812171936
1761476187945806300,0.831806396484375,-0.47400516271591187,0.40012040734291077,0.40917983651161194
1761476187955842300,0.84184228515625,-0.44679006934165955,0.3157519996166229,0.46835288405418396
1761476187965877200,0.851877197265625,-0.33015114068984985,0.1469443142414093,0.5188055038452148
1761476187975912400,0.861912353515625,-0.1934015452861786,-0.07635214924812317,0.554663896560669
1761476187985948400,0.871948486328125,-0.09656123071908951,-0.20780761539936066,0.5445254445075989
1761476187995983400,0.8819833984375,-0.054961852729320526,-0.13830018043518066,0.4641706645488739
1761476188006018300,0.892018310546875,-0.015150315128266811,-0.005379496142268181,0.3469541072845459
1761476188016053200,0.90205322265625,-0.019403116777539253,0.09277848899364471,0.17424465715885162
1761476188026089500,0.91208935546875,-0.070651113986969,0.1511107236146927,0.002394408918917179
1761476188036124200,0.922124267578125,-0.07327006012201309,0.1282498836517334,-0.08401557803153992
1761476188046159400,0.932159423828125,0.057460278272628784,-0.041364531964063644,0.006464553065598011
1761476188056195300,0.9421953125,0.29426854848861694,-0.14851336181163788,0.19604194164276123
1761476188066230300,0.952230224609375,0.48367980122566223,-0.16839586198329926,0.18668343126773834
1761476188076265200,0.96226513671875,0.42800137400627136,-0.33562612533569336,-0.3754528760910034
1761476188086301400,0.972301513671875,0.0963464304804802,-0.7955356240272522,-1.50798499584198
1761476188096336400,0.98233642578125,-0.30868443846702576,-1.2406102418899536,-2.7513837814331055
1761476188106371300,0.992371337890625,-0.5585684180259705,-1.1632237434387207,-3.6080234050750732
1761476188116406300,1.00240625,-0.5719968676567078,-0.1653529852628708,-4.010620594024658
1761476188126442500,1.0124423828125,-0.4221883714199066,1.2691588401794434,-4.080099582672119
1761476188136477200,1.022477294921875,-0.08735150843858719,2.3910152912139893,-3.723292589187622
1761476188146512400,1.032512451171875,0.2583714723587036,2.7200539112091064,-2.9815614223480225
1761476188156548400,1.04254833984375,0.37908804416656494,2.0430352687835693,-1.992832064628601
1761476188166583300,1.052583251953125,0.3714635670185089,0.7340422868728638,-0.8613090515136719
1761476188176618200,1.0626181640625,0.3700188100337982,-0.6662629842758179,0.3042415380477905
1761476188186654200,1.072654296875,0.39635202288627625,-1.8237979412078857,1.3328043222427368
1761476188196689400,1.082689453125,0.4662059545516968,-2.4204957485198975,2.1198596954345703
1761476188206724400,1.092724365234375,0.5703234076499939,-2.1789252758026123,2.4731342792510986
1761476188216759300,1.10275927734375,0.6179231405258179,-1.4566940069198608,2.2941203117370605
1761476188226795300,1.112795166015625,0.5778923630714417,-0.5415857434272766,1.7276095151901245
1761476188236830200,1.122830322265625,0.5089647173881531,0.2073207050561905,1.0691754817962646
1761476188246865200,1.132865234375,0.4190215766429901,0.5791759490966797,0.5793721675872803
1761476188256901400,1.1429013671875,0.2616671025753021,0.6070765852928162,0.36935287714004517
1761476188266936300,1.152936279296875,0.11237543076276779,0.3617616891860962,0.43707209825515747
1761476188276971300,1.16297119140625,0.03027976304292679,-0.013891275972127914,0.6879056096076965
1761476188287006500,1.17300634765625,-0.03524358570575714,-0.28483331203460693,0.9747434854507446
1761476188297042400,1.18304248046875,-0.10203593224287033,-0.4233246147632599,1.1821801662445068
1761476188307077400,1.193077392578125,-0.16040073335170746,-0.4419030547142029,1.2502918243408203
1761476188317112300,1.2031123046875,-0.20155589282512665,-0.2783926725387573,1.1732752323150635
1761476188327148300,1.213148193359375,-0.2207789421081543,0.025378774851560593,1.0335862636566162
1761476188337184000,1.22318408203125,-0.25832420587539673,0.3598523736000061,0.8755673766136169
1761476188347219000,1.233218994140625,-0.3155719041824341,0.5302031636238098,0.7611809372901917
1761476188357254000,1.24325390625,-0.3669780492782593,0.4694631099700928,0.6799497008323669
1761476188367289900,1.253289794921875,-0.4082469642162323,0.26273202896118164,0.6471124887466431
1761476188377324800,1.26332470703125,-0.418958455324173,0.012965600937604904,0.6678020358085632
1761476188387359700,1.27335986328125,-0.3766400218009949,-0.17829589545726776,0.7405116558074951
1761476188397396000,1.28339599609375,-0.27297940850257874,-0.270946204662323,0.8399136066436768
1761476188407431000,1.293430908203125,-0.14614783227443695,-0.26688215136528015,0.9018174409866333
1761476188417465900,1.3034658203125,-0.029287531971931458,-0.18358460068702698,0.8799885511398315
1761476188427501000,1.3135009765625,0.015889961272478104,-0.05701750889420509,0.7802228331565857
1761476188437537000,1.323537109375,0.0016955789178609848,0.1390899419784546,0.6286868453025818
1761476188447572000,1.333572021484375,-0.07384704798460007,0.35419926047325134,0.420210063457489
1761476188457607000,1.34360693359375,-0.13864761590957642,0.49029290676116943,0.21306300163269043
1761476188467643000,1.353642822265625,-0.15690359473228455,0.48363128304481506,0.040838778018951416
1761476188477677800,1.363677734375,-0.13069568574428558,0.29763612151145935,-0.09165667742490768
1761476188487712800,1.373712646484375,-0.06955235451459885,0.036927659064531326,-0.1736859381198883
1761476188497748000,1.383748046875,-0.0015096552670001984,-0.17122581601142883,-0.21748483180999756
1761476188507784000,1.393783935546875,0.03959765285253525,-0.23446841537952423,-0.2297215759754181
1761476188517819000,1.40381884765625,0.07410848885774612,-0.19129538536071777,-0.25491559505462646
1761476188527854000,1.41385400390625,0.1352652758359909,-0.17394545674324036,-0.33212193846702576
1761476188537890000,1.42389013671875,0.1566493958234787,-0.28215503692626953,-0.4555056393146515
1761476188547925000,1.433925048828125,0.14664265513420105,-0.37147700786590576,-0.5485191941261292
1761476188557959700,1.443959716796875,0.14339813590049744,-0.37666457891464233,-0.5904319882392883
1761476188567995000,1.453994873046875,0.14202401041984558,-0.34202805161476135,-0.57423335313797
1761476188578030800,1.46403076171875,0.20544826984405518,-0.2697911262512207,-0.5047072768211365
1761476188588065800,1.474065673828125,0.2692664861679077,-0.1796889454126358,-0.5480551719665527
1761476188598101000,1.48410107421875,0.28623348474502563,-0.06911235302686691,-0.7444491982460022
1761476188608137000,1.494136962890625,0.2480049729347229,0.12252365052700043,-1.0575422048568726
1761476188618172000,1.504171875,0.14671403169631958,0.379631370306015,-1.4686235189437866
1761476188628206800,1.514206787109375,-0.05931689962744713,0.4686664342880249,-2.0727005004882812
1761476188638242000,1.524241943359375,-0.2366866171360016,0.4178788959980011,-2.7357003688812256
1761476188648278000,1.534278076171875,-0.32774731516838074,0.4127156734466553,-3.256214141845703
1761476188658312700,1.544312744140625,-0.3238985240459442,0.239990234375,-3.5248727798461914
1761476188668348000,1.554347900390625,-0.24077162146568298,0.058257922530174255,-3.5103890895843506
1761476188678382800,1.5643828125,-0.12855055928230286,0.13211296498775482,-3.2581679821014404
1761476188688418800,1.574418701171875,0.043658167123794556,0.5259762406349182,-2.7278616428375244
1761476188698454000,1.5844541015625,0.1996384561061859,0.9604416489601135,-1.8392678499221802
1761476188708489000,1.594489013671875,0.32623523473739624,1.0271899700164795,-0.7231247425079346
1761476188718525000,1.60452490234375,0.43913543224334717,0.555606484413147,0.3169781267642975
1761476188728559900,1.614559814453125,0.4190020263195038,-0.1395033597946167,1.1696839332580566
1761476188738595000,1.624594970703125,0.41801291704177856,-0.6813149452209473,1.7991204261779785
1761476188748629800,1.634629638671875,0.4261195957660675,-1.1502423286437988,2.136674404144287
1761476188758665700,1.644665771484375,0.39412838220596313,-1.410243272781372,2.1863465309143066
1761476188768701000,1.654700927734375,0.3252524435520172,-1.396074891090393,2.008246421813965
1761476188778735900,1.66473583984375,0.2712797522544861,-1.1770941019058228,1.6554174423217773
1761476188788770800,1.674770751953125,0.2749609351158142,-0.9004645347595215,1.2718093395233154
1761476188798806800,1.684806884765625,0.30447646975517273,-0.45975634455680847,0.9594740867614746
1761476188808842000,1.694842041015625,0.19328977167606354,0.011964058503508568,0.6976161003112793
1761476188818877000,1.704876953125,0.02039814367890358,0.23825418949127197,0.5817206501960754
1761476188828913000,1.714912841796875,-0.1625038981437683,0.19667385518550873,0.5892409682273865
1761476188838948000,1.724947998046875,-0.37079957127571106,-0.009382631629705429,0.680946409702301
1761476188848982800,1.734982666015625,-0.5665056109428406,-0.22886726260185242,0.8320923447608948
1761476188859017700,1.745017822265625,-0.6423177719116211,-0.3838605582714081,1.0116554498672485
1761476188869054000,1.755053955078125,-0.5695918202400208,-0.4331206977367401,1.2248680591583252
1761476188879089000,1.7650888671875,-0.42191606760025024,-0.3665502071380615,1.451757550239563
1761476188889123800,1.775123779296875,-0.2855563461780548,-0.2611418664455414,1.648840308189392
1761476188899159000,1.785158935546875,-0.21755732595920563,-0.1359163075685501,1.7487126588821411
1761476188909195000,1.795195068359375,-0.25110766291618347,0.07135671377182007,1.7453018426895142
1761476188919230000,1.80522998046875,-0.3680843412876129,0.2606086730957031,1.657436728477478
1761476188929265000,1.815264892578125,-0.441207617521286,0.39336085319519043,1.51779043674469
1761476188939299800,1.8252998046875,-0.4173363745212555,0.49254682660102844,1.3465086221694946
1761476188949335800,1.835335693359375,-0.2937033176422119,0.5492770671844482,1.1430004835128784
1761476188959370800,1.845370849609375,-0.1415529102087021,0.5969942808151245,0.9659881591796875
1761476188969406000,1.855406005859375,-0.009162469767034054,0.5837993025779724,0.8151907920837402
1761476188979441000,1.86544091796875,0.08836435526609421,0.44424596428871155,0.6632055640220642
1761476188989476900,1.875476806640625,0.14389368891716003,0.2852277457714081,0.5148416757583618
1761476188999512000,1.885511962890625,0.15299265086650848,0.14468635618686676,0.33880695700645447
1761476189009547000,1.895547119140625,0.11284508556127548,-0.024182315915822983,0.11548911780118942
1761476189019583000,1.9055830078125,0.022013448178768158,-0.16772323846817017,-0.1323678195476532
1761476189029617700,1.91561767578125,-0.06247582286596298,-0.21518917381763458,-0.37197989225387573
1761476189039652900,1.92565283203125,-0.08053791522979736,-0.167303666472435,-0.590146541595459
1761476189049687800,1.935687744140625,-0.03298063948750496,-0.08106327801942825,-0.7724671959877014
1761476189059723800,1.945723876953125,0.08478620648384094,0.0005940357223153114,-0.863875150680542
1761476189069759000,1.955759033203125,0.2517707943916321,0.04616927355527878,-0.841558575630188
1761476189079794000,1.9657939453125,0.3974425196647644,0.07878367602825165,-0.7272117733955383
1761476189089828900,1.975828857421875,0.4880436062812805,0.09928841888904572,-0.5656319260597229
1761476189099864800,1.98586474609375,0.44497737288475037,0.10668588429689407,-0.4222013056278229
1761476189109900000,1.995900146484375,0.29881811141967773,0.13395878672599792,-0.35418540239334106
1761476189119934700,2.005934814453125,0.11981722712516785,0.20937389135360718,-0.4421149790287018
1761476189129970000,2.015969970703125,-0.0009232815355062485,0.38842859864234924,-0.6868327856063843
1761476189140006000,2.026005859375,0.05166243016719818,0.5781052708625793,-0.9735122323036194
1761476189150040800,2.036040771484375,0.2792800962924957,0.800995409488678,-1.1087400913238525
1761476189160075800,2.04607568359375,0.5291323065757751,0.8816418051719666,-1.0371365547180176
1761476189170112000,2.056112060546875,0.6651801466941833,0.6172029376029968,-0.8852640390396118
1761476189180147000,2.06614697265625,0.5896307826042175,0.056107714772224426,-0.9208177924156189
1761476189190182000,2.076181884765625,0.24384623765945435,-0.5731909275054932,-1.359688401222229
1761476189200217000,2.086217041015625,-0.31656166911125183,-0.8404841423034668,-2.0278334617614746
1761476189210253000,2.096253173828125,-0.7498180866241455,-0.4776780903339386,-2.748624086380005
1761476189220287700,2.106287841796875,-0.8516762256622314,0.335947185754776,-3.361585855484009
1761476189230323000,2.116322998046875,-0.6542537212371826,1.3867641687393188,-3.6407828330993652
1761476189240358000,2.12635791015625,-0.26517173647880554,2.2676663398742676,-3.4132137298583984
1761476189250393900,2.136393798828125,0.029266247525811195,2.439314603805542,-2.767788887023926
1761476189260428800,2.1464287109375,0.0965704470872879,1.7379757165908813,-1.8862969875335693
1761476189270464000,2.156464111328125,-0.01561675127595663,0.515474796295166,-0.9086396098136902
1761476189280499000,2.1664990234375,-0.15757735073566437,-0.7139002680778503,-0.03289182484149933
1761476189290535000,2.176534912109375,-0.215936541557312,-1.427957534790039,0.6022309064865112
1761476189300570000,2.186570068359375,-0.1701943576335907,-1.486609697341919,0.9839338064193726
1761476189310604800,2.196604736328125,-0.015549207106232643,-1.0702264308929443,1.134989857673645
1761476189320639700,2.2066396484375,0.1572452038526535,-0.47757232189178467,1.108323574066162
1761476189330676000,2.216676025390625,0.2932601869106293,-0.05816236510872841,0.9716848731040955
1761476189340711400,2.22671142578125,0.3386308550834656,0.08138860762119293,0.8158468008041382
1761476189350746000,2.23674609375,0.28505024313926697,-0.012616908177733421,0.7024356126785278
1761476189360782300,2.2467822265625,0.19117222726345062,-0.2809932231903076,0.7015349864959717
1761476189370817300,2.2568173828125,0.10076068341732025,-0.5766986012458801,0.8002471327781677
1761476189380852200,2.266852294921875,0.022838450968265533,-0.746547281742096,0.9669148921966553
1761476189390887200,2.27688720703125,-0.06287693232297897,-0.746695339679718,1.143728256225586
1761476189400923100,2.286923095703125,-0.1518518179655075,-0.4863457679748535,1.2426319122314453
1761476189410958300,2.296958251953125,-0.20714105665683746,-0.0734899714589119,1.1721850633621216
1761476189420993300,2.3069931640625,-0.22237247228622437,0.35028180480003357,0.9532590508460999
1761476189431028500,2.317028564453125,-0.19658736884593964,0.6321234107017517,0.6808739900588989
1761476189441064400,2.327064453125,-0.12874041497707367,0.7479802370071411,0.49282175302505493
1761476189451099100,2.33709912109375,-0.06145830824971199,0.6900860071182251,0.456011027097702
1761476189461134000,2.347134033203125,-0.04934971407055855,0.5097812414169312,0.5364959836006165
1761476189471169300,2.357169189453125,-0.05973071604967117,0.29985278844833374,0.7076352834701538
1761476189481205200,2.367205322265625,-0.04289873689413071,0.09895483404397964,0.9218847155570984
1761476189491240200,2.377240234375,0.008121723309159279,-0.05816374719142914,1.1179548501968384
1761476189501275400,2.387275390625,0.04223388433456421,-0.14295826852321625,1.219655156135559
1761476189511310300,2.397310302734375,0.06023287773132324,-0.12584567070007324,1.1746197938919067
1761476189521346300,2.40734619140625,0.07210125029087067,-0.033647842705249786,0.9706533551216125
1761476189531381200,2.41738134765625,0.08698667585849762,0.11005924642086029,0.6291558742523193
1761476189541416200,2.427416259765625,0.09049032628536224,0.18153077363967896,0.24422921240329742
1761476189551452200,2.4374521484375,0.07288607209920883,0.1243077963590622,-0.11520647257566452
1761476189561487000,2.447487060546875,0.040293507277965546,-0.0016719736158847809,-0.4151116907596588
1761476189571522300,2.457522216796875,0.018325824290513992,-0.1395253688097,-0.6146178245544434
1761476189581557200,2.46755712890625,0.045296989381313324,-0.2664380669593811,-0.6713019013404846
1761476189591593200,2.47759326171875,0.09541167318820953,-0.37560638785362244,-0.6301642060279846
1761476189601628400,2.48762841796875,0.11251316219568253,-0.4413880705833435,-0.5582423806190491
1761476189611663400,2.497663330078125,0.08376505225896835,-0.4510801136493683,-0.46765798330307007
1761476189621698300,2.5076982421875,0.015366818755865097,-0.4089832603931427,-0.3800192177295685
1761476189631734300,2.517734375,-0.05009840801358223,-0.36502864956855774,-0.3712558448314667
1761476189641769200,2.527769287109375,-0.08583030849695206,-0.4045017659664154,-0.4551225006580353
1761476189651804200,2.53780419921875,-0.0726756751537323,-0.4006838798522949,-0.5709078311920166
1761476189661839400,2.54783935546875,0.0051679909229278564,-0.3248996436595917,-0.6802058219909668
1761476189671875300,2.557875244140625,0.14599154889583588,-0.24940767884254456,-0.7221264243125916
1761476189681910300,2.56791015625,0.31261515617370605,-0.150918111205101,-0.6374637484550476
1761476189691945200,2.5779453125,0.4745471477508545,-0.09794753044843674,-0.4522242844104767
1761476189701980400,2.58798046875,0.5209702849388123,0.05243958160281181,-0.23951546847820282
1761476189712016400,2.598016357421875,0.37925446033477783,0.21097898483276367,-0.1584915965795517
1761476189722051300,2.60805126953125,0.11473091691732407,0.1662551760673523,-0.2825472354888916
1761476189732086300,2.618086181640625,-0.0965803861618042,0.005391357466578484,-0.5172842741012573
1761476189742121200,2.628121337890625,-0.11405418813228607,-0.22895322740077972,-0.8789429068565369
1761476189752157200,2.6381572265625,0.054583244025707245,-0.4380570948123932,-1.3802707195281982
1761476189762192100,2.648192138671875,0.2200281172990799,-0.4160900115966797,-1.943722128868103
1761476189772227300,2.658227294921875,0.21280547976493835,-0.1175907552242279,-2.457489252090454
1761476189782262300,2.66826220703125,0.03056030347943306,0.360342800617218,-2.7957000732421875
1761476189792298200,2.67829833984375,-0.19838550686836243,0.9598325490951538,-2.7234179973602295
1761476189802333400,2.68833349609375,-0.2501395046710968,1.4967304468154907,-2.105837821960449
1761476189812368100,2.6983681640625,-0.08011224120855331,1.5917389392852783,-1.1369678974151611
1761476189822403000,2.708403076171875,0.13432203233242035,1.1617414951324463,-0.16622281074523926
1761476189832439300,2.718439208984375,0.20803874731063843,0.4418319761753082,0.5886528491973877
1761476189842474200,2.72847412109375,0.2352203130722046,-0.2276129424571991,1.1075966358184814
1761476189852509200,2.73850927734375,0.2519862949848175,-0.6824115514755249,1.3162741661071777
1761476189862544400,2.74854443359375,0.2247605323791504,-0.8822072148323059,1.2537895441055298
1761476189872580400,2.758580322265625,0.16918474435806274,-0.790729820728302,1.0333927869796753
1761476189882615300,2.768615234375,0.0871465876698494,-0.4686815142631531,0.6867471933364868
1761476189892650200,2.778650146484375,-0.019368061795830727,-0.12993782758712769,0.28655141592025757
1761476189902685200,2.788685302734375,-0.108391672372818,0.04068637639284134,-0.043492548167705536
1761476189912721200,2.79872119140625,-0.14989687502384186,0.0047889091074466705,-0.19165945053100586
1761476189922756000,2.808756103515625,-0.1583377718925476,-0.13499827682971954,-0.15923359990119934
1761476189932791300,2.818791259765625,-0.16169065237045288,-0.21343928575515747,0.08145847171545029
1761476189942826200,2.828826171875,-0.1608552187681198,-0.17098717391490936,0.47454291582107544
1761476189952862200,2.8388623046875,-0.1843762993812561,-0.084657222032547,0.8371434211730957
1761476189962897400,2.8488974609375,-0.2316245138645172,0.07572712749242783,1.0400999784469604
1761476189972932400,2.858932373046875,-0.2777896523475647,0.25338393449783325,1.0748906135559082
1761476189982967300,2.86896728515625,-0.28924471139907837,0.4217745363712311,0.975928008556366
1761476189993003300,2.879003173828125,-0.27291935682296753,0.5789936780929565,0.8672182559967041
1761476190003038200,2.8890380859375,-0.2277953028678894,0.7103157043457031,0.8566790223121643
1761476190013073200,2.8990732421875,-0.16265420615673065,0.7480859756469727,0.967479944229126
1761476190023108400,2.9091083984375,-0.09541871398687363,0.6747363805770874,1.185671329498291
1761476190033144300,2.919144287109375,-0.07334643602371216,0.5168607234954834,1.450008749961853
1761476190043179300,2.92917919921875,-0.10729189217090607,0.28076061606407166,1.681631326675415
1761476190053214200,2.939214111328125,-0.19124603271484375,0.01424186211079359,1.803249716758728
1761476190063249400,2.94924951171875,-0.279125839471817,-0.17500928044319153,1.7477456331253052
1761476190073284400,2.959284423828125,-0.3567126393318176,-0.234603613615036,1.5584839582443237
1761476190083320300,2.9693203125,-0.3728487193584442,-0.20332132279872894,1.3053102493286133
1761476190093355300,2.979355224609375,-0.31956109404563904,-0.10288717597723007,0.9834195375442505
1761476190103390200,2.98939013671875,-0.23696129024028778,0.051871247589588165,0.6015470027923584
1761476190113425200,2.999425048828125,-0.16313232481479645,0.18474064767360687,0.1967645138502121
1761476190123461000,3.009461181640625,-0.15028630197048187,0.24282686412334442,-0.15115271508693695
1761476190133496300,3.019496337890625,-0.18524284660816193,0.19687460362911224,-0.3739151656627655
1761476190143531300,3.02953125,-0.2352311760187149,0.060963910073041916,-0.4702802896499634
1761476190153566500,3.03956640625,-0.29489758610725403,-0.11504019796848297,-0.4938156306743622
1761476190163602400,3.0496025390625,-0.3334055542945862,-0.2768634557723999,-0.47531864047050476
1761476190173637400,3.059637451171875,-0.3421517610549927,-0.35931921005249023,-0.43736112117767334
1761476190183672000,3.069672119140625,-0.27805718779563904,-0.31746548414230347,-0.37679949402809143
1761476190193707300,3.079707275390625,-0.13928818702697754,-0.16054709255695343,-0.2784285545349121
1761476190203743200,3.0897431640625,-0.03544089198112488,-0.04529799520969391,-0.17316150665283203
1761476190213778200,3.099778076171875,-0.03628288209438324,-0.0313337966799736,-0.09117523580789566
1761476190223813400,3.1098134765625,-0.06928210705518723,-0.08632754534482956,-0.04009393975138664
1761476190233848300,3.119848388671875,-0.050157807767391205,-0.12168244272470474,-0.061407141387462616
1761476190243883300,3.12988330078125,-0.013331081718206406,-0.05894288793206215,-0.14675958454608917
1761476190253919500,3.13991943359375,0.06784886866807938,0.1424867957830429,-0.19193816184997559
1761476190263954200,3.1499541015625,0.15545755624771118,0.3019659221172333,-0.18013876676559448
1761476190273989000,3.159989013671875,0.15323476493358612,0.22840510308742523,-0.25834283232688904
1761476190284024300,3.1700244140625,0.11206815391778946,-0.022258803248405457,-0.5924936532974243
1761476190294060300,3.180060302734375,0.010940810665488243,-0.2855389416217804,-1.2255924940109253
1761476190304095200,3.19009521484375,-0.14311586320400238,-0.5248258113861084,-1.9962122440338135
1761476190314130400,3.20013037109375,-0.24998332560062408,-0.6401647925376892,-2.6527795791625977
1761476190324165400,3.210165283203125,-0.30284225940704346,-0.5187667012214661,-3.0203065872192383
1761476190334201300,3.220201416015625,-0.3012242317199707,0.004329084884375334,-3.0147719383239746
1761476190344235500,3.230235595703125,-0.30215317010879517,0.772847592830658,-2.681095838546753
1761476190354270200,3.240270263671875,-0.25615543127059937,1.3997621536254883,-2.083691358566284
1761476190364305200,3.25030517578125,-0.09173132479190826,1.5123342275619507,-1.3356565237045288
1761476190374340400,3.26034033203125,0.10986272245645523,0.9990649819374084,-0.6218294501304626
1761476190384376300,3.270376220703125,0.2499345988035202,0.20946037769317627,0.07156504690647125
1761476190394411300,3.280411376953125,0.2938757836818695,-0.4867728054523468,0.7550477385520935
1761476190404446500,3.290446533203125,0.28947117924690247,-0.9506770372390747,1.3632935285568237
1761476190414481400,3.3004814453125,0.3119751513004303,-1.1520085334777832,1.7525336742401123
1761476190424517400,3.310517333984375,0.38327300548553467,-1.0046446323394775,1.7881935834884644
1761476190434552300,3.32055224609375,0.45533648133277893,-0.6122697591781616,1.4825621843338013
1761476190444587300,3.330587158203125,0.5095267295837402,-0.161080464720726,0.926543116569519
1761476190454622200,3.340622314453125,0.49191567301750183,0.163265660405159,0.2752003073692322
1761476190464657400,3.350657470703125,0.41249194741249084,0.3108370006084442,-0.2894960939884186
1761476190474693400,3.360693359375,0.2680545151233673,0.30063968896865845,-0.6352285146713257
1761476190484728300,3.370728271484375,0.11012584716081619,0.16926303505897522,-0.7421920299530029
1761476190494763300,3.38076318359375,0.0160367488861084,-0.045313503593206406,-0.6114497184753418
1761476190504798500,3.390798583984375,-0.018838942050933838,-0.17877702414989471,-0.19701124727725983
1761476190514834400,3.40083447265625,0.008849909529089928,-0.07670720666646957,0.4418819546699524
1761476190524869000,3.410869140625,0.0621514767408371,0.034187618643045425,1.0717518329620361
1761476190534904300,3.420904296875,0.11139251291751862,0.023594306781888008,1.5058701038360596
1761476190544939300,3.430939208984375,0.16449755430221558,-0.08813967555761337,1.7316688299179077
1761476190554974200,3.44097412109375,0.1667633056640625,-0.20032203197479248,1.7530404329299927
1761476190565010400,3.451010498046875,0.13357685506343842,-0.25264090299606323,1.6073474884033203
1761476190575045400,3.46104541015625,0.09626777470111847,-0.24547502398490906,1.3630040884017944
1761476190585080300,3.471080322265625,0.07317843288183212,-0.2090991735458374,1.0766706466674805
1761476190595115500,3.481115478515625,0.056328244507312775,-0.15157495439052582,0.7934201955795288
1761476190605151500,3.4911513671875,0.06371266394853592,-0.1131998747587204,0.5456759333610535
1761476190615186200,3.501186279296875,0.06282978504896164,-0.06097058951854706,0.3622491955757141
1761476190625221400,3.511221435546875,0.04285208508372307,0.033217962831258774,0.2266056090593338
1761476190635256300,3.52125634765625,0.01632341369986534,0.025115979835391045,0.1387748271226883
1761476190645291300,3.531291259765625,-0.01506620179861784,-0.06031343340873718,0.11453472822904587
1761476190655327200,3.5413271484375,-0.042006537318229675,-0.18263140320777893,0.13659726083278656
1761476190665362400,3.551362548828125,-0.05635484680533409,-0.3265097439289093,0.1934938281774521
1761476190675397400,3.5613974609375,-0.05524887517094612,-0.41295140981674194,0.20165447890758514
1761476190685432300,3.571432373046875,-0.032655950635671616,-0.41589421033859253,0.11488282680511475
1761476190695467300,3.58146728515625,0.0009884843602776527,-0.3411484360694885,-0.04038062319159508
1761476190705503200,3.591503173828125,0.01948600262403488,-0.2683035135269165,-0.22725410759449005
1761476190715538200,3.6015380859375,-0.009759945794939995,-0.21520288288593292,-0.39919689297676086
1761476190725573400,3.611573486328125,-0.07009892165660858,-0.1970939189195633,-0.5127303600311279
1761476190735608300,3.6216083984375,-0.1280393898487091,-0.24225205183029175,-0.5435875654220581
1761476190745643300,3.631643310546875,-0.18675650656223297,-0.39478006958961487,-0.5010403990745544
1761476190755679500,3.641679443359375,-0.20767535269260406,-0.5502228736877441,-0.367540180683136
1761476190765714400,3.65171435546875,-0.11673080176115036,-0.6276412606239319,-0.15902772545814514
1761476190775749000,3.6617490234375,0.01817544735968113,-0.5368876457214355,-0.011897248215973377
1761476190785784300,3.671784423828125,0.11372514069080353,-0.31280019879341125,-0.03289547562599182
1761476190795820300,3.6818203125,0.07385669648647308,-0.10379155725240707,-0.1829812228679657
1761476190805855200,3.691855224609375,-0.08348951488733292,-0.008926826529204845,-0.4092508554458618
1761476190815890400,3.701890380859375,-0.2182435542345047,-0.08298040181398392,-0.6927300691604614
1761476190825925400,3.71192529296875,-0.24735483527183533,-0.30029353499412537,-1.031943917274475
1761476190835960300,3.721960205078125,-0.1861870437860489,-0.5242063999176025,-1.3927907943725586
1761476190845996300,3.731996337890625,-0.07480431348085403,-0.66352379322052,-1.777624249458313
1761476190856031500,3.742031494140625,0.022761870175600052,-0.5371779799461365,-2.0864832401275635
1761476190866066200,3.752066162109375,-0.07603981345891953,-0.16486486792564392,-2.2845582962036133
1761476190876101400,3.762101318359375,-0.2999953329563141,0.3536718487739563,-2.2691969871520996
1761476190886136300,3.77213623046875,-0.3547768294811249,0.9263332486152649,-1.8933229446411133
1761476190896172300,3.78217236328125,-0.1783161163330078,1.3488298654556274,-1.1892355680465698
1761476190906207200,3.792207275390625,0.10075227171182632,1.323758840560913,-0.4089204967021942
1761476190916242400,3.802242431640625,0.3058384954929352,0.8384367227554321,0.21836797893047333
1761476190926277400,3.81227734375,0.3976997137069702,0.14080144464969635,0.7071751952171326
1761476190936312300,3.822312255859375,0.4625529944896698,-0.6225425601005554,1.0709975957870483
1761476190946348500,3.8323486328125,0.4916227459907532,-1.1883643865585327,1.3371797800064087
1761476190956383200,3.84238330078125,0.47265249490737915,-1.3404045104980469,1.4865180253982544
1761476190966418200,3.852418212890625,0.45302632451057434,-1.1165802478790283,1.406684160232544
1761476190976453400,3.862453369140625,0.4122115671634674,-0.679864227771759,1.1162654161453247
1761476190986488300,3.87248828125,0.3473641276359558,-0.19920332729816437,0.7633310556411743
1761476190996524300,3.882524169921875,0.28961342573165894,0.1340908706188202,0.49603569507598877
1761476191006559500,3.8925595703125,0.18938323855400085,0.2565225064754486,0.39114946126937866
1761476191016594400,3.902594482421875,0.05372451990842819,0.23701073229312897,0.4243393838405609
1761476191026629000,3.912629150390625,-0.0803467333316803,0.20150546729564667,0.5418053269386292
1761476191036664300,3.922664306640625,-0.17670492827892303,0.20828527212142944,0.664164125919342
1761476191046700300,3.9327001953125,-0.15185977518558502,0.26090240478515625,0.8854392766952515
1761476191056735200,3.9427353515625,-0.04658091813325882,0.410970538854599,1.172309398651123
1761476191066770400,3.9527705078125,0.05329028517007828,0.5944950580596924,1.4175084829330444
1761476191076805400,3.962805419921875,0.09995763748884201,0.6635461449623108,1.530355453491211
1761476191086840300,3.97284033203125,0.09809821844100952,0.6449833512306213,1.5301920175552368
1761476191096876300,3.982876220703125,0.05658619478344917,0.5427693724632263,1.459483027458191
1761476191106911500,3.992911376953125,-0.004542675334960222,0.4195891320705414,1.3393009901046753
1761476191116946200,4.0029462890625,-0.05318467691540718,0.269400954246521,1.1775257587432861
1761476191126981400,4.0129814453125,-0.06400057673454285,0.16826637089252472,1.0207196474075317
1761476191137012200,4.02301220703125,-0.015283474698662758,0.14439426362514496,0.8729013800621033
1761476191147047200,4.033047119140625,0.06405182182788849,0.1551598310470581,0.7212308645248413
1761476191157083400,4.04308349609375,0.12945415079593658,0.1390353888273239,0.5612972974777222
1761476191167118300,4.053118408203125,0.17180560529232025,0.11762305349111557,0.37900105118751526
1761476191177153300,4.0631533203125,0.1633085012435913,0.14682254195213318,0.15130168199539185
1761476191187188500,4.0731884765625,0.10349337756633759,0.1299642026424408,-0.13786354660987854
1761476191197223400,4.083223388671875,0.03354358673095703,0.05119694396853447,-0.4209839999675751
1761476191207258000,4.093258056640625,-0.039720773696899414,-0.00229584239423275,-0.6669578552246094
1761476191217294300,4.10329443359375,-0.10907276719808578,-0.06790531426668167,-0.8653548955917358
1761476191227329300,4.113329345703125,-0.149282768368721,-0.1396050751209259,-0.9863899946212769
1761476191237364200,4.1233642578125,-0.15624120831489563,-0.11727125197649002,-0.9933974146842957
1761476191247399400,4.1333994140625,-0.12403693050146103,-0.05221262201666832,-0.9144672155380249
1761476191257434400,4.143434326171875,-0.09424726665019989,-0.005593629088252783,-0.8015376925468445
1761476191267470300,4.15347021484375,-0.07992851734161377,-0.0076639712788164616,-0.7015693187713623
1761476191277505300,4.16350537109375,-0.0847792774438858,-0.03889230266213417,-0.6168211698532104
1761476191287540200,4.173540283203125,-0.12560899555683136,-0.11207196861505508,-0.5605989694595337
1761476191297575200,4.1835751953125,-0.18254338204860687,-0.23730683326721191,-0.5538753271102905
1761476191307610400,4.1936103515625,-0.20652036368846893,-0.3302708566188812,-0.5738533139228821
1761476191317646300,4.203646240234375,-0.17046226561069489,-0.2168874889612198,-0.5503888130187988
1761476191327681300,4.213681396484375,-0.07898934930562973,0.06912828236818314,-0.4334139823913574
1761476191337716200,4.22371630859375,0.021254349499940872,0.4254053235054016,-0.21463334560394287
1761476191347751400,4.23375146484375,0.11077970266342163,0.6721405386924744,0.02524103783071041
1761476191357786400,4.243786376953125,0.2114519625902176,0.6308419108390808,0.12307415157556534
1761476191367821600,4.253821533203125,0.22947436571121216,0.16560015082359314,-0.094691202044487
1761476191377857500,4.263857421875,0.18727482855319977,-0.3244467079639435,-0.5896704196929932
1761476191387892500,4.273892578125,0.20648634433746338,-0.7098767161369324,-1.2100024223327637
1761476191397927200,4.28392724609375,0.2891590893268585,-1.0911184549331665,-1.9647128582000732
1761476191407962400,4.29396240234375,0.268047958612442,-1.226078987121582,-2.7624707221984863
1761476191417997300,4.303997314453125,0.16799409687519073,-0.7648199200630188,-3.294282913208008
1761476191428033300,4.314033203125,0.04598324000835419,0.23569349944591522,-3.3182199001312256
1761476191438068500,4.324068359375,0.009388714097440243,1.3769466876983643,-2.782273054122925
1761476191448103400,4.334103515625,0.14013127982616425,2.090698480606079,-1.8281770944595337
1761476191458138400,4.344138427734375,0.379123717546463,1.970353126525879,-0.7713472843170166
1761476191468173600,4.354173583984375,0.4947928190231323,1.0967774391174316,0.13106882572174072
1761476191478209500,4.36420947265625,0.4560628831386566,-0.05584748834371567,0.931742250919342
1761476191488244200,4.374244140625,0.367868036031723,-1.0927013158798218,1.5064095258712769
1761476191498279400,4.384279541015625,0.29446202516555786,-1.8116555213928223,1.7985467910766602
1761476191508314400,4.394314453125,0.28097766637802124,-2.046060800552368,1.8349117040634155
1761476191518349300,4.404349365234375,0.304989755153656,-1.7155593633651733,1.5683205127716064
1761476191528384500,4.414384521484375,0.2927514910697937,-1.1225625276565552,1.0150845050811768
1761476191538420500,4.42442041015625,0.24377912282943726,-0.4878561198711395,0.3384193778038025
1761476191548455400,4.434455322265625,0.16955068707466125,-0.00505113834515214,-0.24882681667804718
1761476191558490600,4.44449072265625,0.06003602594137192,0.20428800582885742,-0.6126502752304077
1761476191568525300,4.454525390625,-0.04580225795507431,0.15259817242622375,-0.7043277025222778
1761476191578560300,4.464560302734375,-0.15142282843589783,-0.03369978815317154,-0.5680336356163025
1761476191588595500,4.474595458984375,-0.2880150377750397,-0.22425775229930878,-0.2966194152832031
1761476191598631400,4.48463134765625,-0.3526547849178314,-0.32661011815071106,0.09304016083478928
1761476191608666400,4.494666259765625,-0.31330230832099915,-0.2040354609489441,0.5817645788192749
1761476191618701600,4.50470166015625,-0.24092572927474976,0.033264704048633575,1.0430697202682495
1761476191628736500,4.514736572265625,-0.1776048243045807,0.21266242861747742,1.37680184841156
1761476191638771200,4.524771240234375,-0.15061163902282715,0.287031888961792,1.5475114583969116
1761476191648807200,4.53480712890625,-0.12811990082263947,0.2618277370929718,1.5838598012924194
1761476191658842400,4.54484228515625,-0.11235462874174118,0.19672058522701263,1.4843467473983765
1761476191668877300,4.554877197265625,-0.12290633469820023,0.12551777064800262,1.3234742879867554
1761476191678912500,4.56491259765625,-0.13221371173858643,0.0671333521604538,1.1458189487457275
1761476191688947500,4.574947509765625,-0.12486525624990463,0.05800030753016472,0.9939259886741638
1761476191698982400,4.584982421875,-0.10263092070817947,0.11224277317523956,0.8940929174423218
1761476191709018400,4.595018310546875,-0.07689785957336426,0.200021892786026,0.8138686418533325
1761476191719057400,4.605057373046875,-0.0472189262509346,0.3030785024166107,0.7135663628578186
1761476191729092400,4.61509228515625,-0.0380704328417778,0.35082632303237915,0.5869432091712952
1761476191739127300,4.625127197265625,-0.06136156618595123,0.3104709982872009,0.4330497086048126
1761476191749162500,4.63516259765625,-0.11088597774505615,0.2115343064069748,0.2805198132991791
1761476191759198500,4.645198486328125,-0.16283255815505981,0.06715667992830276,0.11879812926054001
1761476191769233400,4.6552333984375,-0.20015916228294373,-0.09996680170297623,-0.05156853795051575
1761476191779268600,4.6652685546875,-0.21046186983585358,-0.2168145328760147,-0.17549121379852295
1761476191789303300,4.67530322265625,-0.16897062957286835,-0.28007420897483826,-0.23209989070892334
1761476191799338200,4.685338134765625,-0.10785798728466034,-0.2941669225692749,-0.26164710521698
1761476191809373400,4.69537353515625,-0.08652127534151077,-0.2687811255455017,-0.2932071387767792
1761476191819409400,4.705409423828125,-0.08640420436859131,-0.19701963663101196,-0.30564403533935547
1761476191829444400,4.7154443359375,-0.074527308344841,-0.11867077648639679,-0.2703302502632141
1761476191839479600,4.7254794921875,-0.08164241909980774,-0.07273028045892715,-0.22649528086185455
1761476191849514500,4.735514404296875,-0.12242287397384644,-0.10409513115882874,-0.216989666223526
1761476191859549200,4.745549072265625,-0.14576473832130432,-0.16354690492153168,-0.22122330963611603
1761476191869584400,4.75558447265625,-0.16146433353424072,-0.20227618515491486,-0.20207864046096802
1761476191879620400,4.765620361328125,-0.14280427992343903,-0.17981764674186707,-0.17216762900352478
1761476191889655300,4.7756552734375,-0.10673496127128601,0.00048422394320368767,-0.11293759196996689
1761476191899690500,4.7856904296875,-0.044290196150541306,0.31041407585144043,-0.06862962245941162
1761476191909725400,4.795725341796875,0.06238431856036186,0.5735032558441162,-0.06406763195991516
1761476191919760400,4.805760498046875,0.12254315614700317,0.7321793437004089,-0.1160607784986496
1761476191929795600,4.815795654296875,0.10707604885101318,0.6475041508674622,-0.259988397359848
1761476191939831600,4.82583154296875,0.04831065982580185,0.07348205149173737,-0.693019688129425
1761476191949866200,4.8358662109375,-0.03437809646129608,-0.885504424571991,-1.3990663290023804
1761476191959901400,4.8459013671875,-0.09476855397224426,-1.5531859397888184,-2.1599063873291016
1761476191969936400,4.855936279296875,-0.12867964804172516,-1.4478776454925537,-2.7435872554779053
1761476191979971300,4.865971435546875,-0.08145827054977417,-0.45373058319091797,-3.043504476547241
1761476191990006500,4.876006591796875,0.040300652384757996,0.9865005016326904,-2.873767614364624
1761476192000042500,4.88604248046875,0.20187900960445404,2.154737949371338,-2.2392992973327637
1761476192010077400,4.896077392578125,0.3651454448699951,2.310349464416504,-1.4469221830368042
1761476192020112600,4.906112548828125,0.4744512140750885,1.466766119003296,-0.7496035099029541
1761476192030147300,4.916147216796875,0.47728243470191956,0.18659816682338715,-0.07024525851011276
1761476192040182300,4.926182373046875,0.44658273458480835,-0.9723566174507141,0.6373549103736877
1761476192050217500,4.936217529296875,0.3923413157463074,-1.8018614053726196,1.267455816268921
1761476192060253400,4.94625341796875,0.3573405146598816,-2.11279296875,1.7570257186889648
1761476192070288400,4.956288330078125,0.30150070786476135,-1.821070671081543,1.957700490951538
1761476192080323600,4.966323486328125,0.18973103165626526,-1.2529531717300415,1.7854030132293701
1761476192090358500,4.976358642578125,0.061663348227739334,-0.6606878042221069,1.3292094469070435
1761476192100393200,4.986393310546875,-0.018937673419713974,-0.26277443766593933,0.7589046955108643
1761476192110428400,4.996428466796875,-0.0654258131980896,-0.16626518964767456,0.22407589852809906
1761476192120464400,5.00646435546875,-0.11930173635482788,-0.24188899993896484,-0.16351361572742462
1761476192130499300,5.016499267578125,-0.179627925157547,-0.4043594002723694,-0.3401666581630707
1761476192140534500,5.026534423828125,-0.22337381541728973,-0.5464872717857361,-0.3272961378097534
1761476192150569500,5.036569580078125,-0.27972763776779175,-0.5637363195419312,-0.15952925384044647
1761476192160604400,5.0466044921875,-0.3477526307106018,-0.4738692045211792,0.11459317803382874
1761476192170639600,5.0566396484375,-0.3700936436653137,-0.3297247886657715,0.4359256625175476
1761476192180674300,5.06667431640625,-0.3558017909526825,-0.13302668929100037,0.7276251316070557
1761476192190710300,5.076710205078125,-0.33668747544288635,0.023090463131666183,0.933966338634491
1761476192200745500,5.086745361328125,-0.32479897141456604,0.09677161276340485,1.0500476360321045
1761476192210780400,5.096780517578125,-0.31749019026756287,0.11465553939342499,1.0913045406341553
1761476192220815400,5.1068154296875,-0.3008427321910858,0.10030504316091537,1.0846869945526123
1761476192230850600,5.1168505859375,-0.2547639310359955,0.11108925193548203,1.033821702003479
1761476192240885500,5.126885498046875,-0.17274941504001617,0.11896917968988419,0.9443032741546631
1761476192250921500,5.13692138671875,-0.06863420456647873,0.15489602088928223,0.8528178334236145
1761476192260956200,5.1469560546875,0.02908562310039997,0.19633063673973083,0.7561991810798645
1761476192270991400,5.156991455078125,0.0728144571185112,0.1887906938791275,0.6545196771621704
1761476192281026300,5.1670263671875,0.04664070904254913,0.12677516043186188,0.5467571020126343
1761476192291061500,5.1770615234375,-0.035310082137584686,0.023433860391378403,0.41760334372520447
1761476192301096400,5.187096435546875,-0.13451145589351654,-0.0852903425693512,0.2801339030265808
1761476192311132400,5.19713232421875,-0.20984695851802826,-0.13312070071697235,0.13390186429023743
1761476192321167400,5.20716748046875,-0.25236812233924866,-0.1618986427783966,-0.021018516272306442
1761476192331202600,5.21720263671875,-0.2654716670513153,-0.1957857757806778,-0.1582821011543274
1761476192341237000,5.227237060546875,-0.22891968488693237,-0.21224381029605865,-0.25614720582962036
1761476192351272200,5.237272216796875,-0.1707487851381302,-0.20023082196712494,-0.320656955242157
1761476192361307100,5.24730712890625,-0.1066242903470993,-0.11334514617919922,-0.3627649247646332
1761476192371342000,5.257342041015625,-0.08352030813694,0.008740287274122238,-0.4260256588459015
1761476192381378000,5.2673779296875,-0.126076340675354,0.057092756032943726,-0.5459246635437012
1761476192391413200,5.277413330078125,-0.20163102447986603,0.07145172357559204,-0.6793274283409119
1761476192401448200,5.2874482421875,-0.2757510840892792,0.08690477162599564,-0.7950415015220642
1761476192411483100,5.297483154296875,-0.2633679211139679,0.04791875556111336,-0.8467060327529907
1761476192421518000,5.30751806640625,-0.12172718346118927,0.010873782448470592,-0.7632859349250793
1761476192431553000,5.317552978515625,0.07246998697519302,0.0020025265403091908,-0.554846465587616
1761476192441588200,5.327588134765625,0.26705193519592285,0.1608818918466568,-0.23751889169216156
1761476192451624200,5.337624267578125,0.426557719707489,0.3912096321582794,0.05639421567320824
1761476192461659100,5.3476591796875,0.4601981043815613,0.38594430685043335,0.08520326763391495
1761476192471694300,5.3576943359375,0.28556346893310547,-0.10286054760217667,-0.2864493727684021
1761476192481729000,5.36772900390625,0.0533658042550087,-0.992993175983429,-1.0157668590545654
1761476192491764000,5.377763916015625,-0.024502094835042953,-1.721501111984253,-1.7360371351242065
1761476192501799200,5.387799072265625,-0.01416048314422369,-1.6840827465057373,-2.154721736907959
1761476192511834000,5.397834228515625,-0.06032345071434975,-0.7229430675506592,-2.2129709720611572
1761476192521870000,5.4078701171875,-0.13352631032466888,0.6398406624794006,-2.1224799156188965
1761476192531905300,5.4179052734375,-0.08667490631341934,1.7844241857528687,-1.9407033920288086
1761476192541940200,5.427940185546875,0.1009879857301712,2.2699522972106934,-1.6010751724243164
1761476192551975200,5.43797509765625,0.28025200963020325,1.93274986743927,-1.0446207523345947
1761476192562010000,5.448010009765625,0.3974330723285675,0.9434231519699097,-0.2679675221443176
1761476192572045000,5.458045166015625,0.41977858543395996,-0.23514437675476074,0.5404536724090576
1761476192582081000,5.4680810546875,0.40148797631263733,-1.2120500802993774,1.2354508638381958
1761476192592116200,5.4781162109375,0.38765203952789307,-1.777756929397583,1.7339911460876465
1761476192602151200,5.488151123046875,0.42333984375,-1.7136919498443604,1.853845238685608
1761476192612186000,5.49818603515625,0.4676561951637268,-1.179802656173706,1.5135140419006348
1761476192622221300,5.50822119140625,0.4320260286331177,-0.49264857172966003,0.8359200954437256
1761476192632256000,5.518256103515625,0.3177923858165741,0.13991476595401764,0.09331731498241425
1761476192642291000,5.528291015625,0.131858229637146,0.5344429612159729,-0.4575295150279999
1761476192652326100,5.538326171875,-0.07486724108457565,0.6060917973518372,-0.714876651763916
1761476192662362000,5.548362060546875,-0.23474758863449097,0.5014421343803406,-0.7137914299964905
1761476192672397000,5.55839697265625,-0.2988376319408417,0.2844030261039734,-0.5176666975021362
1761476192682432300,5.568432373046875,-0.27393972873687744,0.06357021629810333,-0.17456942796707153
1761476192692467200,5.57846728515625,-0.2381492555141449,-0.08129296451807022,0.21411627531051636
1761476192702502100,5.588502197265625,-0.2617267966270447,-0.16887947916984558,0.5429443120956421
1761476192712537000,5.598537109375,-0.32491374015808105,-0.166380375623703,0.7613711953163147
1761476192722572000,5.608572021484375,-0.41377419233322144,-0.019404077902436256,0.8867223262786865
1761476192732608000,5.61860791015625,-0.49623680114746094,0.17223858833312988,0.9057210087776184
1761476192742643200,5.628643310546875,-0.5453627109527588,0.3681812584400177,0.8344978094100952
1761476192752678100,5.63867822265625,-0.5548478364944458,0.5339579582214355,0.7201305031776428
1761476192762713000,5.648713134765625,-0.5227890014648438,0.6274455785751343,0.6044257879257202
1761476192772748300,5.658748291015625,-0.4670623242855072,0.6042952537536621,0.5283269882202148
1761476192782783000,5.668782958984375,-0.41129270195961,0.48532742261886597,0.4971129298210144
1761476192792818200,5.678818115234375,-0.37052345275878906,0.3751462996006012,0.5292114615440369
1761476192802854100,5.688854248046875,-0.33804869651794434,0.2819230854511261,0.6137915253639221
1761476192812889000,5.69888916015625,-0.32879847288131714,0.17845472693443298,0.6709163188934326
1761476192822924000,5.708924072265625,-0.3284986913204193,0.07824371010065079,0.6635478138923645
1761476192832959200,5.718959228515625,-0.32522276043891907,0.007907495833933353,0.59006267786026
1761476192842994200,5.728994140625,-0.31719255447387695,-0.013469388708472252,0.44770193099975586
1761476192853029400,5.739029296875,-0.31060683727264404,-0.0001743561588227749,0.2631815969944
1761476192863064000,5.74906396484375,-0.30962830781936646,0.05949343740940094,0.059346750378608704
1761476192873100000,5.75910009765625,-0.30478987097740173,0.13274608552455902,-0.12860877811908722
1761476192883135000,5.769135009765625,-0.30643230676651,0.17492789030075073,-0.2842719256877899
1761476192893170200,5.779170166015625,-0.2841307520866394,0.1714484691619873,-0.3939259946346283
1761476192903205000,5.789205078125,-0.24007739126682281,0.10645730793476105,-0.47370582818984985
1761476192913240300,5.799240234375,-0.22286537289619446,0.029593950137495995,-0.5044546723365784
1761476192923275300,5.809275146484375,-0.2333257645368576,-0.0626099556684494,-0.4938310384750366
1761476192933310000,5.81931005859375,-0.20572823286056519,-0.18438377976417542,-0.45759260654449463
1761476192943346200,5.82934619140625,-0.11852987855672836,-0.21974541246891022,-0.39105895161628723
1761476192953381000,5.839381103515625,-0.01951274648308754,-0.13340148329734802,-0.3494776785373688
1761476192963416000,5.849416015625,0.014946477487683296,0.12532539665699005,-0.27000460028648376
1761476192973451300,5.859451171875,-0.011770887300372124,0.5798769593238831,-0.07762075215578079
1761476192983486200,5.869486328125,0.01365654543042183,1.0136902332305908,0.17055769264698029
1761476192993521200,5.879521240234375,0.1755027025938034,1.1704609394073486,0.288578599691391
1761476193003556400,5.889556396484375,0.2905644178390503,0.9423478245735168,0.07272416353225708
1761476193013591000,5.899591064453125,0.3075607120990753,0.37563592195510864,-0.48486053943634033
1761476193023627000,5.909626953125,0.265144944190979,-0.326636403799057,-1.1939045190811157
1761476193033662200,5.919662109375,0.27463164925575256,-0.9302727580070496,-1.9098732471466064
1761476193043697200,5.929697265625,0.24455294013023376,-1.2483479976654053,-2.434671640396118
1761476193053732000,5.939732177734375,0.1548297256231308,-0.875235378742218,-2.5337321758270264
1761476193063767300,5.949767333984375,0.04723278805613518,0.10036377608776093,-2.2341339588165283
1761476193073802200,5.95980224609375,0.05523744970560074,1.2791292667388916,-1.658949851989746
1761476193083837000,5.9698369140625,0.2435181438922882,1.9929615259170532,-1.042537808418274
1761476193093873200,5.979873046875,0.43910521268844604,1.867382526397705,-0.587184727191925
1761476193103908000,5.989908203125,0.5272716879844666,1.1004042625427246,-0.1584485024213791
1761476193113943000,5.999943115234375,0.5556319355964661,0.000779938418418169,0.31802162528038025
1761476193123978200,6.009978271484375,0.5264517664909363,-1.1009902954101562,0.7232619524002075
1761476193134013200,6.02001318359375,0.4558146595954895,-1.94927179813385,1.0477367639541626
1761476193144048000,6.030048095703125,0.4420836865901947,-2.2495405673980713,1.249320387840271
1761476193154083300,6.040083251953125,0.495337575674057,-1.9174379110336304,1.1725059747695923
1761476193164118000,6.050117919921875,0.5590806007385254,-1.3036483526229858,0.8034504055976868
1761476193174154000,6.060154052734375,0.5757355093955994,-0.6893538236618042,0.3129025101661682
1761476193184189200,6.070189208984375,0.5389553904533386,-0.22714835405349731,-0.0690571665763855
1761476193194224000,6.08022412109375,0.415033221244812,-0.006059641484171152,-0.22919516265392303
1761476193204259000,6.090259033203125,0.19773755967617035,0.012604061514139175,-0.1503380835056305
1761476193214294300,6.100294189453125,-0.03918389603495598,-0.07703287899494171,0.12069102376699448
1761476193224329200,6.1103291015625,-0.23477649688720703,-0.2201193869113922,0.456245481967926
1761476193234364200,6.1203642578125,-0.36648285388946533,-0.35422763228416443,0.7615015506744385
1761476193244399000,6.130399169921875,-0.41206294298171997,-0.4088421165943146,1.0252771377563477
1761476193254435000,6.14043505859375,-0.37993964552879333,-0.35417380928993225,1.2374801635742188
1761476193264470000,6.150469970703125,-0.31449875235557556,-0.13056766986846924,1.3393672704696655
1761476193274505200,6.160505126953125,-0.2586708962917328,0.2050127387046814,1.3228511810302734
1761476193284540200,6.1705400390625,-0.22979599237442017,0.5624696612358093,1.1996270418167114
1761476193294575000,6.1805751953125,-0.23496146500110626,0.8338830471038818,1.026900291442871
1761476193304610300,6.1906103515625,-0.2196933627128601,0.9585446715354919,0.8438791036605835
1761476193314645000,6.20064501953125,-0.1975931078195572,0.9139702916145325,0.7109881639480591
1761476193324680200,6.21068017578125,-0.19786475598812103,0.7886127233505249,0.6536673307418823
1761476193334716200,6.220716064453125,-0.2024107724428177,0.603010892868042,0.6420828700065613
1761476193344756700,6.2307568359375,-0.22176562249660492,0.3868631422519684,0.6460859775543213
1761476193354792000,6.2407919921875,-0.23147204518318176,0.16106782853603363,0.6764737367630005
1761476193364827000,6.250826904296875,-0.21024645864963531,-0.06473307311534882,0.7175503969192505
1761476193374862000,6.260862060546875,-0.17831408977508545,-0.2494184970855713,0.7474667429924011
1761476193384897000,6.27089697265625,-0.15938210487365723,-0.324802041053772,0.6953179240226746
1761476193394932000,6.280931884765625,-0.15828727185726166,-0.28165698051452637,0.5315348505973816
1761476193404967000,6.290966796875,-0.17532353103160858,-0.15436199307441711,0.27535396814346313
1761476193415003000,6.3010029296875,-0.2040766179561615,0.0257268063724041,-0.04520275443792343
1761476193425037800,6.311037841796875,-0.2175491899251938,0.2137429267168045,-0.38441380858421326
1761476193435073000,6.321072998046875,-0.2008162885904312,0.29675817489624023,-0.6647647619247437
1761476193445108000,6.33110791015625,-0.15526197850704193,0.19599586725234985,-0.8096393942832947
1761476193455143000,6.341142822265625,-0.08801930397748947,-0.0006442232988774776,-0.8078736662864685
1761476193465178000,6.35117822265625,-0.012128859758377075,-0.1830352395772934,-0.6550057530403137
1761476193475213000,6.361213134765625,0.06064840778708458,-0.3223835527896881,-0.40607523918151855
1761476193485247700,6.371247802734375,0.13542060554027557,-0.3523196578025818,-0.11773846298456192
1761476193495284000,6.381283935546875,0.1668112874031067,-0.3038722276687622,0.0675957053899765
1761476193505319000,6.39131884765625,0.099444679915905,-0.21276941895484924,0.07072456181049347
1761476193515353900,6.401353759765625,-0.00564232375472784,-0.08472037315368652,-0.0018625585362315178
1761476193525389000,6.41138916015625,0.035352081060409546,0.13726605474948883,-0.02644268050789833
1761476193535424000,6.421424072265625,0.21428507566452026,0.1797591894865036,-0.07583899050951004
1761476193545459000,6.431458984375,0.3984642028808594,-0.25552478432655334,-0.315985769033432
1761476193555494000,6.441493896484375,0.5661177039146423,-0.9720392227172852,-0.7392869591712952
1761476193565528800,6.45152880859375,0.6895315051078796,-1.4973657131195068,-1.3030766248703003
1761476193575564800,6.461564697265625,0.6656533479690552,-1.6317775249481201,-1.918623685836792
1761476193585600000,6.47160009765625,0.45444709062576294,-1.4053165912628174,-2.4511632919311523
1761476193595635000,6.481635009765625,0.11109451204538345,-0.8079423308372498,-2.8314902782440186
1761476193605670000,6.491669921875,-0.22853641211986542,0.11407942324876785,-3.054023027420044
1761476193615705000,6.501705078125,-0.4021036922931671,1.234690546989441,-2.975731611251831
1761476193625740000,6.511739990234375,-0.3505367636680603,1.9545750617980957,-2.541762590408325
1761476193635775000,6.52177490234375,-0.21607853472232819,1.841457486152649,-1.8273165225982666
1761476193645810000,6.531809814453125,-0.09131883829832077,0.9338153600692749,-0.9446206092834473
1761476193655844900,6.541844970703125,0.029247257858514786,-0.28772836923599243,-0.030982714146375656
1761476193665880800,6.551880859375,0.12142207473516464,-1.343785047531128,0.7812254428863525
1761476193675916000,6.561916015625,0.20558010041713715,-2.0469419956207275,1.4810978174209595
1761476193685951000,6.571950927734375,0.2902736961841583,-2.181518077850342,1.955844521522522
1761476193695986000,6.58198583984375,0.28492259979248047,-1.7439812421798706,2.0525155067443848
1761476193706020900,6.592020751953125,0.21519353985786438,-1.0990893840789795,1.7553468942642212
1761476193716055800,6.602055908203125,0.1181705966591835,-0.4911828637123108,1.2258762121200562
1761476193726091000,6.612091064453125,0.022349338978528976,-0.023587621748447418,0.6818689107894897
1761476193736126000,6.6221259765625,-0.0737076848745346,0.24691550433635712,0.3001521825790405
1761476193746162000,6.632161865234375,-0.23725351691246033,0.3634493350982666,0.1666053980588913
1761476193756196900,6.64219677734375,-0.4195988178253174,0.3288775086402893,0.26789045333862305
1761476193766232000,6.652232177734375,-0.5491891503334045,0.22382138669490814,0.5007482767105103
1761476193776267000,6.66226708984375,-0.6117806434631348,0.16047650575637817,0.7330179810523987
1761476193786302000,6.672302001953125,-0.6117631793022156,0.17211328446865082,0.9410115480422974
1761476193796337000,6.6823369140625,-0.5323639512062073,0.2752966284751892,1.1564964056015015
1761476193806371800,6.692371826171875,-0.4070059061050415,0.4893490672111511,1.3744213581085205
1761476193816407000,6.702406982421875,-0.2974834144115448,0.676010012626648,1.5259222984313965
1761476193826442000,6.71244189453125,-0.24363726377487183,0.730849027633667,1.5821592807769775
1761476193836478000,6.72247802734375,-0.1892334222793579,0.644626259803772,1.5530370473861694
1761476193846513200,6.73251318359375,-0.15090306103229523,0.4910542368888855,1.4652642011642456
1761476193856547800,6.7425478515625,-0.10760937631130219,0.3140360713005066,1.338639736175537
1761476193866582800,6.752582763671875,-0.0571480467915535,0.15267162024974823,1.1775721311569214
1761476193876618000,6.762617919921875,-0.015288745984435081,0.06543897092342377,1.0239245891571045
1761476193886653000,6.77265283203125,0.0169188492000103,0.04234076291322708,0.9169081449508667
1761476193896687900,6.78268798828125,0.05417753756046295,0.05702623352408409,0.8272017240524292
1761476193906723000,6.79272314453125,0.09473809599876404,0.10544932633638382,0.7186295390129089
1761476193916757800,6.8027578125,0.1370064616203308,0.14891505241394043,0.5744484066963196
1761476193926794000,6.8127939453125,0.1752079725265503,0.16063809394836426,0.3793914318084717
1761476193936829000,6.822828857421875,0.19920065999031067,0.10181286185979843,0.15306614339351654
1761476193946863900,6.83286376953125,0.20413455367088318,0.01639954000711441,-0.0835951641201973
1761476193956898800,6.84289892578125,0.22411546111106873,-0.016657747328281403,-0.30328091979026794
1761476193966934000,6.85293408203125,0.2566978633403778,0.007756075821816921,-0.5148561000823975
1761476193976969000,6.862968994140625,0.28527358174324036,0.019018318504095078,-0.6937036514282227
1761476193987004200,6.873004150390625,0.31842121481895447,0.029707729816436768,-0.8146326541900635
1761476193997038800,6.883038818359375,0.38348570466041565,0.009906860068440437,-0.9221375584602356
1761476194007074800,6.89307470703125,0.4650026559829712,-0.04860858619213104,-1.0173428058624268
1761476194017109800,6.90310986328125,0.498000830411911,-0.07811987400054932,-1.0692278146743774
1761476194027145000,6.91314501953125,0.5225704312324524,-0.031677864491939545,-1.1075527667999268
1761476194037180000,6.923179931640625,0.46737292408943176,0.16384290158748627,-1.1444388628005981
1761476194047215000,6.933215087890625,0.35211044549942017,0.543500542640686,-1.2009013891220093
1761476194057250000,6.94325,0.27541887760162354,1.0741058588027954,-1.2570083141326904
1761476194067284700,6.95328466796875,0.28297874331474304,1.602856993675232,-1.2053916454315186
1761476194077320000,6.96331982421875,0.3818744421005249,1.7206557989120483,-1.0042014122009277
1761476194087355000,6.97335498046875,0.4364989697933197,1.187232494354248,-0.7957540154457092
1761476194097390800,6.983390869140625,0.41464242339134216,0.17999814450740814,-0.7096138000488281
1761476194107426000,6.993426025390625,0.3729719817638397,-0.9589930772781372,-0.8901847004890442
1761476194117461000,7.0034609375,0.25935354828834534,-1.665218472480774,-1.2902112007141113
1761476194127496000,7.013495849609375,-0.024287771433591843,-1.4965342283248901,-1.622009038925171
1761476194137531100,7.02353125,-0.40855634212493896,-0.5843780636787415,-1.8255467414855957
1761476194147565800,7.03356591796875,-0.731670618057251,0.7959145903587341,-1.9939388036727905
1761476194157600800,7.043600830078125,-0.7687133550643921,2.229017496109009,-2.030383586883545
1761476194167637000,7.053636962890625,-0.4692840874195099,3.0470972061157227,-1.8797632455825806
1761476194177672000,7.063671875,-0.15018892288208008,2.9655797481536865,-1.4651423692703247
1761476194187707000,7.073706787109375,0.061489906162023544,2.079563617706299,-0.6991027593612671
1761476194197742000,7.0837421875,0.16231799125671387,0.8104780912399292,0.3154947757720947
1761476194207777000,7.093777099609375,0.15977758169174194,-0.4618569314479828,1.3249108791351318
1761476194217811700,7.103811767578125,0.11494806408882141,-1.382080316543579,2.08245587348938
1761476194227847000,7.113846923828125,0.13183936476707458,-1.6003040075302124,2.4144628047943115
1761476194237881900,7.1238818359375,0.1750052124261856,-1.1141990423202515,2.1430954933166504
1761476194247917800,7.133917724609375,0.191122367978096,-0.28164488077163696,1.368719220161438
1761476194257953000,7.143953125,0.16155195236206055,0.44628146290779114,0.4190671741962433
1761476194267988000,7.153988037109375,0.08555874228477478,0.7442048192024231,-0.3320751488208771
1761476194278023000,7.16402294921875,-0.025076158344745636,0.5370891690254211,-0.676640510559082
1761476194288058000,7.17405810546875,-0.08719104528427124,-0.015785258263349533,-0.5578368902206421
1761476194298092800,7.1840927734375,-0.13492447137832642,-0.5612382292747498,-0.12326415628194809
1761476194308128000,7.1941279296875,-0.22772903740406036,-0.7843389511108398,0.38970357179641724
1761476194318163000,7.204162841796875,-0.3562625050544739,-0.6421126127243042,0.7673190236091614
1761476194328199000,7.214198974609375,-0.49084892868995667,-0.22569629549980164,0.9240871667861938
1761476194338233900,7.22423388671875,-0.5508110523223877,0.24910616874694824,0.9057566523551941
1761476194348267500,7.234267578125,-0.5455030798912048,0.6257798671722412,0.7513594031333923
1761476194358302700,7.244302734375,-0.4812697470188141,0.7723059058189392,0.5629034638404846
1761476194368337700,7.254337646484375,-0.3158007562160492,0.6919221878051758,0.4701719582080841
1761476194378372400,7.264372314453125,-0.10973283648490906,0.5076056122779846,0.5442962646484375
1761476194388407600,7.274407470703125,0.02978149801492691,0.30822911858558655,0.6957069039344788
1761476194398442500,7.2844423828125,0.1055244654417038,0.07762491703033447,0.8652639985084534
1761476194408478500,7.294478515625,0.14479276537895203,-0.16205134987831116,1.0160905122756958
1761476194418513700,7.304513671875,0.13216379284858704,-0.3187011182308197,1.1035908460617065
1761476194428548600,7.314548583984375,0.05248229578137398,-0.37891408801078796,1.098296880722046
1761476194438583600,7.32458349609375,-0.04787866398692131,-0.38156208395957947,0.9842251539230347
1761476194448618500,7.334618408203125,-0.13227908313274384,-0.3297707736492157,0.7395780682563782
1761476194458653400,7.3446533203125,-0.1693606674671173,-0.23506928980350494,0.39044132828712463
1761476194468688400,7.3546884765625,-0.1440824717283249,-0.1463242471218109,0.011034632101655006
1761476194478724400,7.364724365234375,-0.0664244294166565,-0.057655368000268936,-0.3216290771961212
1761476194488759600,7.374759521484375,0.01225373987108469,0.02039843052625656,-0.5485682487487793
1761476194498794500,7.38479443359375,0.06644108146429062,0.025284796953201294,-0.636001706123352
1761476194508829700,7.39482958984375,0.07046663761138916,-0.008025405928492546,-0.5900723338127136
1761476194518864600,7.40486474609375,0.04520043730735779,-0.07452214509248734,-0.4327538311481476
1761476194528899300,7.4148994140625,0.02561401017010212,-0.18534888327121735,-0.19056743383407593
1761476194538934500,7.4249345703125,0.025232112035155296,-0.33730167150497437,0.06835893541574478
1761476194548970500,7.434970458984375,0.02803712897002697,-0.4937441349029541,0.19370749592781067
1761476194559005400,7.44500537109375,0.04332979768514633,-0.6233940124511719,0.17464938759803772
1761476194569040600,7.45504052734375,0.0963936597108841,-0.7325717806816101,0.07921900600194931
1761476194579075600,7.46507568359375,0.1583595722913742,-0.6406562328338623,-0.04310930520296097
1761476194589110500,7.475110595703125,0.24295338988304138,-0.24606701731681824,-0.09415651857852936
1761476194599145500,7.4851455078125,0.3348177969455719,0.2040090709924698,-0.09440126270055771
1761476194609180400,7.495180419921875,0.3416178524494171,0.4933265745639801,-0.047901228070259094
1761476194619216400,7.50521630859375,0.2961265444755554,0.5776835680007935,0.08672688901424408
1761476194629251600,7.51525146484375,0.27133917808532715,0.4139319658279419,0.2253127098083496
1761476194639286500,7.52528662109375,0.2677209973335266,0.04671614244580269,0.21175535023212433
1761476194649321500,7.535321533203125,0.23209957778453827,-0.4097488522529602,-0.012790249660611153
1761476194659356700,7.545356689453125,0.18662770092487335,-0.7817293405532837,-0.40219923853874207
1761476194669391600,7.5553916015625,0.18489515781402588,-0.8840833306312561,-0.8442051410675049
1761476194679426300,7.56542626953125,0.1703556329011917,-0.7253006100654602,-1.1883682012557983
1761476194689462500,7.575462646484375,0.052346229553222656,-0.18389257788658142,-1.2731318473815918
1761476194699497500,7.58549755859375,-0.1740645468235016,0.5781051516532898,-1.1582750082015991
1761476194709532400,7.595532470703125,-0.3894968330860138,1.1531420946121216,-1.0465898513793945
1761476194719567600,7.605567626953125,-0.4547956585884094,1.3950386047363281,-0.9386063814163208
1761476194729602600,7.6156025390625,-0.3958944082260132,1.3133165836334229,-0.737253725528717
1761476194739637500,7.625637451171875,-0.24335147440433502,0.97743821144104,-0.4084247350692749
1761476194749672400,7.63567236328125,-0.057382285594940186,0.5183370113372803,0.012133351527154446
1761476194759708400,7.64570849609375,0.07441595941781998,0.00020329514518380165,0.4028837978839874
1761476194769743400,7.655743408203125,0.126847043633461,-0.44909143447875977,0.6398416757583618
1761476194779778600,7.665778564453125,0.09999679028987885,-0.612390398979187,0.6832235455513
1761476194789813500,7.6758134765625,0.03388926014304161,-0.4570923447608948,0.5691139101982117
1761476194799848400,7.685848388671875,-0.03667811304330826,-0.18095314502716064,0.34941062331199646
1761476194809883600,7.695883544921875,-0.07412903010845184,0.10454266518354416,0.1451610028743744
1761476194819919600,7.705919677734375,-0.10560040175914764,0.2723071575164795,0.037963174283504486
1761476194829954600,7.71595458984375,-0.14998607337474823,0.32594844698905945,0.04163104668259621
1761476194839989500,7.725989501953125,-0.21629078686237335,0.3183520436286926,0.1285662204027176
1761476194850024400,7.7360244140625,-0.28948792815208435,0.26725855469703674,0.2701425850391388
1761476194860059400,7.746059326171875,-0.3788028955459595,0.2265516072511673,0.4508812129497528
1761476194870094600,7.756094482421875,-0.461251437664032,0.2332015186548233,0.6302863359451294
1761476194880130600,7.766130615234375,-0.49726563692092896,0.29280388355255127,0.7988276481628418
1761476194890165500,7.77616552734375,-0.47339147329330444,0.40018677711486816,0.9530722498893738
1761476194900200700,7.78620068359375,-0.40983033180236816,0.5299338698387146,1.0754023790359497
1761476194910235400,7.7962353515625,-0.29779869318008423,0.5751327276229858,1.1450656652450562
1761476194920270300,7.806270263671875,-0.1637793779373169,0.5301569700241089,1.1667875051498413
1761476194930305500,7.816305419921875,-0.07804343104362488,0.4124593734741211,1.1417752504348755
1761476194940340500,7.826340576171875,-0.030734244734048843,0.27589672803878784,1.0940604209899902
1761476194950376400,7.83637646484375,0.019149906933307648,0.16997918486595154,1.0213913917541504
1761476194960411600,7.84641162109375,0.07851602882146835,0.11099390685558319,0.9216669201850891
1761476194970446600,7.856446533203125,0.14307089149951935,0.10175837576389313,0.8004599213600159
1761476194980481500,7.8664814453125,0.2137669026851654,0.12677425146102905,0.6669538021087646
1761476194990516500,7.8765166015625,0.24459032714366913,0.1513078212738037,0.5183289051055908
1761476195000551400,7.886551513671875,0.2007560282945633,0.14471304416656494,0.3629094660282135
1761476195010587400,7.89658740234375,0.12212859094142914,0.08953367173671722,0.2156805545091629
1761476195020622600,7.90662255859375,0.03441019356250763,-0.0042615290731191635,0.05366634204983711
1761476195030657500,7.916657470703125,-0.02605563774704933,-0.12415768951177597,-0.11904572695493698
1761476195040692500,7.9266923828125,-0.03469972684979439,-0.23084630072116852,-0.2707151770591736
1761476195050727700,7.936727783203125,0.006465154699981213,-0.29804322123527527,-0.3825221359729767
1761476195060762400,7.946762451171875,0.07508629560470581,-0.33233192563056946,-0.45742276310920715
1761476195070798600,7.956798583984375,0.15967650711536407,-0.38794586062431335,-0.5031101703643799
1761476195080833500,7.96683349609375,0.2205798178911209,-0.4203067123889923,-0.49520349502563477
1761476195090868500,7.976868408203125,0.22583916783332825,-0.40073755383491516,-0.4770521819591522
1761476195100903400,7.9869033203125,0.2080753594636917,-0.3358946442604065,-0.4426950216293335
1761476195110938600,7.996938720703125,0.17489401996135712,-0.21838708221912384,-0.36132073402404785
1761476195120973600,8.0069736328125,0.10609419643878937,-0.09841620922088623,-0.28428587317466736
1761476195131009500,8.017009521484376,0.04704413563013077,-0.010018862783908844,-0.2349984347820282
1761476195141040600,8.02704052734375,0.04626915603876114,0.03611427918076515,-0.16956296563148499
1761476195151075600,8.03707568359375,0.1637384295463562,-0.03280571848154068,0.00888135191053152
1761476195161110500,8.047110595703124,0.3563840389251709,-0.10711563378572464,0.3516123294830322
1761476195171145500,8.0571455078125,0.5151898264884949,-0.1576526165008545,0.7023589015007019
1761476195181180400,8.067180419921876,0.5732933282852173,-0.2569001317024231,0.7190026044845581
1761476195191215600,8.077215576171875,0.4536780118942261,-0.5428040623664856,0.24127031862735748
1761476195201251600,8.08725146484375,0.20897077023983002,-0.9588286876678467,-0.50245201587677
1761476195211286500,8.09728662109375,0.015865817666053772,-1.2014929056167603,-1.2396972179412842
1761476195221321500,8.107321533203125,-0.04264836013317108,-0.9870564341545105,-1.8133591413497925
1761476195231356700,8.117356689453125,-0.03117157332599163,-0.23604506254196167,-2.146146535873413
1761476195241391400,8.127391357421875,-0.028968341648578644,0.7749199271202087,-2.239417314529419
1761476195251426600,8.137426513671874,0.0071978382766246796,1.6946842670440674,-2.0081844329833984
1761476195261462500,8.147462646484374,0.12877406179904938,2.095015525817871,-1.4565280675888062
1761476195271497500,8.15749755859375,0.24573253095149994,1.7379363775253296,-0.7713805437088013
1761476195281532400,8.167532470703126,0.33829256892204285,0.7946564555168152,-0.057192087173461914
1761476195291567600,8.177567626953126,0.3949526250362396,-0.1953246295452118,0.6580143570899963
1761476195301602600,8.1876025390625,0.41569119691848755,-0.9314029216766357,1.2275696992874146
1761476195311638500,8.197638427734375,0.4042108952999115,-1.3288902044296265,1.6069129705429077
1761476195321673700,8.207673828125,0.3715895712375641,-1.237011194229126,1.6823289394378662
1761476195331708400,8.21770849609375,0.3395195007324219,-0.8365611433982849,1.4122496843338013
1761476195341743400,8.227743408203125,0.2725076973438263,-0.4513610005378723,0.8873949646949768
1761476195351775200,8.237775146484376,0.13879621028900146,-0.12068422883749008,0.2726554870605469
1761476195361810200,8.24781005859375,-0.02339082956314087,0.11643964052200317,-0.2774297297000885
1761476195371846100,8.25784619140625,-0.14944566786289215,0.154362753033638,-0.6908819675445557
1761476195381881300,8.26788134765625,-0.19869790971279144,0.007310989312827587,-0.9337295293807983
1761476195391916300,8.277916259765625,-0.17954128980636597,-0.18710878491401672,-0.9816891551017761
1761476195401951000,8.287950927734375,-0.15765810012817383,-0.32211214303970337,-0.8727525472640991
1761476195411986200,8.297986083984375,-0.17076240479946136,-0.36080577969551086,-0.6787121295928955
1761476195422022100,8.308022216796875,-0.16997171938419342,-0.3414621651172638,-0.42144545912742615
1761476195432057000,8.31805712890625,-0.15249623358249664,-0.2744649648666382,-0.1261851191520691
1761476195442092300,8.32809228515625,-0.17218978703022003,-0.13808046281337738,0.17271582782268524
1761476195452127200,8.338127197265624,-0.24027130007743835,-0.018783528357744217,0.4383774995803833
1761476195462162200,8.348162109375,-0.3197503983974457,0.10933848470449448,0.6060978174209595
1761476195472197400,8.358197265625,-0.3605998754501343,0.23327752947807312,0.6254764199256897
1761476195482233300,8.3682333984375,-0.33172187209129333,0.37641075253486633,0.5624300241470337
1761476195492268000,8.37826806640625,-0.26046237349510193,0.46939849853515625,0.4959622919559479
1761476195502303200,8.38830322265625,-0.18544645607471466,0.39402464032173157,0.4190504550933838
1761476195512338200,8.398338134765625,-0.15384924411773682,0.2682097256183624,0.3067740499973297
1761476195522373000,8.408373046875,-0.15544766187667847,0.22347955405712128,0.20704211294651031
1761476195532409000,8.4184091796875,-0.16778823733329773,0.2602759003639221,0.15546227991580963
1761476195542444300,8.4284443359375,-0.18445533514022827,0.32326897978782654,0.11524268984794617
1761476195552479200,8.438479248046875,-0.1908181607723236,0.38920778036117554,0.038356963545084
1761476195562514400,8.448514404296875,-0.19368958473205566,0.34758177399635315,-0.04905277490615845
1761476195572549000,8.458549072265624,-0.18087296187877655,0.2865042984485626,-0.14769065380096436
1761476195582584000,8.468583984375,-0.10819291323423386,0.22595730423927307,-0.2368980199098587
1761476195592620000,8.4786201171875,0.016322441399097443,0.1499015837907791,-0.2858504354953766
1761476195602655200,8.4886552734375,0.10226797312498093,0.050443172454833984,-0.2864688038825989
1761476195612690200,8.498690185546875,0.11086045205593109,0.012385707348585129,-0.2796996533870697
1761476195622725400,8.508725341796875,0.07449126243591309,0.07918071746826172,-0.2712539732456207
1761476195632760300,8.51876025390625,0.05519136041402817,0.1550581008195877,-0.22136998176574707
1761476195642796300,8.52879638671875,0.09756118804216385,0.17301152646541595,-0.1107822135090828
1761476195652831000,8.5388310546875,0.2033761441707611,0.19477757811546326,-0.0398213155567646
1761476195662866200,8.5488662109375,0.2965034246444702,0.2674882709980011,-0.02176162227988243
1761476195672901000,8.558901123046875,0.3334084451198578,0.2639337182044983,0.04852013662457466
1761476195682936000,8.56893603515625,0.3374522030353546,0.2929672598838806,0.1491716504096985
1761476195692971300,8.57897119140625,0.3537122905254364,0.18418721854686737,0.19582992792129517
1761476195703007200,8.58900732421875,0.32970601320266724,0.04053258150815964,0.2649666368961334
1761476195713042200,8.599042236328126,0.36729496717453003,-0.20670576393604279,0.3763493299484253
1761476195723077400,8.609077392578126,0.47804704308509827,-0.5599874258041382,0.3363971412181854
1761476195733112000,8.619112060546875,0.5612539052963257,-1.0113739967346191,0.03395767882466316
1761476195743149300,8.6291494140625,0.48962631821632385,-1.3214333057403564,-0.3996640741825104
1761476195753184000,8.63918408203125,0.24013441801071167,-1.1836892366409302,-0.8054937124252319
1761476195763219200,8.64921923828125,-0.031630516052246094,-0.6849331855773926,-1.104649305343628
1761476195773254100,8.659254150390625,-0.1438482254743576,-0.04609104245901108,-1.2695406675338745
1761476195783290000,8.6692900390625,-0.09411448240280151,0.6585589647293091,-1.2177709341049194
1761476195793325300,8.6793251953125,0.03853442892432213,1.216703176498413,-0.8436774015426636
1761476195803360300,8.6893603515625,0.22939147055149078,1.4837840795516968,-0.23223477602005005
1761476195813395200,8.699395263671875,0.304511696100235,1.314034104347229,0.39157816767692566
1761476195823430400,8.709430419921874,0.20973855257034302,0.8676025867462158,0.9227501153945923
1761476195833465000,8.719465087890624,0.10516275465488434,0.2550201416015625,1.2708433866500854
1761476195843501000,8.7295009765625,0.054174140095710754,-0.36614060401916504,1.2995387315750122
1761476195853536300,8.739536376953126,0.044070132076740265,-0.8254698514938354,1.0902307033538818
1761476195863571200,8.7495712890625,0.05938650667667389,-0.9783115983009338,0.743101954460144
1761476195873606100,8.759606201171875,0.0416804738342762,-0.8215028047561646,0.33330783247947693
1761476195883641300,8.769641357421875,-0.0036353403702378273,-0.5291907787322998,-0.03894827887415886
1761476195893677300,8.77967724609375,-0.01595674827694893,-0.2899504601955414,-0.29748138785362244
1761476195903712300,8.789712158203125,-0.03406517952680588,-0.2480485588312149,-0.4390784502029419
1761476195913747200,8.799747314453125,-0.09336335957050323,-0.3591868579387665,-0.4530928134918213
1761476195923782100,8.8097822265625,-0.22265343368053436,-0.42901015281677246,-0.37137317657470703
1761476195933817000,8.819817138671874,-0.4151528775691986,-0.34237802028656006,-0.2171049416065216
1761476195943852300,8.829852294921874,-0.6004950404167175,-0.1769578754901886,-0.02226141467690468
1761476195953888300,8.83988818359375,-0.6817106008529663,0.040717605501413345,0.23674911260604858
1761476195963923200,8.849923095703126,-0.6397343873977661,0.25267061591148376,0.5382311940193176
1761476195973958100,8.859958251953126,-0.534354567527771,0.4180818796157837,0.7797663807868958
1761476195983993300,8.869993408203126,-0.4195358157157898,0.5435194373130798,0.9444389343261719
1761476195994028000,8.880028076171875,-0.31192758679389954,0.6042267084121704,1.0577750205993652
1761476196004064000,8.89006396484375,-0.23303304612636566,0.5612257122993469,1.1337870359420776
1761476196014099200,8.90009912109375,-0.19571316242218018,0.4425079822540283,1.152418613433838
1761476196024134100,8.910134033203125,-0.20582784712314606,0.3114711344242096,1.1181241273880005
1761476196034169000,8.920169189453125,-0.23768533766269684,0.19799798727035522,1.0431894063949585
1761476196044204300,8.930204345703125,-0.2613416314125061,0.13028551638126373,0.953956663608551
1761476196054239200,8.9402392578125,-0.2473168671131134,0.13334006071090698,0.8490495085716248
1761476196064275200,8.950275146484374,-0.16690298914909363,0.18201304972171783,0.7744162678718567
1761476196074310400,8.960310302734374,-0.04371937736868858,0.24541914463043213,0.722830593585968
1761476196084345000,8.970344970703126,0.08285614103078842,0.26570525765419006,0.6244731545448303
1761476196094380000,8.980380126953126,0.186827152967453,0.21868951618671417,0.4825170040130615
1761476196104415200,8.990415283203125,0.22769202291965485,0.042427413165569305,0.31865695118904114
1761476196114450200,9.0004501953125,0.16896194219589233,-0.2056427299976349,0.13014288246631622
1761476196124486100,9.010486083984375,0.06275135278701782,-0.4233532249927521,-0.05712234973907471
1761476196134521300,9.020521240234375,-0.03266848251223564,-0.5624787211418152,-0.19336450099945068
1761476196144556300,9.030556396484375,-0.07487799227237701,-0.6176713705062866,-0.2882995307445526
1761476196154591000,9.040591064453125,-0.07651910185813904,-0.5910201668739319,-0.35227662324905396
1761476196164626200,9.050626220703125,-0.03445367142558098,-0.4726508855819702,-0.4122310280799866
1761476196174662100,9.060662109375,0.01098870113492012,-0.3563539683818817,-0.47252142429351807
1761476196184697000,9.070697021484374,0.01965116336941719,-0.3154246509075165,-0.5453487634658813
1761476196194732300,9.080732177734374,0.0035993270576000214,-0.3393450975418091,-0.589055061340332
1761476196204767200,9.090767333984376,-0.047687828540802,-0.3878820240497589,-0.6059008836746216
1761476196214802200,9.10080224609375,-0.10627276450395584,-0.4166589379310608,-0.5752485394477844
1761476196224837400,9.11083740234375,-0.0632893443107605,-0.4035828113555908,-0.431671679019928
1761476196234873300,9.120873291015625,0.04017896205186844,-0.29293906688690186,-0.22155942022800446
1761476196244908000,9.130907958984375,0.41353657841682434,-0.10447249561548233,0.07570821046829224
1761476196254943200,9.140943115234375,0.7461445331573486,-0.008624319918453693,0.2739744782447815
1761476196264978200,9.150978271484375,0.8524832129478455,-0.2778373956680298,0.24850480258464813
1761476196275013000,9.16101318359375,0.6739907264709473,-0.9624075293540955,-0.06927791237831116
1761476196285048300,9.17104833984375,0.30736103653907776,-1.7038459777832031,-0.5522829294204712
1761476196295084300,9.181084228515624,0.012869788333773613,-2.096818685531616,-1.062552809715271
1761476196305119200,9.191119140625,-0.08681632578372955,-1.7187448740005493,-1.508694052696228
1761476196315154200,9.201154296875,-0.09478732943534851,-0.4827759861946106,-1.9368287324905396
1761476196325189000,9.211189208984376,-0.10007449984550476,0.9881342053413391,-2.394070863723755
1761476196335224000,9.22122412109375,-0.12769736349582672,2.132502794265747,-2.65086030960083
1761476196345259300,9.23125927734375,-0.09209222346544266,2.5442941188812256,-2.46860408782959
1761476196355297800,9.2412978515625,-0.04233022779226303,2.0439324378967285,-1.9236335754394531
1761476196365332700,9.251332763671876,-0.06455857306718826,1.0192149877548218,-1.1329147815704346
1761476196375368000,9.261367919921875,-0.1375536024570465,-0.07217580825090408,-0.257649689912796
1761476196385402600,9.271402587890625,-0.22689732909202576,-1.0061671733856201,0.5386996865272522
1761476196395437800,9.281437744140625,-0.2841472327709198,-1.6719365119934082,1.1530157327651978
1761476196405472800,9.29147265625,-0.24212922155857086,-1.9651836156845093,1.428972840309143
1761476196415508700,9.3015087890625,-0.12420300394296646,-1.778554081916809,1.2243549823760986
1761476196425543700,9.311543701171875,0.0027152681723237038,-1.4227269887924194,0.6849561333656311
1761476196435579000,9.321578857421875,0.08759773522615433,-0.8190294504165649,0.01234612986445427
1761476196445613800,9.33161376953125,0.06651774793863297,-0.12624776363372803,-0.630462110042572
1761476196455648800,9.341648681640624,-0.06092866137623787,0.3554084002971649,-1.1803538799285889
1761476196465683700,9.35168359375,-0.2680714428424835,0.5677360892295837,-1.6022907495498657
1761476196475718700,9.36171875,-0.5233583450317383,0.6204001307487488,-1.875867486000061
1761476196485754600,9.371754638671876,-0.7760409116744995,0.4891395568847656,-2.0017824172973633
1761476196495789800,9.381789794921875,-0.8616291880607605,0.12016071379184723,-1.8630307912826538
1761476196505824800,9.39182470703125,-0.9314165115356445,-0.2208581268787384,-1.4212150573730469
1761476196515860000,9.40185986328125,-0.8720680475234985,-0.3020756244659424,-0.7073175311088562
1761476196525895000,9.41189501953125,-0.6534637808799744,-0.13342803716659546,0.07821375876665115
1761476196535929600,9.4219296875,-0.49852311611175537,0.13121221959590912,0.7102473378181458
1761476196545965600,9.431965576171875,-0.4112670421600342,0.2853378653526306,1.0998646020889282
1761476196556000800,9.442000732421874,-0.4085089862346649,0.3318527340888977,1.2392538785934448
1761476196566035700,9.45203564453125,-0.49781355261802673,0.3632649779319763,1.2050361633300781
1761476196576071000,9.46207080078125,-0.637665331363678,0.30130547285079956,1.1029964685440063
1761476196586105900,9.47210595703125,-0.7844367027282715,0.12427183985710144,1.0160812139511108
1761476196596140800,9.482140869140625,-0.8661197423934937,-0.08927295356988907,0.9577862620353699
1761476196606176800,9.4921767578125,-0.8329354524612427,-0.18824906647205353,0.8850209712982178
1761476196616212000,9.5022119140625,-0.6662641763687134,-0.06818725168704987,0.7815226316452026
1761476196626246700,9.51224658203125,-0.4220959544181824,0.25076571106910706,0.6537076830863953
1761476196636281900,9.52228173828125,-0.16274690628051758,0.5856211185455322,0.5541956424713135
1761476196646316800,9.53231689453125,0.02445521578192711,0.764814555644989,0.47098252177238464
1761476196656351700,9.542351806640625,0.12204886227846146,0.7674285173416138,0.3861291706562042
1761476196666387000,9.552386962890624,0.16008812189102173,0.7113221287727356,0.33747243881225586
1761476196676423000,9.5624228515625,0.14435511827468872,0.628960132598877,0.32527631521224976
1761476196686457900,9.572457763671874,0.07511213421821594,0.5088496804237366,0.313454270362854
1761476196696492500,9.582492431640626,-0.009586983360350132,0.40722471475601196,0.2837359309196472
1761476196706527700,9.59252783203125,-0.06946869194507599,0.28658750653266907,0.2065703123807907
1761476196716562700,9.602562744140625,-0.033148154616355896,0.18031921982765198,0.09036204218864441
1761476196726598000,9.612597900390625,0.09561967849731445,0.20028972625732422,-0.0039404891431331635
1761476196736633900,9.6226337890625,0.21642540395259857,0.5052918195724487,-0.028008144348859787
1761476196746668800,9.632668701171875,0.23528164625167847,0.9783354997634888,0.12397579103708267
1761476196756703700,9.642703857421875,0.14465995132923126,1.3588324785232544,0.36425116658210754
1761476196766738700,9.65273876953125,-0.07993773370981216,1.4581867456436157,0.5744584798812866
1761476196776773600,9.662773681640624,-0.31419798731803894,1.1772043704986572,0.6228542923927307
1761476196786808800,9.672808837890624,-0.3372955620288849,0.561397910118103,0.45995455980300903
1761476196796843800,9.68284375,-0.16639523208141327,-0.15357105433940887,0.18314090371131897
1761476196806879700,9.692879638671876,0.03318818658590317,-0.8117377758026123,-0.01649923250079155
1761476196816914700,9.702914794921876,0.17603707313537598,-1.0614726543426514,-0.15701806545257568
1761476196826950000,9.712949951171876,0.2571335434913635,-0.9074361324310303,-0.32248133420944214
1761476196836984800,9.72298486328125,0.23891779780387878,-0.466015487909317,-0.6449182629585266
1761476196847019800,9.733019775390625,0.11760309338569641,0.29419103264808655,-1.0549598932266235
1761476196857054700,9.7430546875,-0.08781860023736954,1.1437479257583618,-1.39539635181427
1761476196867089700,9.753089599609375,-0.21266387403011322,1.7779771089553833,-1.4803770780563354
1761476196877125600,9.763125732421875,-0.18864744901657104,1.9327701330184937,-1.2520698308944702
1761476196887160800,9.773160888671875,-0.046621594578027725,1.5064483880996704,-0.7537187933921814
1761476196897195800,9.78319580078125,0.15222801268100739,0.706265926361084,-0.14224112033843994
1761476196907231000,9.79323095703125,0.3325738310813904,-0.024595502763986588,0.4328687787055969
1761476196917265700,9.803265625,0.3995179831981659,-0.5397698283195496,0.8384612202644348
1761476196927300600,9.813300537109376,0.3081318736076355,-0.8783353567123413,1.0221830606460571
1761476196937335800,9.823335693359375,0.14798076450824738,-0.963170051574707,1.0305653810501099
1761476196947371800,9.833371826171875,0.024948056787252426,-0.8215969204902649,0.8289133310317993
1761476196957406700,9.84340673828125,-0.041983526200056076,-0.6326097249984741,0.46227550506591797
1761476196967442000,9.85344189453125,-0.036562129855155945,-0.48200687766075134,0.013638347387313843
1761476196977476900,9.863476806640625,0.01753299869596958,-0.44206249713897705,-0.4184924364089966
1761476196987511800,9.87351171875,0.09302748739719391,-0.509907603263855,-0.7276998162269592
1761476196997546800,9.883546630859374,0.17357195913791656,-0.6255384087562561,-0.8657699227333069
1761476197007581700,9.893581787109374,0.20783858001232147,-0.6181526184082031,-0.8170287609100342
1761476197017617700,9.90361767578125,0.11752153933048248,-0.35912302136421204,-0.6015709042549133
1761476197027652900,9.91365283203125,-0.05879250541329384,-0.0003022807650268078,-0.2852638065814972
1761476197037687800,9.923687744140626,-0.19566410779953003,0.2633110284805298,0.1255858689546585
1761476197047722800,9.93372265625,-0.24671851098537445,0.46448782086372375,0.5370898246765137
1761476197057758000,9.943758056640625,-0.26140111684799194,0.5878397822380066,0.8542711138725281
1761476197067792600,9.953792724609375,-0.2367280125617981,0.5985840559005737,1.098251223564148
1761476197077827600,9.96382763671875,-0.17932888865470886,0.45715034008026123,1.2762621641159058
1761476197087863800,9.97386376953125,-0.09663587808609009,0.21558618545532227,1.3497602939605713
1761476197097898800,9.983898681640625,-0.03919962793588638,-0.010255740955471992,1.297160267829895
1761476197107933700,9.99393359375,-0.0004831235855817795,-0.18128740787506104,1.1602469682693481
1761476197117969000,10.003968994140624,0.04782601073384285,-0.23671171069145203,0.9450467228889465
1761476197128003800,10.01400390625,0.04471916705369949,-0.21293500065803528,0.6834291815757751
1761476197138038800,10.024038818359376,0.02643924579024315,-0.07321064174175262,0.3778527081012726
1761476197148073700,10.03407373046875,0.05310361087322235,0.20098043978214264,0.08337792009115219
1761476197158108700,10.044108642578125,0.10221182554960251,0.48104128241539,-0.1767488569021225
1761476197168144600,10.05414453125,0.13403554260730743,0.6534607410430908,-0.37937092781066895
1761476197178179800,10.064179931640625,0.1224999725818634,0.6301270723342896,-0.48880699276924133
1761476197188214800,10.07421484375,0.042621124535799026,0.4492502212524414,-0.49605825543403625
1761476197198249700,10.084249755859375,-0.05877924710512161,0.1254289448261261,-0.4039493799209595
1761476197208285000,10.094284912109375,-0.11501961201429367,-0.23316942155361176,-0.2593424320220947
1761476197218319600,10.104319580078124,-0.1293540745973587,-0.457689493894577,-0.11628784239292145
1761476197228354800,10.114354736328124,-0.14907290041446686,-0.44672417640686035,-0.02140899933874607
1761476197238389800,10.1243896484375,-0.18755501508712769,-0.1263260543346405,0.03878901153802872
1761476197248425700,10.13442578125,-0.2187989503145218,0.41499629616737366,0.10348811745643616
1761476197258460700,10.144460693359376,-0.20617426931858063,0.8133193850517273,0.09753231704235077
1761476197268496000,10.154495849609376,-0.16028934717178345,1.0051207542419434,0.045043542981147766
1761476197278530800,10.16453076171875,-0.11699109524488449,0.8995048403739929,-0.08792231231927872
1761476197288565800,10.174565673828125,-0.11120910942554474,0.5346968173980713,-0.22779500484466553
1761476197298600700,10.1846005859375,-0.08877713978290558,0.15946835279464722,-0.24055826663970947
1761476197308635600,10.1946357421875,-0.04365973174571991,-0.04841480031609535,-0.04168245568871498
1761476197318671600,10.204671630859375,-0.08000107109546661,-0.010937100276350975,0.28593507409095764
1761476197328706800,10.214706787109375,-0.22807416319847107,0.37771743535995483,0.6342336535453796
1761476197338741800,10.22474169921875,-0.4086569845676422,0.522929310798645,0.7227333784103394
1761476197348776700,10.234776611328124,-0.5591610074043274,0.05848203971982002,0.33734044432640076
1761476197358809000,10.24480908203125,-0.6939782500267029,-0.5943877696990967,-0.36685454845428467
1761476197368843800,10.25484375,-0.7615863680839539,-1.1095759868621826,-1.1826820373535156
1761476197378878700,10.264878662109375,-0.7002805471420288,-1.0217487812042236,-1.8693315982818604
1761476197388914000,10.274913818359375,-0.510852575302124,-0.18450415134429932,-2.2953643798828125
1761476197398950000,10.284949951171875,-0.25283899903297424,0.9232748746871948,-2.2009310722351074
1761476197408984800,10.29498486328125,0.0638960674405098,1.621161937713623,-1.6477196216583252
1761476197419020000,10.30502001953125,0.3216104805469513,1.5523626804351807,-0.9527521133422852
1761476197429055000,10.315054931640624,0.33954712748527527,0.9708622694015503,-0.3168228566646576
1761476197439090000,10.32508984375,0.10831351578235626,0.15186798572540283,0.17352208495140076
1761476197449124900,10.335124755859376,-0.20401376485824585,-0.5063897967338562,0.45317238569259644
1761476197459159800,10.345159912109375,-0.41089683771133423,-0.7992749214172363,0.46455591917037964
1761476197469195000,10.355195068359375,-0.5192142128944397,-0.7154106497764587,0.24131885170936584
1761476197479231000,10.36523095703125,-0.5467203259468079,-0.49398744106292725,-0.14994730055332184
1761476197489266000,10.375265869140625,-0.47454553842544556,-0.21489936113357544,-0.5507125854492188
1761476197499300900,10.38530078125,-0.3451942503452301,0.01722506806254387,-0.8001904487609863
1761476197509336000,10.395336181640625,-0.24788156151771545,-0.0008250395767390728,-0.8448777794837952
1761476197519370800,10.405370849609374,-0.20800231397151947,-0.32817283272743225,-0.6994801163673401
1761476197529406000,10.415406005859374,-0.250830739736557,-0.8237010836601257,-0.47279900312423706
1761476197539441000,10.42544091796875,-0.41574639081954956,-1.2059540748596191,-0.28576505184173584
1761476197549475800,10.435475830078126,-0.6056258082389832,-1.2855209112167358,-0.21155953407287598
1761476197559511000,10.445510986328125,-0.6807403564453125,-1.0592528581619263,-0.21827475726604462
1761476197569547000,10.455547119140626,-0.6217933893203735,-0.6703879237174988,-0.24308688938617706
1761476197579582000,10.46558203125,-0.48569416999816895,-0.28037646412849426,-0.2400745302438736
1761476197589617000,10.475616943359375,-0.3045606017112732,0.1106639951467514,-0.16089315712451935
1761476197599651800,10.48565185546875,-0.14580464363098145,0.30972349643707275,-0.004947017878293991
1761476197609686800,10.495686767578125,-0.09508020430803299,0.35297590494155884,0.1943541020154953
1761476197619722000,10.505721923828125,-0.13507892191410065,0.3397376537322998,0.40861454606056213
1761476197629757000,10.5157568359375,-0.20663246512413025,0.375585675239563,0.6206018328666687
1761476197639791900,10.5257919921875,-0.25467514991760254,0.4827667474746704,0.8437573313713074
1761476197649827000,10.5358271484375,-0.2380857765674591,0.6203959584236145,1.070094347000122
1761476197659863000,10.545863037109376,-0.13972108066082,0.7191103100776672,1.3043389320373535
1761476197669897700,10.555897705078126,0.0025551076978445053,0.7559124827384949,1.5327188968658447
1761476197679933000,10.565932861328125,0.10118255764245987,0.7272866368293762,1.7186006307601929
1761476197689967900,10.5759677734375,0.11713968217372894,0.6877977848052979,1.8318341970443726
1761476197700002800,10.5860029296875,0.06993294507265091,0.6412788033485413,1.864317536354065
1761476197710038000,10.5960380859375,-0.046600326895713806,0.573756992816925,1.7969447374343872
1761476197720073000,10.606072998046875,-0.19168052077293396,0.49230462312698364,1.646222710609436
1761476197730108000,10.61610791015625,-0.29074957966804504,0.45587149262428284,1.4443188905715942
1761476197740144000,10.62614404296875,-0.31087300181388855,0.5427876114845276,1.1948415040969849
1761476197750178800,10.6361787109375,-0.2562486529350281,0.7099960446357727,0.9567255973815918
1761476197760213800,10.6462138671875,-0.1540660262107849,0.8530786633491516,0.7641675472259521
1761476197770249000,10.6562490234375,-0.019938576966524124,1.0122897624969482,0.6331077814102173
1761476197780284000,10.666283935546875,0.08001784235239029,1.2593852281570435,0.601166307926178
1761476197790318800,10.67631884765625,0.07570884376764297,1.3920133113861084,0.6545451283454895
1761476197800354000,10.68635400390625,-0.04641636461019516,1.3499895334243774,0.7607940435409546
1761476197810388700,10.696388671875,-0.21729569137096405,1.0196139812469482,0.9716383814811707
1761476197820424000,10.706423828125,-0.2993343472480774,0.3231901228427887,1.1837023496627808
1761476197830459000,10.716458984375,-0.19059990346431732,-0.236430823802948,1.3646082878112793
1761476197840494800,10.726494873046875,-0.027828138321638107,-0.5298980474472046,1.328942894935608
1761476197850529800,10.73652978515625,0.06685096770524979,-0.5542179942131042,1.0527925491333008
1761476197860565000,10.74656494140625,0.08244988322257996,-0.5860503315925598,0.4997011721134186
1761476197870600000,10.756599853515626,-0.013340557925403118,-0.7180909514427185,-0.2564975619316101
1761476197880635000,10.766634765625,-0.1545904576778412,-0.7741219997406006,-0.980346143245697
1761476197890669800,10.776669921875,-0.2834360599517822,-0.6605600118637085,-1.5137221813201904
1761476197900704800,10.786704833984375,-0.3196709454059601,-0.399374395608902,-1.8806720972061157
