time,seconds_elapsed,z,y,x
1761476150696860000,0.11385986328125,0.1284808339625597,0.17030512873530387,0.7104281969860196
1761476150706897000,0.12389697265625,0.15133914698064327,0.2870905564680695,0.8564803434744477
1761476150716932900,0.133932861328125,0.04814648353159427,0.23961656537055967,0.8278256922025233
1761476150726968800,0.14396875,0.11232640249729156,0.04556903425902128,0.674695789347589
1761476150737004800,0.1540048828125,0.3867179286509752,-0.12543868978768585,0.4344493651082739
1761476150747040800,0.164040771484375,0.4402046041667461,-0.04466214854717254,0.04624766417294741
1761476150757078000,0.174078125,-0.2204793187022209,0.7270788875356317,-0.5497254842566326
1761476150767114000,0.184114013671875,0.16310791070759295,0.9907871071115135,-0.2608719367040321
1761476150777150000,0.19414990234375,0.7314975807607174,0.6500637446552515,-0.33207251155413686
1761476150787186000,0.20418603515625,0.21492752979397772,0.30134587631374593,-0.020012568198144436
1761476150797223000,0.214222900390625,0.259396201595664,0.10590805988758802,0.5154051353732124
1761476150807259000,0.2242587890625,1.207677169150114,-0.42298049764335155,0.880009176165238
1761476150817294800,0.234294921875,1.7196031937032936,-1.1987228783220052,1.0828257777310908
1761476150827330800,0.244330810546875,1.6566145303487776,-1.9120327682241796,1.1004847685404122
1761476150837366800,0.25436669921875,1.5843237856417893,-2.1138617469921708,1.0338163937598466
1761476150847403800,0.26440380859375,1.3053916934490204,-1.661151589256525,0.9888638108987361
1761476150857439700,0.274439697265625,1.1640408565193414,-0.8871621897250414,0.8982929478093982
1761476150867475700,0.284475830078125,1.7754378936499355,-0.036030806063115595,0.4224224984344095
1761476150877511700,0.29451171875,2.325008296942711,0.7147229715704917,-0.027650734926387668
1761476150887549000,0.304548828125,1.9795961921483276,1.0987035842120647,-0.12861447027958928
1761476150897585000,0.3145849609375,1.0583148752003908,0.908466843560338,0.12207589882370083
1761476150907620900,0.324620849609375,0.8120242388933897,0.37476591731160874,0.10952467948216944
1761476150917656800,0.33465673828125,0.6805354552865028,-0.12127309454083442,-0.037308004658389834
1761476150927693800,0.34469384765625,0.7098451364010572,-0.3396136476486921,-0.023803923305124042
1761476150937729800,0.354729736328125,0.9304811069697141,-0.3110296504601836,0.007744293983839452
1761476150947765800,0.364765869140625,0.8720207346946001,0.010982289524376392,-0.14484993109181524
1761476150957801700,0.3748017578125,1.2121043379426002,0.4736117837280035,-0.4323335419980809
1761476150967837700,0.384837646484375,1.7677128523558376,1.0674775480821728,-0.7455234757646918
1761476150977874700,0.394874755859375,2.3655407983392474,1.5902186888992786,-0.9549620527535676
1761476150987910700,0.40491064453125,3.1467642407774923,1.2397513465419412,-1.2164337454490364
1761476150997946600,0.414946533203125,3.3455116201430557,1.0965902453199028,-0.83491192413643
1761476151007982800,0.42498291015625,3.693767423930764,1.3394526607438921,-0.1267121437896043
1761476151018019800,0.435019775390625,3.811484871816635,1.4306111875280738,-0.12069679249022155
1761476151028055800,0.445055908203125,3.6368741548418995,0.8525608319431542,0.21352162678511813
1761476151038091800,0.455091796875,3.6473634001523254,0.5862374614328145,0.36242804845981297
1761476151048128000,0.4651279296875,4.047234240365028,1.0543372037410736,0.3593153963319957
1761476151058164000,0.4751640625,4.459861101776362,1.4630974528521299,0.2652739893215708
1761476151068200700,0.48520068359375,4.72165442764163,1.3256997374624013,0.034313444218598305
1761476151078237000,0.49523681640625,4.7789282204806804,0.9399962465509771,-0.010739658141229302
1761476151088273000,0.50527294921875,4.5654830381989475,0.5472413758233189,0.08336257567834109
1761476151098308900,0.515308837890625,3.8641491250336166,-0.14560235689431428,0.4057496325856074
1761476151108345900,0.525345947265625,3.082356942796707,-0.4170262654140591,0.730122931406647
1761476151118381800,0.5353818359375,2.180003029158711,-0.5162935721129178,1.1091817236065864
1761476151128417800,0.545417724609375,1.2812439251422882,-0.9027546033933758,1.3174721534736453
1761476151138453800,0.555453857421875,0.020463526836037634,-1.195155248968303,0.9649961016424
1761476151148491000,0.565490966796875,-1.7215438063770532,-0.9133394180327653,0.08839547354532405
1761476151158527000,0.57552685546875,-4.478747004032135,-0.3765554310768843,-0.5176916388751939
1761476151168563000,0.58556298828125,-6.8886611971050495,-0.17457038496434688,-0.7222079935636371
1761476151178599000,0.595598876953125,-8.61032307690382,-0.5289359038040041,-0.7626376921728253
1761476151188635000,0.605634765625,-9.856485167270899,-1.0637941833943128,-1.020529992011562
1761476151198672000,0.615671875,-10.49190839215517,-1.3157371463745833,-1.4080882439441977
1761476151208707800,0.625707763671875,-10.523105494451523,-1.5978060752883552,-1.8423060287863016
1761476151218743800,0.635743896484375,-10.636895539760589,-1.7556094498470425,-1.900684421866387
1761476151228779800,0.64577978515625,-10.949082835823297,-1.9650278608307241,-1.3869625999376176
1761476151238816800,0.655816650390625,-11.447870561861992,-2.406595570044219,-0.843173483460024
1761476151248852700,0.665852783203125,-12.057360888588427,-2.458348261374235,-0.7433746271677315
1761476151258888700,0.675888671875,-12.061897947496176,-2.431005496418476,-0.6035431087598204
1761476151268925000,0.685925048828125,-12.062489483648537,-2.578179048152268,-0.7376384946685284
1761476151278961000,0.6959609375,-11.985495091295242,-2.7007819299921394,-0.5908326072033494
1761476151288998000,0.705997802734375,-11.67251167641878,-3.005240385368466,-0.6041521075036377
1761476151299033600,0.71603369140625,-11.135345412147045,-3.0236326588883995,-0.9641260408096015
1761476151309069600,0.726069580078125,-10.111440756070614,-2.7471058742716905,-1.3428675837539135
1761476151319105500,0.73610546875,-8.971075958693026,-2.5300962775066496,-1.411637899249792
1761476151329142500,0.746142578125,-7.618314026781916,-2.3973189153939485,-1.237636546345055
1761476151339178500,0.756178466796875,-6.181067054501176,-2.123229294796288,-1.0842055416516958
1761476151349214500,0.76621435546875,-4.593278223097324,-1.5985139312967658,-0.7958090902168303
1761476151359250700,0.776250732421875,-2.9975919164419174,-1.2866915230236946,-0.36904903750214724
1761476151369287700,0.78628759765625,-1.5679074883699415,-1.0263093791306017,-0.012880816622078418
1761476151379323600,0.79632373046875,-0.24536942980885504,-0.8156707787021994,0.579105161867477
1761476151389359600,0.806359619140625,0.19692659367918966,-0.6694032358974218,1.1794640511006116
1761476151399395600,0.8163955078125,0.875109348359704,-0.22167305853143332,1.1467685269400476
1761476151409431800,0.826431884765625,2.0658026494830843,0.501855443046242,1.0657361843075603
1761476151419468500,0.836468505859375,2.766677128443122,0.9636899874798953,1.0629513028293847
1761476151429504500,0.84650439453125,3.5456536687374114,1.33497142367661,0.9028188277360051
1761476151439540700,0.856540771484375,4.758188214790821,1.8030900168158113,0.5722361894134431
1761476151449576700,0.86657666015625,5.883495728290081,2.305906413848698,0.38162995786219833
1761476151459613400,0.876613525390625,7.016026178780198,2.513610129868984,0.5000011934816837
1761476151469649700,0.886649658203125,8.044623376587033,2.512465051487088,0.6872848564814775
1761476151479686000,0.896685791015625,9.061191113904117,2.492606504806876,1.1777153077371418
1761476151489721900,0.906721923828125,9.697785720655322,2.4060972651332615,1.6322016813650726
1761476151499757800,0.9167578125,10.00562592742443,2.367201717288792,1.9490353419288993
1761476151509794800,0.926794921875,10.342238055169581,2.372058217409253,2.147344768268615
1761476151519830800,0.936830810546875,10.494285058158635,2.5198551617383957,2.1170070592805743
1761476151529866800,0.94686669921875,10.671372978901863,2.8511247594118116,2.0335548690900205
1761476151539902700,0.95690283203125,10.883847854846715,2.948995935577154,1.937161072000861
1761476151549939700,0.966939697265625,10.748838495898246,2.5142677169948815,1.4303553130708635
1761476151559975700,0.9769755859375,10.637296521776914,2.753464887909591,0.8556270145807415
1761476151570011600,0.98701171875,10.696668748199938,3.280189545404911,0.44923974167872216
1761476151580047600,0.997047607421875,10.616710829865932,3.4713308336809274,0.24277455447744575
1761476151590083600,1.00708349609375,10.391059661483764,3.3038346248865125,0.2783891444224864
1761476151600120800,1.017120849609375,10.063785855448245,3.2139751980021596,0.4236780514534563
1761476151610156800,1.02715673828125,9.621272974339126,3.2974934391662476,0.5005753401078283
1761476151620192800,1.03719287109375,9.140572693654894,3.3520676176577804,0.46448370723556726
1761476151630228700,1.047228759765625,8.702569983446597,3.3468121813476084,0.3182380474690348
1761476151640265700,1.057265625,7.9445012066245075,3.241833219003677,0.12383724594041705
1761476151650301700,1.0673017578125,7.217081250566244,2.890121721804142,0.06705299018397927
1761476151660337700,1.077337646484375,6.228990250670909,2.466697864307463,-0.18654245271105319
1761476151670373600,1.08737353515625,6.0518298492133615,2.6137989353269337,-0.5490183954332023
1761476151680409600,1.09740966796875,5.134150940671563,2.380817862448096,-0.2614907992547378
1761476151690446600,1.107446533203125,4.179289425683021,1.504207169614732,0.09031244961516931
1761476151700482600,1.117482666015625,3.4002859973818063,0.4573544764101505,0.5359511163283139
1761476151710518500,1.1275185546875,2.287335276630521,-0.7880144177526235,0.9132556122068315
1761476151720554500,1.137554443359375,1.1601584621280432,-2.2581351933702827,1.2702581284865737
1761476151730591700,1.147591796875,0.09685060094594955,-3.8741801051825284,1.4324566692642866
1761476151740627700,1.157627685546875,-1.8573767566680908,-5.115901582753658,1.3108888295605778
1761476151750663700,1.16766357421875,-4.825918519714475,-5.1492719374358655,0.7079751047454774
1761476151760699600,1.17769970703125,-8.240192125916481,-3.854955764752626,-0.6133768127709627
1761476151770735600,1.187735595703125,-11.993043606978654,-2.074776521794498,-2.096367883616686
1761476151780772600,1.197772705078125,-15.034592738568781,-0.9529708789363502,-3.142269851967692
1761476151790808600,1.20780859375,-16.6797564850986,-0.7400590728789568,-3.386706969362497
1761476151800844500,1.217844482421875,-17.3013943457365,-1.378414844083786,-2.9013848740965127
1761476151810880800,1.227880859375,-17.35980561817288,-2.32306096226722,-1.8387911525331437
1761476151820916700,1.237916748046875,-17.14470039372444,-3.1674338115796443,-0.5759053063802421
1761476151830953500,1.247953369140625,-16.936410694509743,-3.931342838862538,0.38881153992936013
1761476151840989700,1.25798974609375,-16.277952630996705,-4.478051715244352,0.9832537889972328
1761476151851025700,1.268025634765625,-15.178286923754214,-4.863379358580708,1.3949768334366381
1761476151861061600,1.2780615234375,-13.924552936828135,-5.012103354626894,1.336842916636914
1761476151871099000,1.288098876953125,-12.687044108515977,-4.708709313611686,0.7753428599670529
1761476151881134800,1.298134765625,-11.446892072218656,-4.157840102680027,-0.03102882392420433
1761476151891170800,1.3081708984375,-10.199563276159763,-3.3895617742717263,-0.7593855585090815
1761476151901206800,1.318206787109375,-8.722685135236382,-2.564095577742159,-1.553084451638907
1761476151911242800,1.32824267578125,-6.982380514287948,-1.7488360101893543,-2.053999691225588
1761476151921279700,1.33827978515625,-5.0605269015342,-1.1557935449168086,-2.1250927505806088
1761476151931315700,1.348315673828125,-2.9856887126803398,-0.9621554713889956,-1.578735171854496
1761476151941351700,1.3583515625,-1.2484826422691344,-0.8989487813696264,-0.7816942017551511
1761476151951387600,1.3683876953125,0.0038426469027996062,-0.7354249833375215,-0.05469714728407561
1761476151961423600,1.378423583984375,0.8216764488577842,-0.2196165643930435,0.33684856684952974
1761476151971460600,1.388460693359375,1.3809849868327377,0.5046653859004379,0.538273166067712
1761476151981496600,1.39849658203125,2.047994021070003,1.111601351968944,0.6663938980136066
1761476151991532500,1.408532470703125,2.9215198996305465,1.5171493610352278,0.6454626806005835
1761476152001568500,1.418568603515625,3.9054876821160316,1.8113135091513395,0.5315453921826556
1761476152011604700,1.428604736328125,4.985902160921692,2.0689058761954304,0.4722689542843029
1761476152021641700,1.438641845703125,5.9595472868353125,2.251795176693797,0.5780294589273631
1761476152031677700,1.448677734375,6.7084232878983014,2.282938795237243,0.6572893119946122
1761476152041713700,1.458713623046875,7.2659846899449825,2.317208436846733,0.7458378754761069
1761476152051749600,1.46874951171875,7.787700287106633,2.3528441061124203,0.9814647866886108
1761476152061785600,1.47878564453125,8.353537350067496,2.3655095264181494,1.128684150325507
1761476152071822600,1.488822509765625,8.857644225302337,2.417311025325954,1.3451573021262884
1761476152081858600,1.498858642578125,9.175480340906978,2.4232030059739946,1.5290793066732584
1761476152091894500,1.50889453125,9.408570719379187,2.45090700545758,1.5457931255869566
1761476152101930500,1.518930419921875,9.719037182998656,2.514684188841283,1.4426022157035767
1761476152111966700,1.528966796875,9.97334395250082,2.589626617100835,1.1478363023020326
1761476152122002700,1.539002685546875,10.200552287197112,2.608213828670978,0.8478722357355057
1761476152132039700,1.549039794921875,10.276011725068091,2.6230221062242984,0.5800617684725672
1761476152142076000,1.559075927734375,10.227758274030684,2.786768607096374,0.36551647946182636
1761476152152111900,1.56911181640625,10.118230562341212,2.946666615846753,0.2685797163360752
1761476152162147800,1.57914794921875,9.718350954300165,3.043205374364555,0.3351588236643001
1761476152172183800,1.589183837890625,9.11728592609167,3.019909254451096,0.44022378379125143
1761476152182220800,1.599220703125,8.574132988625765,3.0598154406428337,0.4067507724521681
1761476152192256800,1.6092568359375,8.147440776982902,3.14752441149503,0.15764171772357075
1761476152202292700,1.619292724609375,7.835532297861576,3.150742496758699,-0.14656027867365629
1761476152212328700,1.62932861328125,7.445863118189573,3.1869206023380157,-0.31576033224388955
1761476152222364700,1.63936474609375,6.918969241607189,3.1461200976550576,-0.38114261273667216
1761476152232401700,1.649401611328125,6.2868900664538145,3.034337300515175,-0.38537203046735374
1761476152242437600,1.659437744140625,5.573564686721563,2.901925264583528,-0.38834384935237465
1761476152252473600,1.6694736328125,4.833198739850521,2.469746730484068,-0.25829200321342793
1761476152262509600,1.679509521484375,3.934757615742087,1.8197151345327496,0.215020852366928
1761476152272545500,1.689545654296875,3.1677766336679456,0.8482359544813632,0.653750762604922
1761476152282581500,1.69958154296875,2.6774481084167956,-0.23019611833542583,0.8114787338398396
1761476152292618800,1.70961865234375,1.7593518512457609,-1.5951356870353222,0.9516979363910854
1761476152302658000,1.719657958984375,0.2400204699963331,-3.392927451312542,1.14543778979294
1761476152312694000,1.729694091796875,-1.9956495013266802,-5.058189983019233,1.5037477354094386
1761476152322730000,1.73972998046875,-4.663617249214649,-6.13892945599556,1.6588580714918673
1761476152332766000,1.749765869140625,-7.146526535871624,-6.303715529048443,1.2403818995304405
1761476152342802200,1.75980224609375,-9.736562902817129,-5.587454680386186,0.4739696572549641
1761476152352839200,1.769839111328125,-12.886790435791015,-4.545946563079953,-0.12137589732818305
1761476152362875100,1.779875244140625,-16.02029187489152,-3.3002669955328106,-0.9764404557205736
1761476152372911000,1.7899111328125,-18.225722190773485,-2.1506623683840034,-1.6432358472071587
1761476152382947300,1.799947265625,-19.057068969774246,-2.0737547775313256,-1.7736060020476578
1761476152392983300,1.8099833984375,-18.992682714581488,-2.9572812411025167,-1.486128199827671
1761476152403020000,1.82002001953125,-17.785657871860266,-3.9284304585471745,-0.8298618011400103
1761476152413056300,1.83005615234375,-16.155591156697273,-4.918391051706672,-0.17018563054148106
1761476152423092200,1.84009228515625,-14.836357984900474,-5.702725904163718,0.2849098879607394
1761476152433128200,1.850128173828125,-13.744129734182357,-5.957471065083146,0.35210707238838074
1761476152443164200,1.8601640625,-12.904364670926332,-5.580002610814571,-0.24796189398746937
1761476152453200100,1.8702001953125,-11.324064149451255,-4.72566366328299,-1.0540266764871775
1761476152463237400,1.8802373046875,-9.174398975411057,-3.762093648920953,-1.7134227515026925
1761476152473273300,1.8902734375,-6.75516341176331,-2.810109150673449,-2.009960350751877
1761476152483309300,1.900309326171875,-4.9683641661435365,-2.0513488844558596,-1.5622652446992695
1761476152493345300,1.91034521484375,-3.345177273622155,-1.5061404757648706,-0.9021861558556556
1761476152503381200,1.92038134765625,-1.8759709825009105,-0.8783467228457331,-0.4103771097231656
1761476152513417200,1.930417236328125,-0.4954927761465311,-0.4132522998332977,0.026620807356759903
1761476152523454200,1.9404541015625,0.978361633041501,-0.09647650693655013,0.32565533798821267
1761476152533490200,1.950490234375,2.442676644989848,0.3760550803393125,0.32685748031958933
1761476152543526100,1.960526123046875,3.872300282785296,0.7916033821552991,0.164911489530839
1761476152553562000,1.97056201171875,5.208925903409719,1.145187979750335,-0.02846011508051306
1761476152563598000,1.98059814453125,6.3948880843579765,1.5507447566449641,-0.1465988205857575
1761476152573634000,1.990634033203125,7.196369301927089,2.0046900091335176,-0.026113880747929214
1761476152583671000,2.000671142578125,7.406369312191009,2.2374314280375835,0.24059315531775355
1761476152593707000,2.01070703125,7.531793681192398,2.4125629540160296,0.3614031623914838
1761476152603743000,2.020742919921875,7.784030074161291,2.663974586598575,0.5476437460791319
1761476152613779000,2.030779052734375,7.990556270834803,2.7221897519409657,0.8542508308567106
1761476152623815200,2.040815185546875,8.141257704433798,2.6147648577496407,1.1441183777574448
1761476152633851100,2.05085107421875,8.37928553930819,2.629802560144663,1.2248682501867412
1761476152643888000,2.06088818359375,8.666503229287267,2.647773685643077,1.1900396595202385
1761476152653924400,2.07092431640625,9.062963968795538,2.644518775500357,1.1529600019913167
1761476152663960300,2.080960205078125,9.376220939916372,2.6308348258018492,1.0226099400907753
1761476152673996300,2.090996337890625,9.507729012745619,2.6815152117252348,0.8441007543727755
1761476152684032300,2.1010322265625,9.652945292931795,2.6985399962842465,0.6991442211013287
1761476152694068200,2.111068115234375,9.75957611413598,2.683321676625311,0.534219324099645
1761476152704105200,2.121105224609375,9.791173613926768,2.714943434074521,0.3981731329167261
1761476152714141200,2.13114111328125,9.87112276443243,2.752082785901427,0.2923098620189354
1761476152724177200,2.14117724609375,9.715001643872261,2.8353847539663315,0.18331448537418618
1761476152734213000,2.151213134765625,9.41195860825181,2.9292376344010234,0.04283678258380387
1761476152744249000,2.1612490234375,9.011624826702475,3.043352089358866,-0.02779149967052508
1761476152754285000,2.17128515625,8.538281338521838,3.0657994834885,-0.05010408387277275
1761476152764322300,2.181322265625,8.023698661980033,3.119146750533581,-0.0792007798237726
1761476152774358300,2.191358154296875,7.272605569389462,3.1746269379541276,-0.09564591959761455
1761476152784394200,2.201394287109375,6.642650546783209,3.0989436281993985,-0.2012014945194125
1761476152794430200,2.21143017578125,6.021866672626137,3.034490152989328,-0.30544041561838237
1761476152804466200,2.221466064453125,5.60083672452867,2.871851613359153,-0.37145766954645515
1761476152814502100,2.231502197265625,5.248944610065221,2.5883546974688767,-0.19132738543264566
1761476152824538000,2.2415380859375,4.733880872008204,1.9073814352869987,0.21559112653555348
1761476152834575000,2.2515751953125,4.124847056877613,0.8194231169730425,0.47470820066258307
1761476152844611000,2.261611083984375,2.9587048441648482,-0.5822928154602647,1.0946114925928414
1761476152854647000,2.27164697265625,0.9135855017483234,-2.5066750699087974,2.036741390171647
1761476152864683300,2.281683349609375,-1.757314792460203,-3.9116172709122297,2.5197303663149473
1761476152874719200,2.29171923828125,-4.70442038424611,-4.157475945542752,2.3671692763239145
1761476152884755200,2.301755126953125,-7.41927380194962,-4.197639029105007,1.4599695300899445
1761476152894791200,2.311791259765625,-9.800787245446443,-4.340170600251853,0.02418801355215255
1761476152904828200,2.321828125,-12.286757673239707,-3.5303786504551766,-1.5452181021779774
1761476152914864000,2.331864013671875,-14.664768077051638,-2.108096607594192,-2.8186402476534247
1761476152924900000,2.341900146484375,-16.64519604384899,-1.738336828006804,-3.0797634191721674
1761476152934936300,2.351936279296875,-17.94120966809988,-2.2361630155369636,-2.2666623448275027
1761476152944972300,2.36197216796875,-17.78633942438364,-3.104365653248131,-0.9809151169165968
1761476152955008300,2.37200830078125,-17.127930460709333,-4.255414633986353,0.09984637609529308
1761476152965044200,2.382044189453125,-16.32947005226612,-5.218396327066421,0.5736028381241485
1761476152975081200,2.392081298828125,-15.689232705098389,-5.95028203036189,0.6818062058746814
1761476152985117200,2.4021171875,-15.34926074553132,-6.389056309464573,0.3939467473933473
1761476152995153200,2.412153076171875,-14.558762694269419,-6.06951163637638,-0.33092809075936674
1761476153005189000,2.422189208984375,-13.24534785336256,-5.185978743064403,-0.9491932600937784
1761476153015225000,2.43222509765625,-11.413351037144661,-4.497112681806088,-1.1920721882611511
1761476153025261000,2.442260986328125,-9.157715551635622,-3.6149420167580244,-1.2224402193222195
1761476153035297300,2.45229736328125,-6.71650196493566,-2.6367396659314633,-0.9632464084308594
1761476153045334000,2.462333984375,-4.390239284017682,-1.9381381003394722,-0.4734629133092239
1761476153055370000,2.472369873046875,-2.200816684606671,-1.410198221835494,0.02510634767320007
1761476153065406200,2.48240625,-0.05094225172996521,-0.8979682458996773,0.35770755927655845
1761476153075442200,2.492442138671875,1.9578356112390756,-0.44422494572401044,0.48854726785756647
1761476153085478100,2.50247802734375,3.603144903719425,-0.03530833700746298,0.47649881040640174
1761476153095514000,2.51251416015625,4.80802221301794,0.44678018316477536,0.361209868309088
1761476153105550000,2.522550048828125,5.574332748484611,0.9767851775050163,0.2041372922429815
1761476153115587300,2.53258740234375,5.973769873455167,1.3038447562679647,0.1337466090036556
1761476153125623300,2.542623291015625,6.033615562608838,1.5612483227416871,0.29966099196672435
1761476153135659300,2.5526591796875,5.961418341404199,1.8026359894379973,0.44511071558259424
1761476153145695200,2.5626953125,6.228303437450528,2.093304988914728,0.440623231437616
1761476153155731200,2.572731201171875,6.520496577754616,2.3162433912068603,0.5159354428576305
1761476153165767200,2.58276708984375,7.013956386768817,2.3452660720735787,0.7095261335797608
1761476153175803100,2.59280322265625,7.611637617757916,2.2273066321253774,0.9554684679057448
1761476153185840000,2.602840087890625,8.25229991233945,2.232783309970796,1.1760329076081513
1761476153195876000,2.6128759765625,9.056517276874184,2.3016546016231176,1.3895552467793226
1761476153205912000,2.622912109375,9.781295193991065,2.3071157896384595,1.4689225057438016
1761476153215948000,2.632947998046875,10.286911889266968,2.3604268163263797,1.4298277820654213
1761476153225984000,2.64298388671875,10.73133791052103,2.4528172229930756,1.3833721742302179
1761476153236020000,2.65302001953125,10.919170512640475,2.513952075174451,1.2765809017673133
1761476153246056200,2.66305615234375,10.812095454800128,2.5199746964648364,1.1402730274409054
1761476153256093200,2.67309326171875,10.577307040238379,2.5673735764995214,0.9127361914426088
1761476153266129200,2.683129150390625,10.162495236003398,2.7025623836681247,0.6458713344667106
1761476153276165000,2.6931650390625,9.550347672766447,2.827835069239139,0.49742410953529176
1761476153286201300,2.703201416015625,8.876445371884108,2.820439113768935,0.3621197131630033
1761476153296237300,2.7132373046875,8.346694352304935,2.836222666095197,0.250021438599471
1761476153306272500,2.7232724609375,7.8262892532199615,2.9141642761707303,0.13109547344036399
1761476153316308500,2.73330859375,7.173836567601561,2.8738109307333826,0.02286647805823013
1761476153326345500,2.743345458984375,6.61922290944457,2.8499948785990474,-0.07754848257210105
1761476153336381400,2.75338134765625,6.14444851167798,2.8924846515432,-0.18611224460024386
1761476153346417400,2.76341748046875,5.496240624022484,2.7700048115611073,-0.40406069311797616
1761476153356453400,2.773453369140625,4.839646016293764,2.4012393037080764,-0.48186936099622396
1761476153366489300,2.7834892578125,3.898188757279515,1.812593612089753,-0.3290058539925143
1761476153376525300,2.793525390625,2.6345044542253016,1.1873919214904307,-0.1555796706272289
1761476153386561300,2.803561279296875,0.9036223261386156,0.3363061305359006,0.3220899736568332
1761476153396598500,2.8135986328125,-1.1302537377297877,-1.1543524061977863,1.2969922600246966
1761476153406634500,2.823634521484375,-3.0487358282238244,-2.9914497604250907,1.9718610678516326
1761476153416670500,2.83367041015625,-5.106304317846894,-4.223096418705582,2.134316798260808
1761476153426706400,2.84370654296875,-6.9561337278753514,-4.529404885862768,1.573958751232922
1761476153436742700,2.85374267578125,-9.022294689276814,-3.884708805720508,0.66270410358496
1761476153446778600,2.863778564453125,-11.147124697268008,-2.9236081040814517,-0.33564145608209073
1761476153456814600,2.873814697265625,-13.421099557065963,-2.1179165753409266,-1.220267478393018
1761476153466851600,2.8838515625,-15.012909314548969,-1.3872183282643555,-2.163882938354462
1761476153476887600,2.893887451171875,-15.318567501103876,-1.092225620369613,-2.7785055134028194
1761476153486923500,2.903923583984375,-15.212883605360984,-1.5521519930943846,-2.419197569724917
1761476153496959500,2.91395947265625,-14.940257919836043,-2.6609239668563007,-1.1651320127569138
1761476153506995500,2.923995361328125,-13.983857358711957,-3.6546371905475854,0.35894097352903337
1761476153517031400,2.934031494140625,-13.036461941820383,-4.501476137712598,1.5036527506023645
1761476153527067400,2.9440673828125,-11.957047579967975,-5.130753699448705,1.9113631983995436
1761476153537104400,2.9541044921875,-11.069176365190744,-5.278896680736541,1.7384795974783598
1761476153547140400,2.964140380859375,-10.136582211589813,-5.186708226382732,1.066718619473651
1761476153557176300,2.97417626953125,-9.229936738237738,-4.48628061440736,0.02004472375194309
1761476153567212300,2.98421240234375,-8.099051132345199,-3.4317104786932466,-1.0874336368527262
1761476153577248500,2.99424853515625,-6.699536801609397,-2.583656310519576,-1.8129136378243564
1761476153587284500,3.004284423828125,-5.282189292541146,-1.8346558062940834,-2.0392142100259663
1761476153597320400,3.014320556640625,-4.262532941558957,-1.2231105928644537,-1.570196768350899
1761476153607357400,3.024357421875,-3.2701205713331696,-0.7936705438181757,-0.8374049830611795
1761476153617393400,3.034393310546875,-1.963306736126542,-0.26542905201911926,-0.45779231983814384
1761476153627429400,3.044429443359375,-0.5022095171809197,0.3679945234805345,-0.2805042003476992
1761476153637465600,3.054465576171875,0.943135421359539,0.7803256168156861,-0.034982064195163545
1761476153647501600,3.06450146484375,2.2435008110791443,1.0601628411546349,0.15985807859878987
1761476153657537500,3.07453759765625,3.506537463879585,1.3316770583063364,0.2857523666668683
1761476153667573500,3.084573486328125,4.627651032820344,1.4923650483906268,0.30483620264753697
1761476153677610500,3.094610595703125,5.6999353966623545,1.6099071397095919,0.22456202143859116
1761476153687646500,3.104646484375,6.58252019546926,1.7813874497041104,0.04580134517755359
1761476153697682400,3.114682373046875,7.182744096678495,1.903292704668641,-0.03218783036675304
1761476153707718400,3.124718505859375,7.602751131469011,1.9558657724708317,0.06363105291128159
1761476153717754400,3.13475439453125,7.909097300288081,2.004355954873562,0.14631233179457484
1761476153727790300,3.144790283203125,8.1218574229151,2.1181351865276694,0.3114359297061339
1761476153737826300,3.154826416015625,8.265988245952128,2.257278284280002,0.4461518586659804
1761476153747863600,3.164863525390625,8.415159985765815,2.3826550147473813,0.5787080888412892
1761476153757899500,3.1748994140625,8.594681271135807,2.505592243108153,0.692281861051172
1761476153767935500,3.184935546875,8.896251896116137,2.5626009552702307,0.7420957663383334
1761476153777971500,3.194971435546875,9.198661894530057,2.621934018726647,0.609441263420321
1761476153788007400,3.20500732421875,9.432831884932517,2.7245924291685224,0.3774295470302924
1761476153798043400,3.21504345703125,9.65537573494911,2.767795611079037,0.2711738062161952
1761476153808079400,3.225079345703125,9.761368842771649,2.757576999403536,0.2081282067763619
1761476153818116400,3.235116455078125,9.676412093237042,2.786646734282374,0.1720483556734398
1761476153828152300,3.24515234375,9.535463991889356,2.8194501027315853,0.25438361586434766
1761476153838188300,3.255188232421875,9.261772722959519,2.860492014954984,0.34377727013416587
1761476153848224500,3.265224609375,8.745071739089488,2.8281980573326346,0.32133590388651934
1761476153858260500,3.275260498046875,8.188087844669818,2.858710684496164,0.27475230402378364
1761476153868296400,3.28529638671875,7.683117630603909,2.952858456224203,0.16381733761858194
1761476153878332400,3.29533251953125,7.133496958428621,3.0180452141448852,-0.00877763735326007
1761476153888368400,3.305368408203125,6.490660242417454,2.9897490939870477,-0.15261117621045558
1761476153898405600,3.315405517578125,5.992466975140571,2.718826120726764,-0.08136572103900834
1761476153908441600,3.325441650390625,5.3755304240614175,2.1957520946934816,0.25508999230172485
1761476153918477600,3.3354775390625,4.247127867156267,1.3463885974869132,0.8018404793355614
1761476153928513500,3.345513427734375,2.584534846919775,0.2101119462057948,1.4305663254730403
1761476153938549500,3.355549560546875,0.8897919537067412,-1.1588748520582914,2.103359788330644
1761476153948585500,3.36558544921875,-0.957162193146348,-2.790809991441667,2.8952994167029855
1761476153958622500,3.37562255859375,-3.020272534805536,-4.23360144610703,3.379832699678838
1761476153968658400,3.385658447265625,-5.663900791206956,-4.766942306871712,2.8025752480372783
1761476153978694400,3.3956943359375,-8.224562595108152,-4.3072725392565125,1.2627940762162209
1761476153988730400,3.40573046875,-10.230392129665612,-3.6629900083512066,-0.26634843188636004
1761476153998766300,3.415766357421875,-12.62208034569621,-2.8743177112117406,-1.95045105394572
1761476154008802300,3.42580224609375,-14.372441665756702,-1.818953502510488,-3.3781156666278838
1761476154018838500,3.435838623046875,-15.275822584354877,-1.6113582153007386,-3.723191086813807
1761476154028875300,3.445875244140625,-16.375709240871668,-2.248535298115015,-2.9578914819553495
1761476154038911200,3.4559111328125,-17.121176894795894,-3.211616067655384,-1.7764089306391775
1761476154048947500,3.465947509765625,-16.99934265924096,-3.9458722994744777,-0.7620920409888029
1761476154058983700,3.475983642578125,-16.2648266074419,-4.392047502483427,-0.08470388901839032
1761476154069019600,3.48601953125,-15.093895991408823,-4.719965159380435,0.12172166029224171
1761476154079055600,3.4960556640625,-13.222327043259144,-4.879207919092476,-0.10937683197669684
1761476154089091600,3.506091552734375,-11.029228970205784,-4.719103281854093,-0.547931440446712
1761476154099128600,3.516128662109375,-8.76638749884069,-4.218943975201249,-0.9983098307665437
1761476154109164500,3.52616455078125,-6.534836653274297,-3.578790214663744,-1.5337847078852354
1761476154119200500,3.536200439453125,-4.5136622500687835,-2.9916067045524715,-1.8350794385336338
1761476154129236500,3.546236572265625,-2.6846815668016673,-2.3652578897446395,-1.8214558407202361
1761476154139272400,3.5562724609375,-1.1236369499385357,-1.7917960309937595,-1.7019434722416102
1761476154149308400,3.566308349609375,0.2066372558325529,-1.3470727803587912,-1.4699046486489473
1761476154159344400,3.576344482421875,1.3371335701465605,-1.008263434830308,-1.1995907471977174
1761476154169381400,3.58638134765625,2.2955583305746314,-0.7001186921566724,-1.00725703426674
1761476154179417300,3.596417236328125,2.9744466031759975,-0.2775938293263316,-0.7895342477310449
1761476154189453300,3.606453369140625,3.075909081831574,0.17208324432373046,-0.38520880272965874
1761476154199489300,3.6164892578125,3.0758605665147303,0.5014265501096844,-0.14173030123393981
1761476154209525200,3.626525146484375,3.2860265809953213,0.9667956984102726,-0.10635233305636793
1761476154219561500,3.6365615234375,3.7955829538077115,1.5383230819672344,-0.14388700434379278
1761476154229597700,3.64659765625,4.503917101123929,2.002835613438487,-0.11709021936561911
1761476154239634400,3.656634521484375,5.181198523050546,2.237595094166696,0.058802171450108284
1761476154249670400,3.66667041015625,5.774307623818516,2.2772496436849234,0.3329625191964209
1761476154259706600,3.67670654296875,6.452600268614292,2.3218624001324177,0.5282498943012207
1761476154269742600,3.68674267578125,7.078523843747377,2.4763895294994116,0.5667396378237753
1761476154279778600,3.696778564453125,7.615111431348323,2.653821441374719,0.6069054978650062
1761476154289814500,3.706814453125,8.097548326566814,2.705484116333723,0.7871144001729786
1761476154299850500,3.7168505859375,8.52035288312137,2.6110151498273013,0.9785587630487977
1761476154309888000,3.726887939453125,8.888057483744621,2.5760461277768014,0.9951599884334951
1761476154319924200,3.73692431640625,9.149193222483992,2.6604718391746283,0.789963359863311
1761476154329960200,3.746960205078125,9.283765943580866,2.7953742306172846,0.6075997637394815
1761476154339996200,3.75699609375,9.32877822073996,2.8480928443700075,0.47741720389295367
1761476154350032100,3.7670322265625,9.32090880253911,2.8869629655122755,0.43319256998021155
1761476154360068000,3.777068115234375,9.258513428902626,3.0088728966519236,0.4041204604811966
1761476154370104000,3.78710400390625,9.09867358008027,3.1764486004233357,0.3196080206479877
1761476154380141300,3.797141357421875,8.644536312150954,3.3522453123122453,0.24042240186072886
1761476154390177300,3.80717724609375,8.331339546784758,3.4949583775058386,0.20856073470842093
1761476154400213200,3.817213134765625,8.135947323065995,3.636237610504031,0.20408128773942588
1761476154410249200,3.827249267578125,7.904544459289312,3.6886952352330087,0.21202879441147668
1761476154420285200,3.83728515625,7.69781309543252,3.641388417395949,0.23737112453132866
1761476154430321200,3.847321044921875,7.598654217544198,3.587007423388958,0.2906609988333657
1761476154440357000,3.857357177734375,7.6845099617451424,3.3996921231418846,0.3414814873471856
1761476154450394000,3.86739404296875,7.417807821050286,3.073676792734861,0.5461773633209989
1761476154460430000,3.87743017578125,6.727347768598794,2.5919454154372215,0.9054727763108908
1761476154470466000,3.887466064453125,6.118690385565161,1.8161267546519635,1.465634716244787
1761476154480502000,3.897501953125,5.421865474256872,0.6348109382048249,2.1878604646608233
1761476154490538200,3.907538330078125,4.3746348876506085,-0.7924974083855748,2.960662992495298
1761476154500574200,3.91757421875,3.121467886957526,-2.304037989628315,3.117299369101226
1761476154510610200,3.927610107421875,0.7335445764183998,-3.076752546918392,2.5669822390943766
1761476154520647200,3.937647216796875,-2.2952391816228626,-2.75126591656059,1.792802285426855
1761476154530683400,3.947683349609375,-5.568512664029002,-2.425570904149115,0.5821131480444223
1761476154540719400,3.95771923828125,-8.855857341885566,-2.2294717012047767,-0.9142129859969019
1761476154550755300,3.96775537109375,-11.71460660482645,-1.4582909293532371,-2.286969804318994
1761476154560791300,3.977791259765625,-14.196901558977364,-0.5495853086009621,-3.2570661517098545
1761476154570827300,3.9878271484375,-15.712314305478333,-0.5796437622562051,-2.996520195557177
1761476154580864300,3.9978642578125,-17.15935552654266,-1.287415599514544,-1.8456997628778218
1761476154590900200,4.007900146484375,-18.59567427806258,-2.1477143322333694,-0.44090168305281546
1761476154600936200,4.017936279296875,-18.953045116198062,-3.1220988783374426,0.5125383112326264
1761476154610967000,4.027967041015625,-18.737506176507473,-3.9284041550621387,1.0538248703047632
1761476154621004000,4.038004150390625,-17.879970478761194,-4.559117594820261,0.8225939290288835
1761476154631040000,4.0480400390625,-16.467135478681325,-4.871350483590364,-0.19440998948207125
1761476154641076000,4.058075927734375,-14.953848053771257,-4.614588137629628,-1.252320759127289
1761476154651112200,4.0681123046875,-13.27054074680805,-4.1092803621724245,-2.0191528342500327
1761476154661148200,4.078148193359375,-11.861117016476392,-3.353229939435422,-2.4593562693729996
1761476154671184100,4.08818408203125,-10.351086547535658,-2.6814351322263477,-2.4835931772679087
1761476154681220000,4.09822021484375,-8.801178241714835,-2.4627117172807456,-2.227695339182019
1761476154691257300,4.10825732421875,-7.3402967113465065,-2.1591329673483965,-1.6354947315610944
1761476154701293300,4.118293212890625,-5.870476087719202,-2.0006915871471165,-0.8551869426630437
1761476154711329300,4.128329345703125,-4.480464913865924,-2.0714868325993416,-0.28112476166514677
1761476154721365200,4.138365234375,-3.1649481322437523,-2.038084621474147,-0.019687336565461008
1761476154731401200,4.148401123046875,-1.909391021543741,-1.758274431272596,0.22617844365928322
1761476154741437200,4.158437255859375,-0.4870505264937877,-1.3798309944920242,0.26011525485152376
1761476154751474200,4.16847412109375,0.9549012624770402,-0.8890848283506929,0.10822342415787278
1761476154761510100,4.17851025390625,2.398270517030358,-0.3334824514172971,0.06445141111714765
1761476154771546000,4.188546142578125,3.787791277018189,0.18213745921775698,0.14121482599247245
1761476154781582000,4.19858203125,5.050986335250735,0.5759612743511796,0.22787786798831075
1761476154791618000,4.2086181640625,6.1909974968850605,0.9489972991302609,0.28728761341013015
1761476154801654000,4.218654052734375,7.2119953256040805,1.3325211079150439,0.45668399327006187
1761476154811690000,4.22868994140625,8.052827725830674,1.650103248758614,0.5962161634052172
1761476154821727200,4.238727294921875,8.653483004194497,1.893216131812334,0.7441253724697977
1761476154831763200,4.24876318359375,9.258435102969408,2.023766757786274,0.9671000881843268
1761476154841799200,4.258799072265625,9.804732768201827,2.175100351808965,1.1449863196983934
1761476154851835100,4.268835205078125,10.019916318583489,2.314244326344132,1.3075246138244867
1761476154861871400,4.278871337890625,10.1022146625638,2.3755258935198187,1.4227227723658085
1761476154871907300,4.2889072265625,10.292785165214537,2.5125614975988864,1.2672365887083112
1761476154881944000,4.298944091796875,10.497227541351318,2.7150951175048945,1.1335697304099797
1761476154891980300,4.308980224609375,10.480224968624114,2.8362337720111013,0.9795287040594964
1761476154902016300,4.319016357421875,10.50604446953535,2.9119857630878685,0.8586477506414055
1761476154912052200,4.32905224609375,10.693804590940475,3.0490690057009457,0.7238651861861348
1761476154922088200,4.339088134765625,10.667335101687907,3.221318546502292,0.614615560785681
1761476154932124200,4.349124267578125,10.385027395582199,3.2819749675169585,0.5465619421917944
1761476154942160100,4.35916015625,10.040143114054203,3.264709944461286,0.5304027980187908
1761476154952197000,4.369197021484375,9.817213479590416,3.228064513631165,0.5861266214694828
1761476154962233000,4.379233154296875,9.609877135577797,3.22239435904026,0.5750522332148627
1761476154972269000,4.38926904296875,9.289442235651611,3.1881276400402188,0.5040712193995713
1761476154982305300,4.39930517578125,8.895208524543046,3.0841523017808794,0.35795919595006853
1761476154992341200,4.40934130859375,8.368271393340825,2.942766978059709,0.14201825132984666
1761476155002377200,4.419377197265625,7.81467363422811,2.665973359200358,0.11028593704509548
1761476155012413200,4.4294130859375,7.023347315448522,2.171541782544553,0.22082380302464588
1761476155022450200,4.4394501953125,5.848302249833941,1.5659867494404316,0.3291571355640888
1761476155032486100,4.449486083984375,4.564439666625857,0.620355127350986,0.8845419242240488
1761476155042522000,4.459522216796875,3.0982284656673666,-0.9093798667520284,1.7631079889088868
1761476155052558000,4.46955810546875,1.158729890629649,-3.05639978698045,2.634018424274027
1761476155062594000,4.479593994140625,-1.0104290884315967,-4.872977208009362,3.2859678365454075
1761476155072630300,4.48963037109375,-3.777055363470316,-5.554090755444765,2.9508401021391153
1761476155082667000,4.4996669921875,-6.7800114372938864,-4.810591771245003,1.42190882563442
1761476155092703200,4.509703125,-9.331991337567567,-3.535141334812343,-0.41486126939989626
1761476155102739200,4.5197392578125,-12.029984221363067,-2.3034672040030357,-2.51718886513859
1761476155112775200,4.529775146484375,-14.188251804053783,-0.8123173766210675,-4.320791653782129
1761476155122811100,4.53981103515625,-15.201955384111404,0.02943973723500967,-4.935976977279782
1761476155132847000,4.54984716796875,-16.332928083765506,-0.4133621899485588,-3.9137347014576194
1761476155142884400,4.55988427734375,-17.499329824197293,-1.6898282331645487,-1.8968289154820144
1761476155152920300,4.56992041015625,-17.8299763215363,-2.552578158427775,-0.28814304292937737
1761476155162956300,4.579956298828125,-17.88907966789007,-2.8119284750550984,0.31069921292942015
1761476155172992300,4.5899921875,-17.37182221918106,-3.2977430300131436,0.6067282416019588
1761476155183028200,4.6000283203125,-16.48202792738676,-3.75800521056354,0.6610548020079732
1761476155193069300,4.6100693359375,-15.119710816144943,-3.726832073664665,0.11814235876705496
1761476155203105300,4.620105224609375,-13.470806129521131,-3.404930023795366,-0.8153747183650731
1761476155213141200,4.630141357421875,-11.598013192534445,-3.3063346250087022,-1.6583493913173675
1761476155223177200,4.64017724609375,-9.58350292339325,-3.076277330622077,-1.9635688941940663
1761476155233213200,4.650213134765625,-7.3141750126183025,-2.6474215112045405,-2.0423948858886956
1761476155243250200,4.660250244140625,-5.060986920261382,-2.304933915554732,-2.006841634209454
1761476155253286100,4.6702861328125,-3.0366432393699885,-1.9467738267377017,-1.6552403193861245
1761476155263322000,4.680322021484375,-1.2137743169814348,-1.4408165013305843,-1.1923387302428483
1761476155273358000,4.690358154296875,0.44486499719321726,-0.9414777172803879,-0.7190428075309843
1761476155283394000,4.70039404296875,1.6939081959545612,-0.5550656397081911,-0.27407632272467014
1761476155293430000,4.710429931640625,2.680114112755656,-0.2614751998268068,0.040526144720986486
1761476155303463400,4.72046337890625,3.504596266683936,0.06940569078996778,0.0883374049488455
1761476155313499400,4.73049951171875,4.155346240037679,0.4078635925322771,-0.09848192847482859
1761476155323535400,4.740535400390625,4.692639345559478,0.7393474174782634,-0.1306856505304575
1761476155333571300,4.7505712890625,5.029072609606385,0.8925326307170093,-0.010993103179335594
1761476155343607600,4.760607666015625,5.368582212358713,1.0273984895415604,0.09308379575833678
1761476155353643800,4.770643798828125,5.7825119730621575,1.2911265828616916,0.23058387554399667
1761476155363680500,4.780680419921875,6.231261702734232,1.5222310482136905,0.47665378177240486
1761476155373716500,4.790716552734375,6.818378285089135,1.5705452895276248,0.7676572008352727
1761476155383752700,4.800752685546875,7.359847799512743,1.5668161860018968,1.0995497527126221
1761476155393788700,4.81078857421875,8.032586901834607,1.7030699920535086,1.333903648314625
1761476155403824600,4.82082470703125,8.793162108519672,1.8500085659876464,1.4759510892063379
1761476155413860600,4.830860595703125,9.420752155560255,1.9203950845085083,1.524479850053787
1761476155423896600,4.840896484375,9.940422510629892,2.0185981229767203,1.476095612243563
1761476155433933600,4.85093359375,10.33761331797838,2.1932366047412155,1.3414715993508697
1761476155443969500,4.860969482421875,10.748622222799062,2.319168338742852,1.0513881446771323
1761476155454005500,4.871005615234375,11.024791280019283,2.4205144975423813,0.6694729401327669
1761476155464041500,4.88104150390625,10.998915665006637,2.5718513064354656,0.4164461639711633
1761476155474077400,4.891077392578125,10.678172137522697,2.7395731406793,0.2829879799874499
1761476155484113400,4.901113525390625,10.138065728145838,2.770225468574464,0.26415804570261386
1761476155494150700,4.911150634765625,9.314411841735243,2.690397898621857,0.36826603389829393
1761476155504186600,4.9211865234375,8.44959417028725,2.689463832642138,0.3776663149282336
1761476155514222600,4.93122265625,7.656333668574691,2.7910172044515607,0.33766368262469765
1761476155524258600,4.941258544921875,7.065206097012758,2.8118501491218804,0.3150037417229265
1761476155534294500,4.95129443359375,6.542010490426421,2.612580791708827,0.2883115496303886
1761476155544330500,4.96133056640625,5.978549508947133,2.3309435322105885,0.045173586934339253
1761476155554367500,4.971367431640625,5.6203030570209025,2.0968159196451306,-0.1463647926341742
1761476155564403500,4.981403564453125,4.841078094923496,1.6704940026193855,0.09687894112444483
1761476155574439400,4.991439453125,3.566204873856902,0.8615984171405434,0.5537369849203154
1761476155584475400,5.001475341796875,2.2815987788051366,-0.1995157333895564,0.9994483332771807
1761476155594511600,5.01151171875,0.7774754880815744,-1.3267340489462016,1.298808515666425
1761476155604547600,5.021547607421875,-0.7789666034221648,-2.562889416822791,1.8736973384805022
1761476155614584300,5.031584228515625,-2.4516011252015826,-3.8499984346061944,2.334382859009504
1761476155624620500,5.04162060546875,-4.539308732500672,-4.427710936538875,2.075937966789305
1761476155634656500,5.051656494140625,-6.513900248229503,-3.9220185456782577,0.9117837130233645
1761476155644692700,5.061692626953125,-8.338847730457783,-2.9029560689359903,-0.10744157133148982
1761476155654728700,5.071728759765625,-10.457150382506846,-2.3792098427295683,-0.6126527728127316
1761476155664764700,5.0817646484375,-12.609275809180735,-2.1996415033474563,-0.6686990331508219
1761476155674800600,5.091800537109375,-14.00418118481636,-2.15947169778347,-0.4093483146646991
1761476155684837600,5.101837646484375,-14.850840099239349,-2.3170877330765127,-0.3055071059127338
1761476155694873600,5.11187353515625,-14.904485180187224,-2.6506401809901,-0.23042583543807266
1761476155704909600,5.12190966796875,-14.344144961076974,-3.1413238032892346,-0.1696288003763184
1761476155714945500,5.131945556640625,-13.692531648892164,-3.508518408563733,-0.06397671541064046
1761476155724981500,5.1419814453125,-12.926771733045577,-3.5670746424287554,-0.016915515498258173
1761476155735018500,5.1520185546875,-12.241342660498619,-3.4825364105671643,-0.06315567221818491
1761476155745054500,5.162054443359375,-11.532397103285788,-3.4300188723444935,-0.0469529354986269
1761476155755090400,5.17209033203125,-10.587442649805546,-3.366264777575433,-0.17993616804750634
1761476155765126400,5.18212646484375,-9.044239979103207,-3.098612496548891,-0.46184148563109334
1761476155775162400,5.192162353515625,-7.2122729735016815,-2.6504911279082295,-0.6815389332406222
1761476155785198300,5.2021982421875,-5.280642647621035,-2.2726076630979777,-0.7066638029512018
1761476155795234600,5.212234619140625,-3.3098926097512242,-1.8345301340878009,-0.6418457322124391
1761476155805271600,5.222271484375,-1.3411001356899737,-1.327207219415903,-0.6033703460087999
1761476155815307500,5.2323076171875,0.3275958775967359,-1.0409671422973275,-0.5615155099673196
1761476155825343500,5.242343505859375,1.6155799246490001,-0.7529547948092222,-0.4245857408829033
1761476155835379700,5.252379638671875,2.609729493930936,-0.41060646149963137,-0.3460588417327031
1761476155845415700,5.262415771484375,3.555639640700817,-0.08945961391180753,-0.30533819735292345
1761476155855451600,5.27245166015625,4.4796109273850915,0.2422441373951733,-0.24353596730399876
1761476155865488600,5.282488525390625,5.231261069336533,0.5408510902643203,-0.17631642491407692
1761476155875524600,5.292524658203125,5.718353681406378,0.7268009473770857,-0.013914233056735247
1761476155885560600,5.302560546875,6.040328796511888,1.0153729745745659,0.1704808506283909
1761476155895596500,5.312596435546875,6.160601189577579,1.326384504856169,0.2572373795939609
1761476155905632500,5.322632568359375,6.200483118110895,1.5926842022299765,0.29726101815290745
1761476155915668500,5.33266845703125,6.274761237242817,1.6937807701826095,0.4863133713256567
1761476155925705500,5.34270556640625,6.381000428780913,1.7054866978064178,0.7494139803972095
1761476155935741700,5.35274169921875,6.694559013196826,1.7578920078262685,0.9607294571738689
1761476155945777700,5.362777587890625,7.163723169866204,1.8468644227430224,1.1316558596126736
1761476155955813600,5.372813720703125,7.643871661886572,1.961143128351867,1.1812160093344748
1761476155965849600,5.382849609375,8.155372154504061,2.087351925729215,1.1117910293221474
1761476155975885600,5.392885498046875,8.642845290324091,2.24004950158149,0.9234139450624584
1761476155985922600,5.402922607421875,8.996886691775918,2.410423019377887,0.7532149801153689
1761476155995958500,5.41295849609375,9.130762078258394,2.4783982389733192,0.7523987683616579
1761476156005994500,5.422994384765625,9.063302406969665,2.4475316838055847,0.7425248784705996
1761476156016030500,5.433030517578125,8.812100617745518,2.461763330514729,0.6493272470742464
1761476156026066400,5.44306640625,8.44290314821601,2.500531452587247,0.512512555736862
1761476156036102700,5.4531025390625,7.9857602687299245,2.486217096030712,0.3537790972538292
1761476156046139400,5.463139404296875,7.628916669338941,2.394820376576483,0.3697364717770368
1761476156056175400,5.47317529296875,7.360951376840472,2.1749916307374835,0.431066517736949
1761476156066211600,5.483211669921875,6.53777855194509,1.9430317175999283,0.46835521490667015
1761476156076247600,5.49324755859375,5.449178428596258,1.6467229586705565,0.4524540275501087
1761476156086283500,5.503283447265625,4.8052702839612955,1.33584820651114,0.3842437936224043
1761476156096319500,5.513319580078125,4.4635161171525715,0.982813351753354,0.43102706250939515
1761476156106356700,5.523356689453125,3.7094156594395638,0.3841454478144645,0.12752254685703665
1761476156116392700,5.533392822265625,3.2305110300004483,-0.4684446102231741,-0.009106348717818036
1761476156126428700,5.5434287109375,1.9526748674750327,-1.6580673595055937,0.8010022749457508
1761476156136464600,5.553464599609375,0.19045710540413854,-2.9725296636387704,1.88138073258996
1761476156146500600,5.56350048828125,-2.0107517933905124,-3.758365568308532,1.7463035691022872
1761476156156536600,5.57353662109375,-5.503425567090511,-3.319182416144013,0.6244460499264299
1761476156166573600,5.583573486328125,-8.241639402115345,-2.5442194954052564,-0.7993825647894293
1761476156176609500,5.593609619140625,-10.466093567419051,-2.216325219383836,-2.3036562968343497
1761476156186645500,5.6036455078125,-11.685277634489536,-1.878555153775215,-3.329458895486593
1761476156196681500,5.613681396484375,-12.477383120948076,-1.400046830177307,-3.4916239723861215
1761476156206717400,5.623717529296875,-12.709378689920902,-1.5499717264458537,-3.066831164623797
1761476156216753400,5.63375341796875,-12.519663927316666,-2.1771306885927912,-2.2486169850490985
1761476156226790400,5.643790283203125,-11.859343577063083,-2.715593422415852,-1.1937869562897832
1761476156236826600,5.65382666015625,-11.233224771618842,-3.2903859452486035,-0.47192890867497767
1761476156246862600,5.663862548828125,-11.3596767301023,-3.8532428233548996,0.07082202386129648
1761476156256898600,5.673898681640625,-10.83952355995178,-4.9046682313025,-0.4225010800959542
1761476156266934500,5.6839345703125,-10.20624553040266,-4.4038931308388705,-1.0096440755337477
1761476156276970800,5.693970703125,-9.918951852577925,-3.2121529510110616,-1.002751320345327
1761476156287007500,5.704007568359375,-9.939877736228704,-3.225102448955178,-1.497793795441091
1761476156297043500,5.71404345703125,-8.781991310685873,-2.3678633960679174,-1.5126247232176362
1761476156307080000,5.724079833984375,-6.826254133030772,-2.461224401332438,-2.671389831291139
1761476156317116000,5.734115966796875,-4.884012396764755,-1.6651397821098566,-2.605530873197317
1761476156327152000,5.744152099609375,-3.4563773024380207,-0.6513005929738283,-1.4121537398174404
1761476156337188000,5.75418798828125,-1.6293541829794644,-0.6503229801133275,-0.7752543049007654
1761476156347224800,5.764224853515625,0.5419757103800773,-0.5309226937070488,-0.6175668118067086
1761476156357261000,5.774260986328125,2.0411206281691787,-0.2636348620787263,-0.6071063541993499
1761476156367297000,5.784297119140625,3.0506191577523945,0.06746054807156324,-0.47953342886194583
1761476156377333000,5.7943330078125,4.049177775648236,0.3609890286326408,-0.15155293586179613
1761476156387369200,5.804369140625,4.24712260645926,0.5289885107740759,0.24389015103653072
1761476156397405200,5.8144052734375,4.489947612482309,1.0118377861857413,0.6934874374486506
1761476156407442200,5.824442138671875,4.825641456338763,1.4992580227747558,0.9094084352593869
1761476156417478100,5.83447802734375,4.44434613725841,1.8213789760917425,1.005571273136884
1761476156427514000,5.84451416015625,4.412854435929656,1.8929098423421382,1.2506266685605048
1761476156437550000,5.854550048828125,4.766242926430702,1.9373568868339062,1.1708565278835594
1761476156447586000,5.8645859375,5.143690337911248,2.042873024794459,0.9982102428495884
1761476156457622000,5.8746220703125,5.886078145998716,2.0368331601083276,0.938138562920317
1761476156467659000,5.884658935546875,6.8722162582606074,2.0982553047984838,0.9502357548840343
1761476156477695000,5.894695068359375,7.630610029253363,2.1565873745188116,0.894674026659876
1761476156487731000,5.90473095703125,7.9899892846018075,2.021123842062056,0.8200960477985442
1761476156497767000,5.914766845703125,8.41087953196764,1.4556646725028752,1.3491038477949797
1761476156507803000,5.924802978515625,7.89583800574243,2.0380176937177774,1.212473317385465
1761476156517838800,5.9348388671875,7.204999767628312,2.639351017473638,1.1452576839856803
1761476156527876000,5.9448759765625,7.185142974513769,2.598340961693227,1.024374465545267
1761476156537912000,5.954912109375,7.177141454365849,2.224104913474619,0.7736604598380625
1761476156547948000,5.964947998046875,7.059071539780497,2.2413445098280906,0.35965858374647797
1761476156557984000,5.97498388671875,6.782409730607271,2.641460849234462,-0.11749733886178582
1761476156568020200,5.985020263671875,6.593382365745305,2.8179820760056375,-0.5121843832284212
1761476156578056200,5.99505615234375,6.567176495864987,2.5924954505354165,-0.5860789829354733
1761476156588093000,6.005093017578125,6.357783803844452,2.1834417714357377,-0.4231692982137203
1761476156598129200,6.015129150390625,5.843236783137917,1.705055612912774,-0.1697131907241419
1761476156608165000,6.0251650390625,5.334096589910984,1.141822010448575,0.19084097188888116
1761476156618201000,6.035201171875,5.371040711426734,0.5295850153625011,0.2505657928755507
1761476156628237000,6.045237060546875,3.745844232648611,0.4288277623668313,0.11294625142868607
1761476156638273000,6.05527294921875,2.494381697785854,0.1019464627802372,-0.1098191506504081
1761476156648310000,6.06531005859375,1.9602280593335628,-0.5911886540994048,-0.20017176787918434
1761476156658346000,6.075345947265625,1.2478338229715824,-1.4670742475286125,0.15186001078328118
1761476156668382000,6.0853818359375,-0.32939445145130153,-2.286350357246399,0.9934473392967134
1761476156678418200,6.095418212890625,-2.7214485781848428,-2.869380547070503,1.9139393324978649
1761476156688454100,6.1054541015625,-5.031567933553457,-3.012290888401866,1.751071952547878
1761476156698490000,6.115489990234375,-6.463657669201493,-2.3108049995452165,0.4338681676868349
1761476156708527000,6.125527099609375,-7.1035402115821835,-1.1351944090023636,-1.1418315819945186
1761476156718563000,6.13556298828125,-7.793815555116534,-0.28961773685812947,-1.7289390311948953
1761476156728599000,6.14559912109375,-8.871790824076532,-0.3128326082289219,-1.6913450674682855
1761476156738635000,6.155635009765625,-9.51743967489898,-0.9650073536887764,-1.464135855989158
1761476156748671000,6.1656708984375,-10.063949521577358,-1.2626458999171852,-0.4496639949727803
1761476156758707000,6.17570703125,-10.996658241468667,-1.4433254154115915,-0.00020971549423411486
1761476156768744000,6.185743896484375,-11.443982322251797,-1.4646464358597993,-0.23096377823967484
1761476156778780000,6.19577978515625,-11.462871731638907,-1.4280503971293568,-0.23487532566022126
1761476156788816000,6.20581591796875,-10.895873808205128,-1.740499851259589,-0.11360237724985926
1761476156798851800,6.215851806640625,-9.786816003239155,-2.4237495339408515,0.1909787729243748
1761476156808888000,6.22588818359375,-8.518222885355353,-3.19775851495564,0.4852223246859386
1761476156818924000,6.235924072265625,-7.32024234983325,-3.7817283237174153,0.7381369457099586
1761476156828961000,6.2459609375,-6.408907841882109,-3.2993931353077293,0.7152206919595598
1761476156838997200,6.255997314453125,-5.436280953100323,-2.2674504264652726,0.6384051633045077
1761476156849033200,6.266033203125,-4.313976128548384,-1.73206812300086,0.7399131616022437
1761476156859069200,6.276069091796875,-3.1748814972370862,-1.467149650852382,0.9038480246532707
1761476156869105200,6.286105224609375,-1.8591794221758842,-1.1866264900758863,0.8375026712819933
1761476156879141000,6.29614111328125,-0.5882780273497105,-1.0219088060840964,0.5459219637878239
1761476156889178000,6.30617822265625,0.32996903646886344,-0.7066752741932869,0.17113650152552873
1761476156899214000,6.316214111328125,0.5768932945042848,-0.3021250439926982,-0.2831489061702043
1761476156909250000,6.32625,1.063527056890726,0.3581242868512869,-0.5511679381499066
1761476156919286000,6.3362861328125,1.7824071481406687,1.2330332903333008,-0.7099282846398651
1761476156929322000,6.346322021484375,2.2937416365414856,1.670323614488542,-0.6186303493849933
1761476156939358000,6.35635791015625,2.8037860851317644,1.421618756646663,-0.4759423455674201
1761476156949394000,6.366393798828125,3.052465077880025,1.1502708359725773,-0.5062110079072416
1761476156959431000,6.376430908203125,3.32834538128674,1.4059002323806284,-0.4562399392969906
1761476156969467100,6.386467041015625,3.573264144718647,1.7741171664401887,-0.2363317350136116
1761476156979503000,6.396503173828125,3.822722889667749,1.8762464384414255,0.13685266699390486
1761476156989539000,6.4065390625,4.423784410744905,1.6901609722502529,0.3735078435419127
1761476156999575000,6.416574951171875,4.828085926881433,1.5036436905130743,0.5083041807942092
1761476157009611000,6.426611083984375,5.694264365288615,1.2613751493290066,0.383254563389346
1761476157019648000,6.43664794921875,6.758328013274073,1.2675789724051951,-0.002563128486275673
1761476157029684000,6.44668408203125,7.609430463102459,1.665103249491751,-0.34951807880848645
1761476157039720000,6.456719970703125,7.913900316655635,1.9585966587394474,-0.34901392867863174
1761476157049756200,6.466756103515625,8.04489050309062,1.7220482487678528,0.0001278915628325194
1761476157059792100,6.476792236328125,8.429502983894944,1.3305112293973564,0.03410946434540674
1761476157069828000,6.486828125,8.521593238571286,1.2754723560035228,-0.09601006760173476
1761476157079865000,6.496864990234375,8.156869699585437,1.6230691113606095,-0.13701825108546764
1761476157089901000,6.506901123046875,7.795202041038871,2.0191876133024693,-0.26548027074970304
1761476157099937000,6.51693701171875,7.52889795975089,2.2611732458919285,-0.34070816488713024
1761476157109973000,6.526972900390625,7.434643805038928,2.3371441404163837,-0.4149010899536311
1761476157120009000,6.537009033203125,7.194616320779919,2.264001455055177,-0.6096748895131051
1761476157130045000,6.547044921875,6.637564621821046,2.156053121511638,-0.6325524917535483
1761476157140082200,6.557082275390625,6.097348906850814,1.9068726089820265,-0.5787948172766715
1761476157150118100,6.5671181640625,5.310428714075684,1.4129232628852129,-0.4378489809513092
1761476157160154000,6.577154052734375,4.672496136718988,0.6174576523438096,-0.20766795058716087
1761476157170190000,6.587190185546875,4.231406566411256,-0.3263751036301255,-0.1266386036293581
1761476157180226000,6.59722607421875,3.6256472429066893,-1.2633224840044974,0.1234339258365333
1761476157190262000,6.607261962890625,2.6888901244074104,-2.4029195118799804,0.608915157186985
1761476157200298000,6.617298095703125,1.279595573413372,-3.6683798846960065,0.9808876443877815
1761476157210335000,6.6273349609375,-0.6078998426645994,-4.416085088413953,0.9556901478324085
1761476157220371000,6.637370849609375,-1.8101847973823546,-4.3257694421947,0.4741831904077902
1761476157230407000,6.647406982421875,-3.312015593254566,-3.6395062569111585,-0.5649563711361959
1761476157240443000,6.65744287109375,-5.174336236065626,-2.346347729830444,-1.3118999062992631
1761476157250479000,6.66747900390625,-6.594532120302319,-1.0935261815741657,-1.5275108883127568
1761476157260515000,6.67751513671875,-8.504458563897014,-0.21718173846155403,-1.5378686161980033
1761476157270552000,6.687552001953125,-9.899090967810153,0.15588906536996364,-0.616252075946331
1761476157280588000,6.697588134765625,-11.190547659409045,-1.0706158461079,0.5362527296233922
1761476157290624300,6.707624267578125,-11.272990964818,-2.518903267841041,1.4097194984078407
1761476157300660200,6.71766015625,-10.645137298405169,-3.142847944116592,1.5745615394316612
1761476157310695700,6.72769580078125,-9.784696526867151,-3.4080025631085036,1.2169080118972808
1761476157320731600,6.737731689453125,-8.625956699365377,-3.610134908737242,0.9563489040020853
1761476157330767600,6.747767578125,-7.4027581359565255,-3.8958693744212387,0.8680857333332299
1761476157340804600,6.7578046875,-7.00300361559987,-3.917497268861532,1.1431089815191924
1761476157350840600,6.767840576171875,-6.9505801854014395,-3.7819331986397504,1.555290729511529
1761476157360876500,6.77787646484375,-7.2340978518188,-3.3719632814779876,1.6621534597754477
1761476157370912500,6.78791259765625,-7.756073561221361,-2.469915072788298,1.4675553090438247
1761476157380948700,6.79794873046875,-7.978173759123682,-1.5632856737881897,1.135822916164249
1761476157390984700,6.807984619140625,-7.717801405972242,-0.9404434057965874,0.8096272607542574
1761476157401020700,6.818020751953125,-7.018553651431202,-0.3064905457258224,0.49587881632205094
1761476157411057700,6.8280576171875,-5.838608538815379,0.18144056299477815,0.28213947339933365
1761476157421093600,6.83809375,-4.481633373123407,0.3498477491542697,0.2660106512993574
1761476157431129600,6.848129638671875,-2.9262796613782642,0.37186902682632206,0.15358561073318122
1761476157441165600,6.85816552734375,-1.2865490458130835,0.3946609966099262,-0.07667686910303309
1761476157451201800,6.868201904296875,0.5078717807263136,0.5071060570508241,-0.4839887643029913
1761476157461237800,6.87823779296875,2.065525586107373,0.7478659472376108,-0.8685363997101784
1761476157471274500,6.8882744140625,2.984809591758251,1.0344210816547275,-0.9400221116445958
1761476157481310700,6.898310791015625,3.3715585000693795,1.2004761517301201,-0.7720897764552385
1761476157491346700,6.9083466796875,3.503484506049752,1.3262453886464238,-0.6530074699569494
1761476157501382700,6.918382568359375,3.6497909195601936,1.6445952989920973,-0.6546713115159422
1761476157511418600,6.928418701171875,3.903731778359413,1.9267779174134134,-0.7351742965120822
1761476157521454600,6.93845458984375,4.090175556468964,2.102386120992899,-0.7605036758188157
1761476157531490600,6.948490478515625,4.543454746264219,2.1134318311423064,-0.7106695314612239
1761476157541527800,6.95852783203125,5.296975942784547,2.085266936148703,-0.676956135495007
1761476157551563800,6.968563720703125,6.157250710105895,2.071211815050244,-0.5747286638163029
1761476157561599700,6.978599853515625,6.917559374809264,2.0024615194290876,-0.4285669925387949
1761476157571635700,6.9886357421875,7.496553440985084,1.968511903554201,-0.24908329923283307
1761476157581671700,6.998671630859375,7.905977706962823,1.9539120080545544,-0.12546990690985693
1761476157591707600,7.008707763671875,8.27066792820096,2.055743612283468,-0.11659547638492658
1761476157601743600,7.01874365234375,8.688809753641486,2.273784013400972,-0.11215968589456751
1761476157611780600,7.028780517578125,8.924397209626436,2.3783482574641703,-0.15075309072099624
1761476157621816600,7.038816650390625,8.874301930114626,2.3053628084912896,-0.13779659678051248
1761476157631852500,7.0488525390625,8.62352684186995,2.2545950365453957,-0.22061721106925977
1761476157641888500,7.058888427734375,8.200938558414578,2.491830844259262,-0.39468284311555324
1761476157651924700,7.0689248046875,7.7526424177289,2.7796561447426673,-0.5720668972611427
1761476157661960700,7.078960693359375,7.389756031042337,2.862216062268615,-0.6341467752076685
1761476157671997700,7.088997802734375,6.88332568129599,2.771779127757251,-0.5923924769312143
1761476157682033700,7.09903369140625,6.4758741766959425,2.5393349382340906,-0.5675332724194974
1761476157692070000,7.10906982421875,6.077431907981634,2.1569994624510405,-0.5417869098097086
1761476157702105900,7.11910595703125,5.531847359454631,1.7190809233948587,-0.437217806908302
1761476157712141800,7.129141845703125,4.84739268489778,1.177262741664052,-0.2842265818716958
1761476157722177800,7.139177734375,4.04932039898932,0.2844286437824368,0.07617810753434896
1761476157732213800,7.1492138671875,3.3439158753842113,-0.9530790154859423,0.5593778038188815
1761476157742250800,7.159250732421875,2.5148574995815753,-2.2587711531862613,1.0388915050670504
1761476157752286700,7.16928662109375,1.6232453447103499,-3.5578552709236737,1.4665866101421414
1761476157762322700,7.17932275390625,0.45098611042201514,-4.605826446764171,1.7892732345178721
1761476157772358700,7.189358642578125,-0.9813508779853581,-5.1235985669970505,1.9131255318969487
1761476157782394600,7.19939453125,-2.6476591193526984,-4.814274259150028,1.7099796253114938
1761476157792430600,7.2094306640625,-4.326680711820721,-3.825063315314054,1.0943093678411095
1761476157802466600,7.219466552734375,-5.695649682167172,-2.707319807328284,0.4022738827664405
1761476157812502500,7.22950244140625,-7.054539741569757,-1.8647218587338923,-0.14115480290092527
1761476157822539500,7.23953955078125,-8.233859415763616,-1.5259867474853992,-0.23891280101537704
1761476157832575500,7.249575439453125,-9.49856897021234,-1.9208388827532528,0.13890205553807317
1761476157842611500,7.259611572265625,-10.623591821551322,-2.5293001586928963,0.7681452035479247
1761476157852647700,7.269647705078125,-11.218617569595574,-2.9297569821000096,1.2807327607497572
1761476157862683600,7.27968359375,-11.253044739854335,-3.287002148029208,1.398741592797637
1761476157872720000,7.289719970703125,-10.4876390442729,-3.558803073167801,1.290880645276606
1761476157882755800,7.299755859375,-9.530395018061995,-3.786547998958826,1.22245563608706
1761476157892792600,7.30979248046875,-9.026571051421762,-4.1000209509179,1.3412459739014506
1761476157902828800,7.319828857421875,-8.62235019930601,-4.194385580267012,1.1533055274933577
1761476157912864800,7.32986474609375,-8.396114509034156,-3.687996731574833,0.7143973928779364
1761476157922900700,7.339900634765625,-8.131690834665298,-3.006777677938342,0.45880650184936816
1761476157932936700,7.349936767578125,-7.432125100216269,-2.1818597629413006,0.20740491573680192
1761476157942972700,7.35997265625,-6.2178311432749025,-1.2278984116628766,0.05388641542308032
1761476157953008600,7.370008544921875,-4.460551422128081,-0.6225836170554161,0.12298059257846325
1761476157963044600,7.380044677734375,-2.5331770001262424,-0.4815699031256139,-0.05000117148756981
1761476157973081600,7.39008154296875,-0.7070861930817365,-0.34894071731194853,-0.4105721939038485
1761476157983117600,7.40011767578125,0.5036778361678124,-0.04474968070015311,-0.6558537992987782
1761476157993153500,7.410153564453125,0.8639104934751987,0.347610053230077,-0.6554184035561978
1761476158003189500,7.420189453125,0.8419552667766809,0.5620997761286795,-0.6083525183355435
1761476158013225500,7.4302255859375,0.5777151322811842,0.9995094888798892,-0.3028989509746432
1761476158023261700,7.44026171875,0.512650831696391,1.4204187332071363,-0.11646591345481574
1761476158033297700,7.450297607421875,0.9030565089493989,1.6809950844980774,-0.05895425673928111
1761476158043334700,7.460334716796875,1.86793380651772,1.8787201350785792,-0.3262534500118345
1761476158053370600,7.47037060546875,2.9504104785501957,2.2301325032010673,-0.6249186358742416
1761476158063406600,7.480406494140625,3.930707463568449,2.362360414737463,-0.7779658288817852
1761476158073442800,7.49044287109375,4.839907882100343,2.2128473141402005,-0.6182743024889379
1761476158083478800,7.500478759765625,5.488419721138477,2.0167349594533444,-0.31888913178890943
1761476158093514800,7.5105146484375,6.077617785942554,1.984322197756916,-0.0573794999695383
1761476158103550700,7.52055078125,6.547956831610202,1.9691228750593959,0.1290791834481992
1761476158113586700,7.530586669921875,6.982213925549387,1.874866236129403,0.17326675501987338
1761476158123623700,7.540623779296875,7.299709849414229,1.8997899572446941,0.10160510199666023
1761476158133659600,7.55065966796875,7.534646148014068,1.9842679833516477,-0.06441204722113907
1761476158143695600,7.560695556640625,7.67565562416017,2.044664292125404,-0.2320037157466635
1761476158153731600,7.570731689453125,7.60704327570498,2.0579080968409778,-0.399335125900805
1761476158163767600,7.580767578125,7.4575015335351225,2.1714783619195224,-0.5752627706930041
1761476158173803500,7.590803466796875,7.406005739575624,2.286389520213008,-0.654584948406741
1761476158183839500,7.600839599609375,7.459523979273438,2.226972285604477,-0.6090370300009846
1761476158193876700,7.610876708984375,7.443736627554893,2.220748296523094,-0.6584276683747768
1761476158203912700,7.62091259765625,7.518638431543112,2.306592350286245,-0.6900422654308378
1761476158213948700,7.63094873046875,7.310501877063512,2.2958660813495517,-0.6597434271484613
1761476158223984600,7.640984619140625,6.901669147238135,2.220311950932443,-0.6482711621500551
1761476158234020600,7.6510205078125,6.7022711950093505,2.028712397494912,-0.6662624536536633
1761476158244056600,7.661056640625,6.463882710129022,1.6242942692413924,-0.5228877462135627
1761476158254092800,7.6710927734375,5.955079201510548,1.045043013434112,-0.2757096960801631
1761476158264128800,7.681128662109375,5.112060689416527,0.3720616267889738,0.05604527395740151
1761476158274165500,7.69116552734375,4.255302990305424,-0.525077474810183,0.40873964471444485
1761476158284201700,7.70120166015625,3.118907096558809,-1.4224170674175023,0.6708189479142427
1761476158294237700,7.71123779296875,2.0099831471055745,-2.0467291157007215,0.6818951993323862
1761476158304273700,7.721273681640625,1.041417516413331,-2.3182275507614016,0.505989035719633
1761476158314309600,7.7313095703125,-0.3775765908181667,-2.4708289727628228,0.3613648762077093
1761476158324345600,7.741345703125,-2.534178870645165,-2.4274878436863423,0.34985476341694594
1761476158334381600,7.751381591796875,-4.6629625846982,-1.898714144706726,0.4970494310040027
1761476158344417500,7.76141748046875,-6.869934869325161,-1.0886012923926114,0.6379245401807129
1761476158354454500,7.77145458984375,-8.398668869692086,-0.5663605023130774,0.5647625655971468
1761476158364490500,7.781490478515625,-8.864345184245705,-0.4128226762443781,0.2431109833575785
1761476158374526500,7.7915263671875,-9.080027916321157,-0.7849977002799511,-0.03841353648118675
1761476158384562400,7.8015625,-9.174308959040046,-1.5403762151047586,0.1382453451950103
1761476158394598400,7.811598388671875,-9.043013652178644,-2.3654002208247777,0.5272920090544968
1761476158404634400,7.82163427734375,-8.835722900873423,-2.790358156020939,0.8950780043508857
1761476158414670600,7.831670654296875,-8.565916948944329,-2.7749744166672228,1.175672988254577
1761476158424706600,7.84170654296875,-8.219183824679256,-2.758201853303611,1.4421020110964775
1761476158434743600,7.85174365234375,-8.151079425746202,-2.8501962463900443,1.6898532214753328
1761476158444779500,7.861779541015625,-8.516226743102074,-2.924745583678782,2.0188585274785757
1761476158454815700,7.871815673828125,-8.943903289607167,-2.939828001998365,2.227967141860723
1761476158464851700,7.881851806640625,-9.036098173701763,-2.8156840281963347,1.9814668083257971
1761476158474887700,7.8918876953125,-8.656697290065884,-2.1902491133630275,1.2537572216711939
1761476158484923600,7.901923583984375,-8.107451296421885,-1.274670099709928,0.5196756888318806
1761476158494959600,7.911959716796875,-7.121721180438995,-0.49131724402755494,0.17484890964478253
1761476158504996600,7.92199658203125,-5.743085971602797,0.04436521142721176,0.030298984412848947
1761476158515032600,7.932032470703125,-4.076510019209981,0.023491642485558985,-0.053525180895254015
1761476158525068500,7.942068603515625,-1.9046984798133373,-0.21794249370098112,-0.2995072261771187
1761476158535104500,7.9521044921875,0.3887561564803123,0.012139642865955829,-0.5450962900860234
1761476158545140500,7.962140380859375,1.8738094205528497,0.341835123090446,-0.45020690621044485
1761476158555176400,7.972176513671875,2.299836446285248,0.46544162901490926,0.002276055173203349
1761476158565212400,7.98221240234375,1.9693466008126734,0.7263209087751805,0.5549718604775146
1761476158575248400,7.992248291015625,1.70638715377748,1.0044088052287696,0.6414130398835987
1761476158585285600,8.00228564453125,2.0804420002102852,1.3373195942379534,0.20616167421005666
1761476158595321600,8.012321533203124,2.8281594788879154,1.8266699221067129,-0.39797129020169375
1761476158605352700,8.022352783203125,3.273639393109083,2.096839008259773,-0.8066762289289384
1761476158615388700,8.032388671875,3.6459605476170776,2.111409823795408,-0.9349190163519233
1761476158625425700,8.04242578125,4.044169007575512,2.1912046605221924,-0.8197599477119744
1761476158635461600,8.052461669921875,4.5285728189527985,2.254741020887345,-0.6594906214311719
1761476158645497600,8.06249755859375,5.287449405026435,2.1927631420105693,-0.5838630604516715
1761476158655533600,8.072533447265625,6.091067634624243,2.1424995201945305,-0.5434944443799555
1761476158665569500,8.082569580078125,6.864630917698144,2.1252458953157065,-0.5043746958581731
1761476158675605500,8.09260546875,7.466424844703078,2.1326126246914265,-0.38796778258159753
1761476158685641500,8.102641357421875,7.792875059396028,2.1277245603889225,-0.26187552425600585
1761476158695677400,8.112677490234375,7.946178199926019,2.0918778787210583,-0.17209464250057935
1761476158705714400,8.12271435546875,8.016919377103447,2.0374913317561147,-0.16114311344064772
1761476158715750400,8.13275048828125,7.938710348263382,2.076512844067812,-0.4298551691858098
1761476158725786400,8.142786376953126,8.059028918558358,2.3787317038238047,-0.8293722640573978
1761476158735822300,8.152822265625,7.9364026558429,2.586632403720915,-1.145891159583628
1761476158745858300,8.1628583984375,7.556126742938161,2.6379288757160304,-1.1343850653808563
1761476158755894800,8.172894775390626,7.011652201479673,2.4124536484226584,-0.7942368724640458
1761476158765930800,8.1829306640625,6.488361902347207,1.8168968622416257,-0.42887386653088033
1761476158775966700,8.192966796875,6.206501940008997,1.3692641539007424,-0.2960268732480705
1761476158786003700,8.203003662109374,5.975748480051756,1.2172910929307341,-0.29283911005742846
1761476158796039700,8.213039794921874,5.500048199611902,0.6139215871721506,-0.16652129934765397
1761476158806075600,8.22307568359375,4.712726440298557,-0.485022820058465,0.1394389388937503
1761476158816111600,8.233111572265624,3.721529291081428,-1.5703040281176566,0.49842926798984405
1761476158826147600,8.243147705078124,2.3323738572746513,-2.4940420905679463,0.8835623386021703
1761476158836183600,8.25318359375,0.9093845429271459,-3.42939168035686,1.273361793590337
1761476158846219500,8.263219482421874,-0.5917442421555519,-4.285619218114018,1.542772170330584
1761476158856255500,8.27325537109375,-1.9327309805989263,-4.5352200018823146,1.2708584324672818
1761476158866292500,8.28329248046875,-3.121878805845976,-3.531142328304052,0.4321370330452919
1761476158876328400,8.293328369140625,-4.344828362929821,-1.9682517913132904,-0.3197019094765186
1761476158886364400,8.303364501953125,-5.840797573292255,-1.0651461825251578,-0.39441608193814753
1761476158896400400,8.313400390625,-7.078076099979877,-1.2352341613784432,0.20537373870275913
1761476158906436400,8.323436279296875,-8.17085263223052,-1.883023823621869,1.1100992037776858
1761476158916472300,8.333472412109375,-9.018841918474434,-2.1546724808081983,1.6912730251453816
1761476158926508500,8.343508544921875,-9.312399917390943,-2.0407053253665564,1.7169050406605004
1761476158936545500,8.353545654296875,-9.148651955214142,-1.8920014953255653,1.5620400576412676
1761476158946581500,8.36358154296875,-9.219343448030948,-2.0251827620640395,1.5352315456926822
1761476158956617500,8.373617431640625,-9.465227841624618,-2.4622093207165596,1.547620779405534
1761476158966653700,8.38365380859375,-9.694473235106468,-2.88630187125504,1.429353588682413
1761476158976689700,8.393689697265625,-9.620105099603533,-2.492248192888498,1.0169287526492028
1761476158986725600,8.4037255859375,-9.073639092066884,-1.0308135586820542,0.4182162789162248
1761476158996761600,8.41376171875,-8.579231188547611,0.4827338323384523,-0.0341810865432024
1761476159006797600,8.423797607421875,-7.900009738469123,0.8384219780839979,-0.16115911472737787
1761476159016834600,8.43383447265625,-6.282416135910153,0.42520168082416054,-0.2168683616634458
1761476159026870500,8.44387060546875,-4.07419881965816,0.22153803397491573,-0.39050146577768025
1761476159036906500,8.453906494140625,-1.7686901729553937,0.11722542658522725,-0.561469551933743
1761476159046942500,8.4639423828125,0.10571896705627441,0.10983736216053366,-0.5172596406660974
1761476159056978400,8.473978515625,1.2495265983641146,0.2118395006507635,-0.19005577632794154
1761476159067014400,8.484014404296875,1.9036568618059158,0.26986045859530566,0.27531216639624906
1761476159077050400,8.49405029296875,1.9658406385183333,0.33355653956681486,0.7689518437556921
1761476159087086300,8.50408642578125,1.6923539522498845,0.43771220282912254,0.9947328490626066
1761476159097123600,8.51412353515625,1.556215297010541,0.5656354029089212,0.8829866576060652
1761476159107159600,8.52415966796875,1.8222218566566704,0.7277107556983828,0.5225042998539283
1761476159117195500,8.534195556640626,2.261716851249337,0.9629743865564465,0.0473396058618091
1761476159127231500,8.5442314453125,2.8326205499500037,1.1263356875032187,-0.2402931494578719
1761476159137267700,8.554267822265626,3.506147587779164,1.0934385032907128,-0.302030022653006
1761476159147303700,8.5643037109375,4.197881897950172,1.0140250670969486,-0.0751313384277746
1761476159157339600,8.574339599609376,5.024678174039721,0.9364479064196347,0.2461850022417493
1761476159167375600,8.584375732421876,5.841887122094631,0.7884070703320205,0.3720869438933208
1761476159177412600,8.59441259765625,6.6272881424784655,0.7440025498077273,0.3703902229780331
1761476159187448600,8.604448486328126,7.149666587463021,0.7676140192806721,0.3626215252052992
1761476159197484500,8.614484619140624,7.467673967981338,0.6917946620561182,0.3273051510218531
1761476159207520500,8.6245205078125,7.58693747626543,0.6727791420713066,0.2001697768514976
1761476159217556500,8.634556396484374,7.4712377979427576,0.9012078123427927,0.08896587557811289
1761476159227592400,8.644592529296874,7.269460257101058,1.0913643273651599,-0.0628588994950056
1761476159237628400,8.65462841796875,7.179034720766544,1.266160045517981,-0.40672903554439543
1761476159247665700,8.664665771484374,6.998409273546934,1.7421049483686684,-0.8733662310194223
1761476159257701600,8.67470166015625,6.766959648019075,2.157250222341716,-1.1971959610156715
1761476159267737600,8.684737548828124,6.503361318558454,2.2726941723376513,-1.3287863053008913
1761476159277773600,8.694773681640624,6.210080383017659,2.188244787803292,-1.2950646529629826
1761476159287809500,8.7048095703125,5.816480293637514,2.0578291863858698,-1.1128750982318072
1761476159297845500,8.714845458984374,5.171059990873933,1.9015011450767516,-0.8026424433682113
1761476159307881500,8.724881591796875,4.425203629893065,1.5027785981163382,-0.43197340344879775
1761476159317920500,8.73492041015625,3.697310795626044,0.6923454278066754,-0.12091697457954287
1761476159327957500,8.74495751953125,3.1869828539192673,-0.2625254395321011,-0.03162058840543031
1761476159337993500,8.754993408203125,2.8826626379698514,-1.3021888057544826,0.09765651050135493
1761476159348029400,8.765029541015625,2.2505367010653017,-2.4114590844273565,0.48141376271583136
1761476159358065400,8.7750654296875,1.4352531681150198,-3.4662674128115176,0.7745505405455827
1761476159368101400,8.785101318359375,0.3383259459257126,-4.183995411416888,0.7197432839505374
1761476159378137300,8.795137451171875,-0.5017652805447578,-4.349814919170737,0.63794850557819
1761476159388173600,8.805173583984375,-1.0754565641373395,-3.9699607388094065,0.09565912613905966
1761476159398209500,8.81520947265625,-1.9454682970970867,-3.091398327386379,-0.4525107627060264
1761476159408246500,8.82524658203125,-3.198502026799321,-2.2943603529617187,-0.6108751321483403
1761476159418282500,8.835282470703126,-5.397534166076779,-1.814786738219857,-0.36039705408886075
1761476159428318500,8.845318359375,-7.2503101509511465,-1.3436781694844364,0.24023732761740682
1761476159438354400,8.8553544921875,-8.431550564074517,-1.2034297408387065,0.32591530409865077
1761476159448390400,8.865390380859376,-8.99529445414841,-1.2121285956010222,0.2796495197471231
1761476159458426400,8.87542626953125,-9.148708069315552,-1.2189552267506718,0.2170828811969608
1761476159468462600,8.885462646484376,-9.183692873457074,-1.2957564346194266,0.14015417449101805
1761476159478498600,8.89549853515625,-8.902857577991485,-1.404399764689803,0.11384506343193351
1761476159488535300,8.905535400390624,-8.585321322116256,-1.457403332863748,-0.14473214993104339
1761476159498571500,8.915571533203124,-8.532687464037537,-1.3435970670722424,-0.34859994105026126
1761476159508607500,8.925607421875,-8.571378721481562,-1.285031626987457,-0.37043234508670864
1761476159518643500,8.9356435546875,-8.644590672686695,-1.3636188414901493,-0.47532224090769887
1761476159528679400,8.945679443359374,-8.427609132972359,-1.1728897872768342,-0.5691979907613247
1761476159538715400,8.95571533203125,-7.816515462702513,-0.4949484401367604,-0.9800715056993067
1761476159548751400,8.96575146484375,-7.205868367156386,0.3511009640857577,-1.345752199279517
1761476159558788600,8.97578857421875,-6.18021832871735,0.7789725947715341,-1.198610503988713
1761476159568824600,8.985824462890625,-4.4521138486504555,0.9158246589772403,-0.9603525136202573
1761476159578860500,8.995860595703125,-2.501331078532338,1.0348241094976662,-0.7834411184877157
1761476159588896500,9.005896484375,-0.6227315010935067,0.9355665935404598,-0.6816876209963113
1761476159598932500,9.015932373046875,0.9671645317226648,0.6996295934654772,-0.4731937409790232
1761476159608968400,9.025968505859375,1.9079501750856638,0.6734722389020026,-0.28948804606385525
1761476159619004400,9.03600439453125,2.345813184562325,0.889988353061676,-0.09575717968605459
1761476159629040400,9.046040283203125,2.464280574032664,1.0011987571410834,0.22496216320469975
1761476159639077400,9.056077392578125,2.5629765105843543,0.9314752325735985,0.38284148907642807
1761476159649113300,9.06611328125,2.8985931975513695,1.0700824698835611,0.2793592315636575
1761476159659149300,9.0761494140625,3.4138872372329234,1.3450835062377153,0.06281553527731448
1761476159669185300,9.086185302734375,3.98706589512825,1.5314315688878297,-0.07389880095813423
1761476159679221500,9.096221435546875,4.48485467325747,1.5689863696478306,-0.006896919906884432
1761476159689257500,9.106257568359375,4.963044432425499,1.4816469627603888,0.2188455069553107
1761476159699293400,9.11629345703125,5.3870104339748615,1.4284529865808784,0.4307377972392365
1761476159709330400,9.126330322265625,5.86525689176619,1.4004405056700109,0.536065171162039
1761476159719366700,9.13636669921875,6.3475383041620255,1.360591748753935,0.622554829352349
1761476159729402600,9.146402587890625,6.736050715014338,1.2476673803634941,0.6302775325588882
1761476159739438600,9.1564384765625,7.047133264705538,1.0491713454104958,0.43038580546379085
1761476159749474600,9.166474609375,7.333003631728887,1.0849869012877345,0.11358520691934973
1761476159759510500,9.176510498046875,7.474032981619239,1.3286463123083114,-0.2127199002144858
1761476159769546500,9.18654638671875,7.311164140364527,1.557253700147569,-0.4429947463419288
1761476159779582500,9.19658251953125,6.962837024906277,1.7212965536177158,-0.4621817869687453
1761476159789619500,9.206619384765625,6.6091878376424305,1.6826903441086412,-0.3746377974199131
1761476159799655400,9.216655517578126,6.4407964335739605,1.5368763902902602,-0.3903299086030572
1761476159809691400,9.22669140625,6.305055837741494,1.3898504303336143,-0.3882449190225452
1761476159819727400,9.236727294921875,5.865118360078334,1.0852762396231292,-0.13727284690104424
1761476159829763300,9.246763427734376,5.030982827141881,0.4628390453010797,0.33632264327928424
1761476159839799300,9.25679931640625,4.150791060951352,-0.17455606417804956,0.6781696760032325
1761476159849835500,9.26683544921875,3.480006015306711,-0.6422755749970674,0.71455601750575
1761476159859872500,9.27687255859375,2.9192759200960396,-1.1055191094458103,0.44578715353943404
1761476159869908500,9.286908447265626,2.442424716055393,-1.4021809195965527,0.0643271454166621
1761476159879944400,9.2969443359375,1.7198966236919164,-1.6345076202198863,-0.09616057285517454
1761476159889980700,9.306980712890624,0.2896212439894676,-2.1334557975172994,0.22127967529967427
1761476159900016600,9.3170166015625,-1.248078737643361,-2.5130814298197626,0.6851884687241167
1761476159910052600,9.327052490234376,-2.555623225212097,-2.142561187253892,0.7840572045594454
1761476159920088600,9.337088623046874,-3.468356494045257,-1.369954766513407,0.6567405920706689
1761476159930124500,9.34712451171875,-3.654704410564899,-1.0160670943185686,0.27385749234221873
1761476159940161500,9.35716162109375,-4.003119204306603,-0.980487831415236,0.006493892063945531
1761476159950197500,9.367197509765624,-4.558035060280561,-0.9747788061186671,0.34917591430731115
1761476159960233500,9.3772333984375,-5.64380609768331,-1.3166688742667436,0.918069296098873
1761476159970269400,9.38726953125,-6.692824152228236,-1.805200871489942,1.6383371153801678
1761476159980305400,9.397305419921874,-7.265127196332812,-2.379944879005849,1.7426095368899404
1761476159990341400,9.40734130859375,-7.419007259967922,-2.5074641744598747,1.2871034648254513
1761476160000377300,9.41737744140625,-7.435176889002323,-2.1843650237604972,0.8032216314956545
1761476160010413300,9.427413330078124,-7.936600224241614,-2.085791252283752,0.7388857913158834
1761476160020450300,9.4374501953125,-8.56313754735887,-2.2576298741966485,1.1709231633789836
1761476160030486300,9.447486328125,-9.137963387939333,-2.6249516129821537,1.3987018453091382
1761476160040522500,9.4575224609375,-9.274652662798761,-2.8983970904573795,1.319154553602636
1761476160050558500,9.467558349609375,-8.714016091090441,-2.825532345254719,0.8614657306715846
1761476160060594400,9.477594482421875,-7.881812402999401,-2.317564702938497,0.23783209310658274
1761476160070630700,9.487630615234375,-6.836024416416883,-1.5543559328794478,-0.10721073998399078
1761476160080666600,9.49766650390625,-5.735144072687626,-1.022909215298295,-0.08661379602663219
1761476160090703400,9.507703369140625,-4.715774721953273,-1.0565715386644006,0.1359542385831475
1761476160100739600,9.517739501953125,-3.5134260543495412,-1.3676970507144928,0.3200007462926209
1761476160110775600,9.527775634765625,-2.340071426039934,-1.2378102954767645,0.2318626267755404
1761476160120811500,9.5378115234375,-1.489215059927106,-0.716378629823029,0.027232399916462598
1761476160130847500,9.547847412109375,-0.8708136969923973,-0.2175055635884404,-0.14484193044845015
1761476160140883500,9.557883544921875,-0.39850715064406395,0.25013079899176954,-0.2709612229114398
1761476160150919400,9.56791943359375,-0.05174070863127708,0.5621385007038712,-0.40278530288729814
1761476160160955400,9.577955322265625,0.39460605155229567,0.8032995190374552,-0.6221613730553537
1761476160170992400,9.587992431640625,0.8706061917215585,1.146283812163025,-0.7359338096424937
1761476160181028400,9.5980283203125,1.2581079642266035,1.2508283286124466,-0.692727558992058
1761476160191064300,9.608064208984375,1.850527913686633,1.2219846575744449,-0.6887225611343979
1761476160201100300,9.618100341796875,2.6067408335089683,1.2335698814280331,-0.693236677557975
1761476160211136500,9.628136474609375,3.422524717196822,1.2417162168741225,-0.7222142041087151
1761476160221172500,9.63817236328125,4.1859845394074915,1.2880844386868178,-0.6913107509966939
1761476160231208400,9.64820849609375,4.767396188119053,1.2389606345556676,-0.5042680571459234
1761476160241245400,9.658245361328126,5.1531853114873165,1.0836873629964887,-0.29857838436178863
1761476160251281400,9.668281494140626,5.475670129680633,1.0384385006025434,-0.12920443552937358
1761476160261317400,9.6783173828125,5.695557912230491,1.1271573791496454,-0.028722857669927177
1761476160271353600,9.688353515625,5.89972205594778,1.2633918959788977,-0.06219093710556626
1761476160281389600,9.6983896484375,6.204311151966452,1.3735026682533322,-0.2587069041572511
1761476160291425500,9.708425537109376,6.586680822280049,1.5345184289872646,-0.5362545562542974
1761476160301461500,9.71846142578125,6.829526286569237,1.7924986263051628,-0.8111271439231932
1761476160311494700,9.72849462890625,6.949935457757115,2.067628111344576,-0.9808636789903045
1761476160321531600,9.73853173828125,7.0893643867135046,2.1579911038368937,-1.0669474597934634
1761476160331567600,9.748567626953125,7.2409250674903385,2.185492274224758,-1.174397634556517
1761476160341603600,9.758603515625,7.285990536141395,2.419828561104834,-1.224037790711969
1761476160351639600,9.7686396484375,7.114331070187688,2.601912682700157,-1.1331936636392026
1761476160361675500,9.778675537109375,6.751115597677231,2.535563018479943,-0.9234805805578827
1761476160371711500,9.78871142578125,6.355657313209772,2.4376699227437375,-0.6574957212869078
1761476160381747500,9.79874755859375,5.864331593614816,2.440095396324992,-0.44899917438849807
1761476160391784400,9.808784423828126,5.63101208256185,2.3457740215957164,-0.22873539813309907
1761476160401820700,9.818820556640626,5.418408027279376,1.9007424356639384,-0.10785934008583425
1761476160411856600,9.828856689453126,5.093579276308417,1.4166577732384205,0.006090937286242842
1761476160421892600,9.838892578125,4.6435389223039145,0.8098296514585613,0.3673021573022008
1761476160431928600,9.848928466796876,3.9264123967230318,-0.23901275425851343,0.938585649100691
1761476160441964500,9.858964599609376,3.069876231408119,-1.4256006658896803,1.5496084460914135
1761476160452000500,9.86900048828125,2.4986498766243455,-2.219910968916118,1.7756718485362826
1761476160462036700,9.87903662109375,2.2917162681937215,-2.5354750479355452,1.6254307259254157
1761476160472073500,9.889073486328124,1.5207517694413661,-2.5505957524389027,1.4352286181956528
1761476160482109400,9.899109375,0.13058686633110045,-2.3585224440097807,1.1468716219883412
1761476160492145700,9.909145751953124,-1.4053431830197571,-1.9619895160481333,0.9162968065336347
1761476160502181600,9.919181640625,-3.1234301269412037,-1.3277844347819685,0.8593259421639144
1761476160512217600,9.929217529296874,-4.5395624150007965,-0.9832570038676262,0.7001957759808749
1761476160522253600,9.939253662109374,-5.694647227126359,-0.929569252821803,0.42858591643497346
1761476160532289500,9.94928955078125,-6.331208516129851,-1.0687746021553874,0.18605090633444488
1761476160542326500,9.959326416015625,-7.028226904183626,-1.4846578350141644,0.062386605808138845
1761476160552362500,9.969362548828125,-7.734546789067983,-1.9545108507305382,0.19828195381090044
1761476160562398500,9.9793984375,-8.299533957201241,-2.2284607705965636,0.4801005612254142
1761476160572434700,9.9894345703125,-8.350161736154556,-2.484723058080673,0.8439396455269307
1761476160582470700,9.999470703125,-8.295226030874252,-2.7114617294386028,1.044199402216822
1761476160592506600,10.009506591796875,-8.733548474556207,-2.816175611105561,1.2121193163160233
1761476160602542600,10.01954248046875,-9.035728755867481,-3.162201463884115,1.3207079205244778
1761476160612578600,10.02957861328125,-9.296613734716177,-3.428004609912634,1.1002844967279584
1761476160622615600,10.039615478515625,-9.214082751023769,-3.1552474069625136,0.5020521346621215
1761476160632651500,10.049651611328125,-9.07968889362514,-2.5723712386563418,-0.016209522653371094
1761476160642687500,10.0596875,-8.754363299047947,-1.9190514148145914,-0.37569019254967567
1761476160652723500,10.069723388671875,-8.37887578946352,-1.1537836663991212,-0.525248009071499
1761476160662759400,10.079759521484375,-7.757941693180799,-0.553213143709302,-0.5248337291821837
1761476160672795600,10.089795654296875,-6.3102510682970285,-0.2563482122018933,-0.44244281154759224
1761476160682831600,10.09983154296875,-4.486380859911441,0.06863397576510906,-0.42201727863438426
1761476160692868400,10.109868408203125,-2.6534938168555495,0.3345841290488839,-0.288007744378224
1761476160702904600,10.119904541015625,-1.0946791510015725,0.3187938547208905,-0.014740107687935232
1761476160712940500,10.1299404296875,0.19117139115333556,0.39620822605192657,0.253459431957826
1761476160722976500,10.1399765625,1.086504027852416,0.4832337446846068,0.43542920645847916
1761476160733012500,10.150012451171875,1.754772706761956,0.6025010523609816,0.49151919634044167
1761476160743048400,10.16004833984375,2.078103328129649,0.975264689939469,0.42565680418051777
1761476160753084700,10.170084716796875,2.0618787540376187,1.2810656459659338,0.41557285173535347
1761476160763120600,10.18012060546875,2.1091151369869707,1.4167542193502187,0.27300891268886623
1761476160773157600,10.19015771484375,2.343626488173008,1.6275446493394672,-0.047500806039199234
1761476160783193600,10.200193603515626,2.646016028320789,1.8047258013240992,-0.4035869381263852
1761476160793229600,10.2102294921875,3.068347122144699,1.9513878964044153,-0.5927576569817959
1761476160803265500,10.220265625,3.5770711357861753,2.001136846696585,-0.5193856198441237
1761476160813301500,10.230301513671876,4.274032825216651,1.9201926938042044,-0.386535557821393
1761476160823337500,10.24033740234375,4.851989365038276,1.9351663910523056,-0.25875951112732287
1761476160833373400,10.25037353515625,5.439110039046406,1.941553461740911,-0.1708860704284161
1761476160843410400,10.260410400390626,6.074600483947992,1.9133134556844829,-0.15761077459603548
1761476160853446400,10.2704462890625,6.759659554138779,1.8810379105016588,-0.2865794651407748
1761476160863482400,10.280482421875,7.247070146116614,1.9157760464057325,-0.4439498551096767
1761476160873518600,10.2905185546875,7.456053088292479,2.0388149815753103,-0.5853237806539983
1761476160883554600,10.300554443359376,7.49383658324182,2.1723487150132654,-0.7081695313390344
1761476160893590500,10.310590576171874,7.315832132175564,2.308459313201904,-0.7436532979786395
1761476160903626500,10.32062646484375,6.858381794175505,2.400652151469886,-0.7042682130515575
1761476160913662500,10.330662353515624,6.576544628190994,2.362714635002613,-0.6489436545841395
1761476160923699700,10.34069970703125,6.472719512057304,2.2900004041865465,-0.716551209910959
1761476160933735700,10.350735595703124,6.4605217092633245,2.2279569127276537,-0.9084512075997888
1761476160943771600,10.360771728515624,6.169185478049516,2.1360002213031053,-0.8438691375739872
1761476160953807600,10.3708076171875,5.627456435906887,1.76326084138304,-0.6640870093107223
1761476160963843600,10.380843505859374,5.083713131332397,1.1994482699871063,-0.4946434658408165
1761476160973879600,10.390879638671874,4.268676851141453,0.625286154012382,-0.0531625581279397
1761476160983915500,10.40091552734375,3.3997967525601385,-0.046755321434140205,0.29348639498502016
1761476160993952500,10.410952392578125,3.063369333732128,-0.6468433213040232,0.4987269357621669
1761476161003988500,10.420988525390625,3.1056986554175614,-1.3295023446157574,0.6354397376276553
1761476161014024400,10.4310244140625,2.9599171425640582,-2.270692477126419,0.5417905630715191
1761476161024060400,10.441060302734375,2.550788644662499,-2.8531188558384772,0.09923881125673652
1761476161034096400,10.451096435546875,1.8249708631038666,-2.4414506103262306,-0.40698534839302297
1761476161044132400,10.46113232421875,0.7820470337808132,-1.4646145794168113,-0.7580212844185531
1761476161054168600,10.47116845703125,-0.8501414958417415,-0.9402657111421227,-0.6562240208506583
1761476161064205600,10.48120556640625,-2.518992991951108,-0.9620978959828614,-0.09137246179580688
1761476161074241500,10.491241455078125,-3.631489539194107,-1.1062591141581535,0.3333421661637723
1761476161084277500,10.501277587890625,-4.484534939783812,-1.2671636696025728,0.6974081180237234
1761476161094313700,10.511313720703125,-4.724778697142004,-1.7884560729160903,0.6539930469281972
1761476161104349700,10.521349609375,-4.645854213508963,-2.0330811140984295,0.4100866754092276
1761476161114385700,10.5313857421875,-4.605847197291255,-2.0864280888825655,0.4927123516477644
1761476161124421600,10.541421630859375,-4.573149627304077,-2.412362463007867,0.7630567943677306
1761476161134457600,10.55145751953125,-4.752420737305283,-2.7411230004698037,1.2334522463977335
1761476161144494600,10.56149462890625,-5.135450332832336,-3.159318017402291,1.8095850779235363
1761476161154530600,10.571530517578125,-5.361814617919921,-3.6217534503385425,2.1779288532331584
1761476161164566500,10.58156640625,-5.478471158576012,-3.6741397633969783,2.2168661943927406
1761476161174602500,10.5916025390625,-5.516621733272076,-3.521075400058925,1.8228394040331244
1761476161184638500,10.601638427734375,-5.907431899672746,-3.178173816780746,1.1336639845646916
1761476161194674400,10.61167431640625,-6.454027671068906,-2.6782246457472443,0.5779945337444543
1761476161204710400,10.62171044921875,-6.884423413404822,-2.1476447741284965,0.14413593760356305
1761476161214747400,10.631747314453126,-7.029110701280832,-1.3655471792042255,-0.3065244479954243
