time,seconds_elapsed,z,y,x
1761475857559360500,0.067360595703125,-0.24429390953183172,0.07978102739714085,-0.08820838087485171
1761475857569337600,0.077337646484375,-0.3873100493252277,0.2777443437129259,-0.023651883681723846
1761475857579314400,0.087314453125,-0.5905576627194881,0.23833901971541344,0.26977714595971625
1761475857589292500,0.09729248046875,-0.7693196541547774,0.1326489864926785,0.2640811993404291
1761475857599269400,0.107269287109375,-0.6743816088318825,0.09278707783408463,-0.02877097341126064
1761475857609246500,0.11724658203125,-0.4939601597517729,0.07183430617637931,-0.40399051395859564
1761475857619223600,0.1272236328125,-0.3132423580735922,0.032367680445685984,-0.6051825465299189
1761475857629200400,0.137200439453125,-0.1909685620576143,-0.03227656809613109,-0.5223780796583741
1761475857639177500,0.147177490234375,-0.09526771566867828,-0.09713131758347153,-0.3992377299409359
1761475857649154300,0.157154296875,0.050560558935999866,-0.0854155992180109,-0.19262895128419621
1761475857659131600,0.167131591796875,0.08442658818066119,-0.1204325520634651,0.009756592787476256
1761475857669108500,0.1771083984375,0.007646715360879897,-0.08452683368474244,0.15519947567060588
1761475857679085600,0.18708544921875,-0.11012217045128345,0.018054127606749532,0.18200495541188866
1761475857689062700,0.197062744140625,-0.30050796418488024,-0.04003112774565816,0.24579245926020665
1761475857699039500,0.20703955078125,-0.48922903957664965,-0.07322188807725906,0.11276068399501964
1761475857709016600,0.2170166015625,-0.36250995458960533,-0.004462386236339808,-0.3058092854633927
1761475857718994700,0.22699462890625,-0.21919453958868979,-0.0040814240947365755,-0.5185983784565702
1761475857728971500,0.236971435546875,-0.04001344595849514,-0.06254194250032305,-0.5527707702366634
1761475857738948600,0.246948486328125,0.13838731094896792,-0.1297906013868749,-0.509457150221616
1761475857748925400,0.256925537109375,0.36768121974766255,-0.11640958015769719,-0.48542511724904175
1761475857758902500,0.266902587890625,0.5624608645260334,-0.14045198839381337,-0.42064960701037196
1761475857768879400,0.27687939453125,0.7218827801972627,-0.16184811990484593,-0.33927813208401203
1761475857778856400,0.2868564453125,0.8240764957368374,-0.1982958362057805,-0.24425160476006566
1761475857788833500,0.29683349609375,0.7632686835527419,-0.2635508370570838,-0.17785346175562589
1761475857798810400,0.306810302734375,0.6031330666542053,-0.3056383128106594,-0.25619736902173607
1761475857808787700,0.31678759765625,0.4792003975152969,-0.287583892942965,-0.3388952337136492
1761475857818764500,0.3267646484375,0.35739246544539927,-0.29069910235404967,-0.3274876314492896
1761475857828741600,0.33674169921875,0.20018004251718519,-0.24020927056670188,-0.2746925549268722
1761475857838718500,0.346718505859375,0.10179624065458774,-0.0962014893874526,-0.26039434578754006
1761475857848696600,0.356696533203125,0.14458324297964573,-0.01160349016264081,-0.17943916004449129
1761475857858673700,0.366673583984375,0.14881284337341785,-0.04631663775593042,-0.09303279622346163
1761475857868650500,0.376650390625,0.12277356223165989,-0.14401318800672888,-0.11733363620005548
1761475857878627600,0.386627685546875,0.09253975200951099,-0.1468601018704474,-0.17719854151085018
1761475857888604400,0.3966044921875,0.008697685718536376,-0.15420286584869025,-0.09388523006802424
1761475857898581500,0.40658154296875,-0.060223874816298484,-0.12291925431266426,-0.051598815942555665
1761475857908558600,0.41655859375,-0.12012743163704871,-0.11201382941678166,-0.09912340471614152
1761475857918535400,0.426535400390625,-0.13197393677532673,-0.06946341232657433,-0.08534892718996852
1761475857928512500,0.436512451171875,-0.19043255548477173,-0.0912780615106225,-0.013572032022941856
1761475857938489300,0.4464892578125,-0.26691023048758505,-0.19853096013590693,0.04787313734977506
1761475857948466400,0.456466552734375,-0.2609492762565613,-0.23869141334965824,0.02454545325427316
1761475857958443500,0.466443603515625,-0.1374865627169609,-0.07123889756649732,-0.07925251001100987
1761475857968420600,0.476420654296875,-0.11712240460216998,-0.17843246721997855,0.23572160375863313
1761475857978398500,0.4863984375,-0.11827099011540412,-0.34761896718889473,0.3236701189877465
1761475857988375600,0.49637548828125,-0.016374796217679975,-0.3206586256794631,0.03889213204467669
1761475857998352600,0.5063525390625,0.12422083843052387,-0.2253783427901566,-0.18349548623058945
1761475858008329500,0.51632958984375,0.07202244915962219,-0.3929107919417321,0.1081757034254726
1761475858018306600,0.526306640625,0.07501637027859688,-0.41101416551768777,-0.043131632777955384
1761475858028283600,0.53628369140625,-0.030859833166003225,-0.304416515930742,-0.20888936387458815
1761475858038260500,0.546260498046875,-0.31860476188957687,-0.2645540227502584,-0.11126869187159463
1761475858048237600,0.556237548828125,-0.3687409579336643,-0.15517974805682896,-0.071342759799771
1761475858058214400,0.56621435546875,-0.37142332888543605,-0.0780024003520608,0.024139585000276565
1761475858068191500,0.57619140625,-0.3167927440315485,-0.09935060106813907,0.15040993983913212
1761475858078168300,0.586168212890625,-0.052069794455170626,-0.056944560884684324,0.2055558903366327
1761475858088145400,0.5961455078125,0.03156593560874462,-0.05229512764364481,0.431044342437759
1761475858098122500,0.60612255859375,0.016573533660173414,-0.009534136542677879,0.5010696994960308
1761475858108099600,0.616099609375,0.269314369019866,0.03763195764943957,0.7317149498384445
1761475858118077400,0.626077392578125,0.3095896807849407,0.08361234918832779,0.6189168381761759
1761475858128054500,0.636054443359375,0.30118191792368887,0.12269698986411094,0.4102317099031061
1761475858138031400,0.64603125,0.5551642777770758,0.17666034298092126,0.4557278615890071
1761475858148008700,0.6560087890625,0.8972294102311134,0.26193054237887264,0.6012315073492005
1761475858157985500,0.665985595703125,1.2166723765105008,0.28343159556910397,0.7719754293605685
1761475858167962600,0.675962646484375,1.5215157395511865,0.3270413124538958,0.987493764654547
1761475858177939500,0.685939453125,1.8732722449362278,0.4457429490715265,1.2105452719323337
1761475858187916500,0.69591650390625,2.315279514610767,0.4857419281132519,1.3282837626062334
1761475858197893600,0.7058935546875,2.6695634926468133,0.5081736862823367,1.2426193031936883
1761475858207870500,0.715870361328125,3.02075008918941,0.5232742247804999,1.144081333682686
1761475858217847600,0.72584765625,3.477917518594861,0.4530933118343353,0.9422234210811555
1761475858227824400,0.735824462890625,4.009859910738468,0.4138951277814805,0.67537471152246
1761475858237801500,0.745801513671875,4.412264068821072,0.40779681090638037,0.4181025528760627
1761475858247779600,0.755779541015625,4.680808622512221,0.38205329784080383,0.2365591505613178
1761475858257756400,0.76575634765625,4.749432661405206,0.3478175585009157,0.2598534803764894
1761475858267733500,0.7757333984375,4.53979797732234,0.38285058569833635,0.29925213717119764
1761475858277710600,0.785710693359375,4.005041696801781,0.6186886554434895,0.09066136351753958
1761475858287687400,0.7956875,3.215854143616557,0.8850929822355508,-0.265095216954872
1761475858297664800,0.805664794921875,2.606992762443423,0.9411099068813026,-0.5507860261602326
1761475858307641900,0.815641845703125,2.238128470391035,0.8685534969754517,-0.7378156048011034
1761475858317618700,0.82561865234375,2.0722516794919965,0.752895465837419,-0.8500285369865596
1761475858327595800,0.835595703125,1.8641876057267188,0.5015187584377825,-0.9119810622263699
1761475858337572600,0.845572509765625,1.266422788107395,0.1801934855431318,-0.8363364770468323
1761475858347549700,0.8555498046875,0.36642858933806416,-0.016288871499896048,-0.565575745143555
1761475858357526500,0.865526611328125,-0.6690986999928951,-0.15445187217369674,-0.3044159314088523
1761475858367503600,0.875503662109375,-1.621691685527563,-0.38272579027488823,-0.1399688810519874
1761475858377480700,0.885480712890625,-2.2640905946433545,-0.7650937070228159,-0.13908588767237962
1761475858387458600,0.89545849609375,-3.0907880865335464,-1.1384357290111482,-0.488199842659384
1761475858397435600,0.905435546875,-4.6817964645057915,-1.5536379938684404,-0.786573863555491
1761475858407412500,0.91541259765625,-6.741909962436557,-1.7775030094861983,-0.7033455452486872
1761475858417389600,0.9253896484375,-8.59901842355728,-1.7194770831055939,-0.5720704043924808
1761475858427366700,0.93536669921875,-9.445894195601344,-1.6544484383560716,0.026336400924809277
1761475858437343500,0.945343505859375,-9.270612447497248,-1.7877089078105985,0.6235213362969457
1761475858447320600,0.955320556640625,-8.350436461442708,-2.3313372077032923,0.9561266395535319
1761475858457297700,0.965297607421875,-7.126838669583201,-2.778465473653376,1.1084778131209314
1761475858467274800,0.975274658203125,-6.57476183642745,-2.8392484436571594,0.7872705405827611
1761475858477251600,0.98525146484375,-7.5474927701056,-2.523982178540528,0.21663113710777832
1761475858487228700,0.995228759765625,-9.76794822116196,-1.8997165997475385,-0.22946888177311048
1761475858497205800,1.005205810546875,-11.91198094227314,-1.5729109957456588,-0.20997102163145318
1761475858507182600,1.0151826171875,-12.413381481158734,-1.3738570346489547,0.1928478364655748
1761475858517159700,1.02515966796875,-10.966603294944763,-1.4612611773356794,0.9426725530881435
1761475858527137500,1.035137451171875,-8.878862954419851,-1.5784908417046069,1.5676022218130528
1761475858537114600,1.045114501953125,-7.308403443479538,-1.2707485423520206,1.5566251929856836
1761475858547091700,1.055091796875,-6.520017854326963,-0.818480283164978,1.3153906710244714
1761475858557068500,1.065068603515625,-6.0990077799737445,-0.24097616328597068,1.1923059239517897
1761475858567045600,1.075045654296875,-5.35816252515316,0.3810051039621234,1.4486052555106579
1761475858577022500,1.0850224609375,-4.167559240400791,0.8154653192579746,1.9036735206797717
1761475858586999600,1.09499951171875,-2.524007605242729,1.2166530872881411,2.013925893381983
1761475858596976600,1.1049765625,-0.37935178379714485,1.6157736936554312,1.667235293084383
1761475858606953700,1.11495361328125,1.9409949510753153,1.6828654084146022,1.150982272177562
1761475858616930800,1.124930908203125,4.139606234592199,1.595629900293052,0.21501436782721428
1761475858626907600,1.13490771484375,6.0417737346231934,1.4119582172453402,-0.8522078537870198
1761475858636884700,1.144884765625,7.379804545870423,1.252612581680715,-1.2861039323940873
1761475858646861600,1.154861572265625,8.052001211878657,1.4721134107396006,-1.1761700510565192
1761475858656839700,1.164839599609375,8.139293126362562,1.966119163198769,-0.687831895904988
1761475858666816800,1.174816650390625,7.92621911548078,2.2962726163238285,0.07978278096280991
1761475858676793600,1.184793701171875,7.674239912143349,2.5405811389029025,0.572181025160104
1761475858686770700,1.194770751953125,7.318342069169878,2.612720492440462,0.6935656172513961
1761475858696747500,1.20474755859375,6.838284178042412,2.529201959015429,0.8117455680824816
1761475858706724600,1.214724609375,6.524248039242625,2.3808533721528944,0.9092870739020407
1761475858716701700,1.22470166015625,6.486296201989054,2.1075860277235505,0.8124983592111616
1761475858726678500,1.234678466796875,6.68944093953073,1.7071511238873003,0.5153258595919237
1761475858736655600,1.244655517578125,7.010162839704751,1.2463221032343803,0.1159363731553778
1761475858746632400,1.254632568359375,7.315500708264112,0.7602503586448729,-0.17960408654892815
1761475858756609800,1.26460986328125,7.2985524960726496,0.24496757100969552,-0.10130993670867755
1761475858766586600,1.274586669921875,7.209585926374793,-0.17514190124198795,0.10454586815629154
1761475858776563700,1.284563720703125,7.009159215620159,-0.28856647423952814,0.340522323458828
1761475858786540800,1.294540771484375,6.542619562235474,-0.0514404105104506,0.5430084144286811
1761475858796518700,1.3045185546875,5.94582505095303,0.11720482218861579,0.6286406520720571
1761475858806495700,1.314495849609375,5.598078950253129,0.07544599386751652,0.5382015986688434
1761475858816472600,1.32447265625,5.5586693154066795,0.23664003377780315,0.3642776218492538
1761475858826449700,1.33444970703125,5.732019218665361,0.4827193654216826,0.21128363859998062
1761475858836426800,1.3444267578125,6.011164076825976,0.672319707866013,0.04331453333050012
1761475858846403600,1.354403564453125,6.331082259401678,0.8108683468565344,-0.2159207238161005
1761475858856380700,1.364380615234375,6.570069879218935,0.9214555044710636,-0.6979575686000287
1761475858866357500,1.374357421875,6.376387966549396,0.9729683956958353,-0.8493961573671549
1761475858876334600,1.38433447265625,5.3672378120124336,1.1016140648312867,-0.4122226645246148
1761475858886311400,1.3943115234375,3.785729083791375,1.3194941608205437,-0.16003551752492784
1761475858896288500,1.40428857421875,2.0595751532703637,1.428499309940636,-0.5714468656666577
1761475858906265900,1.414265869140625,-0.17172200979590416,1.0889264326937496,-1.0944837745599447
1761475858916242700,1.42424267578125,-3.0938012968748807,-0.07821633536368608,-0.6826540548756719
1761475858926219800,1.4342197265625,-5.633094149532914,-0.9942476228289305,-0.44957076373137533
1761475858936197600,1.44419775390625,-6.985673126092553,-0.6531319000542164,-1.4238390630446374
1761475858946174700,1.4541748046875,-8.552763452860713,-0.17647621858566997,-2.179173300336301
1761475858956151800,1.46415185546875,-11.84135082425475,-0.6091884211704135,-1.6548618414625524
1761475858966128600,1.474128662109375,-16.227335373437402,-3.094785047215223,1.0914172996614129
1761475858976105700,1.484105712890625,-17.6622384129405,-2.6074305693387982,0.6074974724087864
1761475858986082600,1.49408251953125,-15.389445456403493,0.4054565313905477,0.46704826049394904
1761475858996059600,1.5040595703125,-11.859715332984923,1.5004840574383735,2.7208541194230316
1761475859006036500,1.514036376953125,-9.993680638086795,1.1890469952210783,3.979570278675854
1761475859016013600,1.524013671875,-9.809972422420978,-0.4821256373122334,4.902804483257234
1761475859025990700,1.53399072265625,-9.40710707656741,-2.8569918978795408,5.552482151204347
1761475859035967500,1.543967529296875,-8.511914140599966,-4.655150157381594,5.618776870366931
1761475859045944600,1.553944580078125,-6.375651468968391,-5.068744694781303,4.275705142343044
1761475859055921700,1.563921630859375,-3.0303654742747543,-4.260569532531499,2.205345267947018
1761475859065898800,1.573898681640625,-0.5417039077013731,-3.1437621363520623,0.5101314692866057
1761475859075876600,1.583876708984375,-0.2390969254106283,-2.1290435340330003,-1.4080615020677447
1761475859085853700,1.593853759765625,-0.9308984555989503,-1.1175275271475313,-3.2481554077625274
1761475859095830800,1.603830810546875,-0.9514040680110454,0.08346504967212677,-4.095678245538473
1761475859105807600,1.6138076171875,-0.8083347367256879,0.934560192976892,-3.892539353215694
1761475859115784700,1.62378466796875,-0.6600473785310983,1.5413357077866792,-3.256930250370502
1761475859125761800,1.63376171875,-0.1885246760368347,2.170562416118383,-2.5139865619659423
1761475859135738600,1.643738525390625,0.48407823268473144,2.6735183677524326,-1.8236675254203378
1761475859145715700,1.6537158203125,1.047236431825161,2.7398458201408387,-0.962291811119765
1761475859155692500,1.663692626953125,1.3230243807733058,2.1206804870963096,0.19170345220342278
1761475859165669600,1.673669677734375,1.5774194130808115,1.1818251542087643,1.3986293645948171
1761475859175646500,1.683646484375,2.5565719042390582,0.4860259326864034,1.9726248918309806
1761475859185623600,1.69362353515625,4.040658369106054,0.3186797998871654,1.8088854052215813
1761475859195600600,1.7036005859375,5.462316142588853,-0.0054196138959378,1.0344758075166494
1761475859205577700,1.71357763671875,6.939624491623044,-0.6852904677938669,0.1959269881825894
1761475859215554800,1.723554931640625,8.163179028862714,-1.3360893217906356,-0.40032055674158035
1761475859225532400,1.733532470703125,8.747479969274996,-1.6186729222282767,-0.734738608508557
1761475859235509800,1.743509765625,8.71274709406793,-1.7023771874837577,-0.7263669398739934
1761475859245486800,1.75348681640625,8.5187302503556,-1.4837866051375865,-0.478686127850227
1761475859255463700,1.763463623046875,8.166699604204297,-1.1715466290395706,0.12629441156787796
1761475859265440800,1.773440673828125,7.607775681632757,-0.8301364533629267,0.8066865311272442
1761475859275417600,1.78341748046875,7.051314934304356,-0.3459939232703298,1.1354099514491856
1761475859285394400,1.79339453125,6.79753715711236,0.2546299370419234,1.0920714527212083
1761475859295371500,1.80337158203125,6.808896755516528,0.8621873960096389,0.9339596698004752
1761475859305348400,1.813348388671875,6.943695686584711,1.3132827389597892,0.7812919776298105
1761475859315325400,1.823325439453125,7.146542902484536,1.749093053690344,0.5871067185480148
1761475859325302500,1.833302490234375,7.357382870703935,2.226575102980435,0.3015867358649149
1761475859335279400,1.843279296875,7.4182175708949565,2.415847528644651,-0.09294899039752781
1761475859345256400,1.85325634765625,7.2722805752187965,2.3176944667980073,-0.5534187492839991
1761475859355233500,1.863233642578125,7.213164953905344,2.2332510736130176,-0.9998401090737432
1761475859365211400,1.87321142578125,6.95647158152759,2.1016236121878027,-1.2031215516723692
1761475859375188500,1.8831884765625,5.832705452251434,1.8849290727213024,-1.0833483403004704
1761475859385165600,1.89316552734375,3.9251170962154864,1.4406114802777765,-0.7056264957927167
1761475859395142700,1.903142578125,1.6942326056033372,0.9685722065635025,-0.7781364362083375
1761475859405119500,1.913119384765625,-0.04362462219297886,1.134629322465509,-1.0643556166693569
1761475859415096600,1.9230966796875,-0.8846399777710438,0.945215880895406,-0.9571449497506022
1761475859425073700,1.93307373046875,-0.7495411869734525,-0.20167057333588598,-1.2152557877108454
1761475859435050500,1.943050537109375,-0.723055331107974,-1.7027701323240994,-2.0582906664177774
1761475859445027600,1.953027587890625,-2.886508792003989,-2.893239853824675,-2.2360450882457195
1761475859455004400,1.96300439453125,-8.193230468255281,-3.8779175381451845,-0.6756383308947086
1761475859464981500,1.9729814453125,-13.092350417780876,-5.778781554362178,2.112424992187321
1761475859474958300,1.982958251953125,-13.838703037846088,-6.604599340808392,2.801466410012543
1761475859484935400,1.992935302734375,-11.489355249416828,-5.621777221226692,1.4199474624335764
1761475859494912500,2.00291259765625,-9.822149182426928,-4.905474286988377,0.7247265522558242
1761475859504890400,2.012890380859375,-10.71475736259818,-4.468951586204767,0.7484770648732781
1761475859514867500,2.022867431640625,-13.081546115171909,-3.4850019238978622,1.398272367850691
1761475859524844300,2.03284423828125,-15.255404065704345,-3.014465017570555,2.5885864603981372
1761475859534821600,2.042821533203125,-16.091167492103576,-2.98614493201524,2.8342285696685314
1761475859544798700,2.052798828125,-15.018946256625652,-2.9774250344648956,2.2013825017958877
1761475859554775600,2.062775634765625,-12.394462845677136,-2.6968822922050952,0.9764910899292677
1761475859564752600,2.072752685546875,-9.71114438392222,-2.7176684751242397,0.38074137499202043
1761475859574729500,2.0827294921875,-7.898649556031823,-2.6110797394961116,0.3135242072222754
1761475859584706600,2.09270654296875,-6.483110557690263,-1.8362378147885203,0.41743415209520607
1761475859594683400,2.102683349609375,-4.529841815975308,-0.9847741304323077,0.7889329208370298
1761475859604660500,2.112660400390625,-2.179442472666502,-0.1799307429537177,1.0802220249734817
1761475859614637600,2.122637451171875,-0.0022708675414323805,0.4696572008833289,1.2782190243631602
1761475859624614400,2.132614501953125,1.8083049749851225,0.8736027431890367,1.1710767465054988
1761475859634591500,2.142591552734375,3.3564088617324828,1.1765174762547015,0.6359037018775939
1761475859644568300,2.152568359375,4.441447493207455,1.3400541337683796,0.042853747418336564
1761475859654546400,2.16254638671875,4.978113991263508,1.5789118435956537,-0.5258703056883066
1761475859664523500,2.1725234375,5.246665559217334,1.652773637011647,-0.811881907813251
1761475859674500400,2.182500244140625,5.464357877549529,1.335677087727934,-0.3692888010747731
1761475859684477400,2.1924775390625,5.720692938008904,0.9008885172605514,0.31353439982272685
1761475859694454500,2.20245458984375,6.079174952256679,0.41926030807644127,0.5411104718528688
1761475859704431600,2.212431640625,6.6427195203661915,-0.13568302042633296,0.3189870392054319
1761475859714408400,2.222408447265625,7.423069687101244,-0.6353985288344324,-0.04873016517106443
1761475859724385500,2.232385498046875,8.004237005662917,-1.0282210579708218,-0.3847074290787801
1761475859734362600,2.242362548828125,8.034996301063895,-1.3142756955198942,-0.65187788140513
1761475859744339500,2.25233935546875,7.867256638902425,-1.48066102046296,-0.8613946381967514
1761475859754316500,2.262316650390625,8.014182061094045,-1.2441253238424659,-0.8785139691714197
1761475859764293400,2.27229345703125,8.266859183567762,-0.7717474658235907,-0.5912285111857578
1761475859774270500,2.2822705078125,8.32260562070906,-0.3024707886904478,-0.14342355155050754
1761475859784247300,2.292247314453125,8.384812193775177,0.22869959616735577,0.08302680438533425
1761475859794224400,2.302224365234375,8.434554422065615,0.767193601911515,0.06949928735755384
1761475859804202500,2.312202392578125,8.49179957333207,1.179857872723788,-0.003190978061035275
1761475859814179300,2.322179443359375,8.586648186805844,1.5678471364848314,-0.13941358525678516
1761475859824156400,2.332156494140625,8.784683618509769,2.016620539293438,-0.24940811074040828
1761475859834133500,2.342133544921875,8.996164222720266,2.37976689209044,-0.4198443915747106
1761475859844110600,2.352110595703125,8.971756342172622,2.5211259123265743,-0.6341066623929887
1761475859854087700,2.362087646484375,8.707199396812916,2.645264333170652,-0.5033901783328503
1761475859864064500,2.372064453125,7.990825735425949,2.8459628466039892,-0.26660350262597204
1761475859874041600,2.38204150390625,6.7291901815950865,3.04277604303658,-0.18625855773575603
1761475859884018400,2.392018310546875,5.660459710842371,3.133048142375052,-0.2866345563288778
1761475859893995500,2.40199560546875,5.079178410512209,3.126570470793545,-0.5691604352299123
1761475859903972400,2.411972412109375,4.615974039030075,2.605100665086508,-0.5004411923341453
1761475859913949400,2.421949462890625,3.8219758706927296,1.4228034363865851,-0.16411394594497977
1761475859923926500,2.431926513671875,2.9280408258318897,0.0817404178366065,-0.22250088765770196
1761475859933903400,2.4419033203125,1.6778630700826644,-0.8852975648969411,-0.5707617329467087
1761475859943880400,2.45188037109375,-1.0510907691657543,-2.0175927453264593,-0.4815382658783346
1761475859953857500,2.461857421875,-6.093326811727881,-3.299972981022298,0.23830993975140152
1761475859963835400,2.47183544921875,-11.151582261198758,-4.288255411836505,1.430668178412318
1761475859973812500,2.4818125,-13.460834186083078,-5.3251791239619255,2.5628750960364934
1761475859983789600,2.49178955078125,-13.351791627562045,-5.718700302886963,2.6761387793838978
1761475859993766700,2.5017666015625,-12.930393430674075,-4.865365563961864,2.1528835515648126
1761475860003743500,2.511743408203125,-14.030746535658835,-4.451487825706601,2.10192697904855
1761475860013720600,2.521720458984375,-16.152336538815497,-4.100538837312162,1.969303492323309
1761475860023697700,2.53169775390625,-18.230740895718334,-2.881018670155108,1.2975336734250187
1761475860033674500,2.541674560546875,-20.276239008319376,-1.572956880713999,0.9266727276626974
1761475860043651600,2.551651611328125,-20.781120959579944,-0.7077879116103053,1.3584756333827972
1761475860053628400,2.56162841796875,-18.86624712271094,-0.627328181234002,2.066001825316995
1761475860063605500,2.57160546875,-15.821806945854425,-1.1848556810110806,2.3553166337057947
1761475860073582300,2.581582275390625,-13.00723935446739,-1.7539944158658385,1.9464004633806644
1761475860083559400,2.591559326171875,-10.448430484956502,-2.0651564605340362,0.9581336685270071
1761475860093536500,2.60153662109375,-7.924945442283153,-1.9887197020635008,0.026018713277764616
1761475860103513600,2.611513671875,-5.477155399802327,-1.3860270726531743,-0.48741124956496057
1761475860113491500,2.621491455078125,-3.1058290037989615,-0.7385469147503375,-0.46392154330816116
1761475860123468300,2.63146826171875,-1.1147919647037983,-0.28568112806156276,-0.2688942621779628
1761475860133445400,2.6414453125,0.5967284603089094,0.10594137763530015,-0.29504909599078816
1761475860143422700,2.651422607421875,2.1507781037181615,0.5304651591978967,-0.3905280980562791
1761475860153399600,2.661399658203125,3.6893729883641004,1.054051810928434,-0.44841753857564176
1761475860163376600,2.671376708984375,4.990889886206388,1.6417821412675082,-0.47112931926250456
1761475860173353500,2.681353515625,5.88989390489459,2.1630298286564646,-0.4310818979691714
1761475860183330600,2.69133056640625,6.204549636897444,1.6651126018419862,0.4025866019774228
1761475860193307400,2.701307373046875,6.607652298638224,1.0730855972222983,0.9046734426267444
1761475860203284500,2.711284423828125,7.277511461609602,0.7724339867830275,1.0077932600352912
1761475860213261600,2.721261474609375,7.844878802877664,0.12670344902649522,0.9393490346886217
1761475860223238400,2.73123828125,8.360147708117962,-0.4178717763274908,0.5333112693440168
1761475860233215500,2.741215576171875,8.77811593055725,-0.6929695510543883,-0.10900872931666672
1761475860243192300,2.7511923828125,8.957185965028405,-1.0879276309147476,-0.39025823160633444
1761475860253169700,2.761169677734375,9.20723799969554,-1.345806998206675,-0.42888468018583953
1761475860263147500,2.7711474609375,9.477337966135144,-1.2567683861859142,-0.1965885938964784
1761475860273124400,2.781124267578125,9.65633025919497,-0.9696065180473029,0.22416900353301314
1761475860283101400,2.791101318359375,9.823794027024507,-0.5478048549249768,0.5789043420657515
1761475860293078800,2.801078857421875,10.030146620696783,-0.10673661966621875,0.8852497802324593
1761475860303055600,2.8110556640625,10.25413891595602,0.31851401486620307,1.0112354363784193
1761475860313032700,2.82103271484375,10.460488002496957,0.7436755098104476,0.8772462142579257
1761475860323009800,2.831009765625,10.55229885571003,1.0376131556943058,0.5914532233197242
1761475860332986600,2.840986572265625,10.434272195744514,1.2901869639240204,0.2834722381067462
1761475860342963700,2.850963623046875,10.204842677867411,1.443446557573229,-0.08054689720310271
1761475860352940500,2.8609404296875,9.892284794926642,1.5338450597703457,-0.5062532396137714
1761475860362917600,2.870917724609375,9.211351864755153,1.5605981882698834,-0.5592413179576396
1761475860372894500,2.88089453125,7.936300949034094,1.680426490829885,-0.21784812994841485
1761475860382871600,2.89087158203125,6.304760654187202,1.8692536569446325,-0.20731424177866428
1761475860392848600,2.9008486328125,4.723115147843957,1.9755460399746894,-0.572261433452554
1761475860402825500,2.910825439453125,2.994632482114434,1.799764233393967,-0.9827179285548627
1761475860412803600,2.920803466796875,0.9389403077572583,1.5194029851809143,-1.6897884856760501
1761475860422780400,2.930780517578125,-1.6819921327114105,0.9613122985631227,-2.252610730860382
1761475860432757500,2.940757568359375,-4.970286658638716,0.02256006072387099,-2.16043177498728
1761475860442734600,2.950734619140625,-8.22633720356524,-0.144366385358572,-1.8296143049955367
1761475860452711700,2.960711669921875,-10.157830751323699,0.4262748630136251,-1.7166336763732135
1761475860462688800,2.970688720703125,-11.361270136773586,-0.3283639393597841,-1.0458621477972716
1761475860472665600,2.98066552734375,-12.38716684345007,-2.2539555695980784,-0.014470716162025927
1761475860482642700,2.990642578125,-12.943429437857866,-4.786959258984029,1.291830931738764
1761475860492619500,3.00061962890625,-12.060959205341339,-6.481940929388999,2.1828940744251013
1761475860502596600,3.0105966796875,-10.262198303771019,-4.360618637257814,1.2745787681646645
1761475860512573700,3.02057373046875,-9.290314342311024,-3.1089567804306744,2.0765847402602433
1761475860522550500,3.030550537109375,-8.883572447285056,-4.374234782417118,3.537502510985732
1761475860532527600,3.040527587890625,-8.695170520845055,-4.524057387354969,3.419169561550021
1761475860542504400,3.05050439453125,-8.902795034149289,-4.065287783449888,2.9338381139338017
1761475860552481500,3.0604814453125,-9.537413372391462,-3.854725170867145,2.633889829458296
1761475860562458600,3.070458740234375,-10.089557425564527,-3.169341106505692,1.53801445440948
1761475860572436500,3.0804365234375,-10.359504831790924,-2.5438480317443606,0.22277882781624792
1761475860582413600,3.09041357421875,-10.161499210703372,-2.322247307796776,-0.44865025135297326
1761475860592390700,3.100390625,-8.678456117409468,-1.8442828818172214,-0.814934865643084
1761475860602367700,3.11036767578125,-6.133387019437551,-1.0097203556403518,-0.8851922778915613
1761475860612344800,3.1203447265625,-3.269865719789266,-0.04592793069928884,-0.7970297911182046
1761475860622321700,3.13032177734375,-0.6931488531440496,0.5834285414919257,-0.7229649494107813
1761475860632298800,3.140298828125,1.4203542896687984,0.7672218050926923,-0.8211961179949343
1761475860642275600,3.150275634765625,2.9147108041375875,0.8098401728525757,-1.1219677746172994
1761475860652252700,3.160252685546875,3.9119296978622673,0.9420210303768515,-1.3458596051767469
1761475860662229500,3.1702294921875,4.771396071410179,1.3278037240043281,-1.3973250039979814
1761475860672206600,3.18020654296875,5.406618220764399,1.5710264971733092,-1.0592799939054995
1761475860682183700,3.19018359375,5.917809501302242,1.5060818774454294,-0.3361647493038326
1761475860692160500,3.200160400390625,6.528564148876071,1.1605658738851548,0.6015820378199219
1761475860702137600,3.2101376953125,7.258728435206413,0.6453853775806725,1.2959735845014453
1761475860712114700,3.22011474609375,7.908746587154269,0.1350454531751573,1.2999512559607624
1761475860722092500,3.230092529296875,8.209046461546421,-0.2796007852345705,0.7657542167581617
1761475860732069600,3.240069580078125,8.143701005932689,-0.4882680855900049,0.09113412299528717
1761475860742046700,3.250046630859375,7.672341385045647,-0.7592050873756409,-0.3569742400333285
1761475860752023800,3.26002392578125,6.813236830547452,-1.1258775684721767,-0.593361029702425
1761475860762000600,3.270000732421875,5.870317097765207,-1.4078773776724933,-0.6222188753962516
1761475860771977700,3.279977783203125,5.428817193090915,-1.386839704210311,-0.47118338753730055
1761475860781954600,3.28995458984375,5.6743052808433765,-0.9966380250968039,-0.21457690799171103
1761475860791931600,3.299931640625,6.454570691904426,-0.3799494574293494,0.12637556877899914
1761475860801908700,3.30990869140625,7.168302898871898,0.13646847171559928,0.4358224070271477
1761475860811885600,3.319885498046875,7.623589921358227,0.5878584867633879,0.6994276411525905
1761475860821862700,3.329862548828125,8.013601630857586,1.040324752740562,0.6996836617402732
1761475860831839500,3.339839599609375,8.286711300507188,1.3863818774402141,0.4690031574213877
1761475860841816600,3.349816650390625,7.932538381630182,1.4815258205987512,0.38168866577949373
1761475860851793400,3.35979345703125,7.325995214271545,1.5030321344859898,0.24705453335158525
1761475860861770800,3.369770751953125,6.573315144750476,1.621913803845644,0.08391743308212607
1761475860871747800,3.379747802734375,5.2780064538985485,1.7146550697766243,0.09602953035403042
1761475860881724700,3.389724609375,3.829047416514158,1.844979631909728,0.12317238882351667
1761475860891702500,3.39970263671875,2.6926106062352657,1.9269516665451227,0.09951123498994857
1761475860901679600,3.4096796875,1.9648054502516983,1.670317038617283,0.14934362578187138
1761475860911656700,3.41965673828125,1.0266074852943419,1.028405913018435,-0.04228884354457259
1761475860921633800,3.4296337890625,-0.5079904386699199,-0.03368614263311028,-0.5145121685888618
1761475860931610600,3.439610595703125,-1.6252566845327614,-0.8256815928459167,-1.4154229707464574
1761475860941587700,3.449587646484375,-2.220693935987353,-0.8895175206795334,-2.6266438038527964
1761475860951564500,3.459564453125,-4.098722435539961,-1.4857190345048903,-2.5101573590666053
1761475860961541600,3.469541748046875,-7.650301987195014,-2.334862459219992,-0.8559160606551914
1761475860971518500,3.4795185546875,-10.982658942210673,-2.850818177680671,1.6989467746436595
1761475860981495600,3.48949560546875,-12.129206812137365,-2.7887270476877686,3.740588211816549
1761475860991472600,3.49947265625,-11.151038655841349,-1.4636463189065456,3.760985979939997
1761475861001449500,3.509449462890625,-9.846344881528616,-0.6809945972308517,3.5912025369912386
1761475861011426600,3.519426513671875,-9.648950085815788,-1.2007105450078843,3.43547187705338
1761475861021403600,3.529403564453125,-10.089065258133411,-1.7085034152790903,2.836465534940362
1761475861031380700,3.539380615234375,-10.478677154660224,-1.8609344491496682,2.275487164057046
1761475861041357600,3.549357666015625,-10.551744728958607,-1.8742624250173567,1.6653019869342445
1761475861051335700,3.559335693359375,-10.910889006507396,-1.6429150908201933,1.0355492819670586
1761475861061312800,3.569312744140625,-11.588615249592065,-1.341701900975406,0.4856611910272389
1761475861071289600,3.57928955078125,-11.58131223310232,-1.26313134534657,0.24004575056806204
1761475861081266700,3.5892666015625,-10.157028787291049,-1.2125512049272655,0.0625159678088501
1761475861091243800,3.599243896484375,-7.95432526602447,-0.8220677862629294,-0.44634296079128977
1761475861101220600,3.609220703125,-5.506036626371741,-0.24462036500722167,-1.0223649523537606
1761475861111197700,3.61919775390625,-3.1174042907804247,0.18836247121244667,-1.520561799827218
1761475861121174500,3.629174560546875,-0.7752771012544631,0.6288216346621514,-1.8609927552081644
1761475861131151600,3.639151611328125,1.1067968742966652,1.0886293494433164,-1.9653931870117782
1761475861141128400,3.64912841796875,2.0722505104482174,1.3784108985610306,-1.7533537798747418
1761475861151105500,3.65910546875,2.294755197498202,1.7087733182616531,-1.2818350229032336
1761475861161082600,3.66908251953125,2.127440482750535,1.9357560275085268,-0.6722292531035841
1761475861171059700,3.679059814453125,2.0664052915513516,1.739922782023996,-0.08413261933592148
1761475861181036800,3.689036865234375,2.5869302176237103,1.273651862578094,0.08698761604139581
1761475861191013600,3.699013671875,3.80457465403676,0.7150199086904525,-0.006693889881763607
1761475861200990700,3.70899072265625,5.523555331927538,0.3165532361872494,-0.1145929591897875
1761475861210968800,3.71896875,7.256131404450535,0.0024229893632233142,0.003844510066322982
1761475861220945700,3.728945556640625,8.383480652910471,-0.4977824945189058,0.397093849780038
1761475861230922800,3.7389228515625,8.864227110823988,-1.0329567081905902,0.7654509229626506
1761475861240899600,3.748899658203125,8.8858766325742,-1.4407669631004332,0.9500207238938659
1761475861250876700,3.758876708984375,8.66103151987791,-1.509509952197969,1.08000377911292
1761475861260853500,3.768853515625,8.542372991749644,-1.2579825842812657,1.1636072874076664
1761475861270830600,3.77883056640625,8.443905018734931,-0.9951045319192111,1.2424474537581205
1761475861280807700,3.7888076171875,8.26134363501668,-0.764070647585392,1.1886430175300686
1761475861290784800,3.79878466796875,8.106853330528736,-0.40208530139178034,0.8812951973877846
1761475861300761600,3.80876171875,7.995657977887988,-0.02745864642038941,0.4708865965478122
1761475861310738700,3.81873876953125,7.91904001763165,0.22931714354380964,0.15645068130809814
1761475861320716000,3.828716064453125,7.986240161201358,0.42385304269418117,0.008292319788038731
1761475861330692900,3.83869287109375,8.352740062209964,0.5328374412871897,-0.13119316166117787
1761475861340670000,3.848669921875,8.611666308206319,0.5712342458292842,-0.39923104447182267
1761475861350646800,3.858646728515625,8.56043354909718,0.6857917683795094,-0.669147872896865
1761475861360623900,3.868623779296875,8.031305045330525,0.9670021807678043,-0.754808898243308
1761475861370600700,3.8786005859375,7.164835515022277,1.1908308098979294,-0.5917309808151796
1761475861380578800,3.888578857421875,5.618429664364457,1.0379378576040268,-0.12367584483362734
1761475861390556000,3.898555908203125,3.7779134416043756,0.9197700356021523,0.485999483070895
1761475861400532700,3.90853271484375,2.058073516535759,0.5211841206334531,0.9037140960752964
1761475861410509800,3.918509765625,1.1744003379702568,-0.46974809403717516,1.1359738689422607
1761475861420486700,3.928486572265625,0.8642150293797254,-1.5944610026441512,0.6602069530069827
1761475861430463700,3.938463623046875,0.5276496633857488,-1.954731507743895,-1.0994032569140195
1761475861440440800,3.94844091796875,-0.9441004669994115,-2.3160230264544484,-2.499055827076733
1761475861450417700,3.958417724609375,-4.879514500823617,-3.5910961540073156,-1.413398479181528
1761475861460394800,3.968394775390625,-10.234739803481101,-3.469183884780109,0.7581424265801906
1761475861470371800,3.978371826171875,-14.325741873902082,-2.6313170563608406,3.503536820758879
1761475861480349000,3.988348876953125,-14.841203671365976,-1.891407767216116,4.938129186877608
1761475861490325800,3.99832568359375,-12.955641269177198,0.1376370771035552,4.002141006924211
1761475861500302800,4.008302734375,-11.606074918437004,0.5785961528994142,3.315576208345592
1761475861510280000,4.018280029296875,-10.359289727735518,-0.07277399817928672,1.7347855652660131
1761475861520256800,4.0282568359375,-9.684004448062181,-0.34690292787402865,-0.5404892712146043
1761475861530233900,4.03823388671875,-10.964786600911617,-0.4827693420432508,-1.8725263950049875
1761475861540210700,4.048210693359375,-13.11545072286129,-0.8447291154041886,-1.6768321195997298
1761475861550187800,4.058187744140625,-14.433033204841612,-1.915995242114365,-1.132819496564567
1761475861560164600,4.06816455078125,-13.761737871587275,-2.8193863898456093,-1.1872573353253304
1761475861570141700,4.0781416015625,-12.29618951845169,-2.8824311673015353,-1.410544404924661
1761475861580119800,4.088119873046875,-11.328614067840576,-2.314354362589866,-1.2070201665461062
1761475861590096600,4.0980966796875,-9.649295538252591,-1.6634166115790605,-0.8483994014147669
1761475861600073700,4.10807373046875,-6.825742676377296,-1.1928417843941599,-0.8394744097463787
1761475861610050600,4.118050537109375,-3.572273380115628,-0.7644150771088898,-1.2370767205052078
1761475861620028000,4.12802783203125,-0.5399895049989223,-0.4502054083731025,-1.6120235473416744
1761475861630005000,4.1380048828125,2.208957905486226,0.06358166081160306,-1.4088209421329199
1761475861639981800,4.14798193359375,4.306384942767024,0.8206882415380329,-0.9177928903102874
1761475861649959000,4.157958984375,5.247144867166877,1.177437075317651,-0.08581385042113251
1761475861659935700,4.167935791015625,5.311982373258471,0.973258391618356,1.006966234626621
1761475861669912800,4.177912841796875,5.277753355920314,0.48683476485125715,1.8915970061779022
1761475861679889700,4.1878896484375,5.512990683293342,-0.2431932548135519,2.234108859486133
1761475861689866800,4.19786669921875,6.091908177101612,-0.9217586521361023,1.534136005540937
1761475861699843800,4.20784375,6.889815627837181,-1.4649977335155009,0.14342888531275091
1761475861709820700,4.217820556640625,7.6539757072716945,-1.9592616985194384,-1.0743928804285823
1761475861719797800,4.2277978515625,8.077997822922468,-2.332100301030278,-1.7267570109806953
1761475861729774600,4.237774658203125,8.23045574479997,-2.518109194853902,-1.7586681067652998
1761475861739752000,4.247751953125,8.295002743512391,-2.3567031196281314,-1.2328791226848959
1761475861749728800,4.257728759765625,8.359135316205025,-1.8931664474517107,-0.5547762648401782
1761475861759706600,4.26770654296875,8.264414713025092,-1.4565090143725274,0.11108257644865661
1761475861769683700,4.27768359375,8.1762606287539,-1.0776451602227985,0.5988175780752674
1761475861779660800,4.287660888671875,8.200714686530828,-0.7949052732449025,0.9046832333683967
1761475861789638000,4.297637939453125,8.220209076073765,-0.5830185724515468,0.8717745048485696
1761475861799615000,4.307614990234375,8.24065974342823,-0.33939225998297334,0.45632177236154675
1761475861809591800,4.317591796875,8.319069263276457,-0.06280205474123358,-0.2121708514969796
1761475861819569000,4.32756884765625,8.159473744603991,0.12344364351294934,-0.7135843229293822
1761475861829545700,4.337545654296875,7.706404982689023,0.17026976516097783,-0.9002398440934717
1761475861839522800,4.347522705078125,7.053707382398843,0.41769941543526945,-0.9777169784624129
1761475861849499600,4.357499755859375,6.386160588023066,1.0751374151855706,-1.202006576167792
1761475861859476700,4.367476806640625,5.769030560198426,1.6727712999016044,-1.1387300357826053
1761475861869453800,4.377453857421875,4.841856093558669,2.1819715527527035,-1.1707286637201904
1761475861879431700,4.387431640625,3.45223771841526,2.5332924431994557,-1.2624419017776847
1761475861889408800,4.39740869140625,2.10477097030282,2.1664280927926303,-1.4987322453349827
1761475861899385600,4.407385498046875,0.4771551554232836,1.0017411934547125,-1.4200233041487633
1761475861909362700,4.41736279296875,-1.5518512565821407,-0.07809183220118283,-1.5413625957936048
1761475861919339800,4.42733984375,-4.1186242368400094,0.3346564636327326,-2.5188386781722305
1761475861929316900,4.43731689453125,-7.937089469063282,-0.12339300930425524,-1.2137909758552907
1761475861939294000,4.4472939453125,-11.504712977546452,-1.6083172401696442,1.6323291071370243
1761475861949270800,4.457270751953125,-12.487219455307722,-3.2641061333492396,3.6123236509531735
1761475861959248000,4.467247802734375,-10.49959134787321,-3.5439264065533873,2.0082344037421045
1761475861969224700,4.477224609375,-7.75713739106059,-1.6279758803635835,-0.8452351652301847
1761475861979201800,4.487201904296875,-6.988572354665398,-2.5397008489370343,-0.716506493986398
1761475861989179000,4.497178955078125,-9.356130338045954,-3.810244808627665,0.3271507641777396
1761475861999155700,4.50715576171875,-12.082988666319846,-3.11003726914376,1.3878668553009628
1761475862009132800,4.5171328125,-14.00198104442358,-2.8546672543242573,3.027240327991545
1761475862019109600,4.527109619140625,-15.864665259850025,-2.6329510873034594,3.3801825360298157
1761475862029086700,4.537086669921875,-16.342157684403656,-1.5944538422510026,2.050114812616259
1761475862039063800,4.547063720703125,-15.106432816898822,-1.0038603775657713,0.19479469621703027
1761475862049041000,4.557041015625,-14.268602521097659,-1.77551841154024,-1.4682529359191656
1761475862059018800,4.567018798828125,-13.06030225161314,-2.361643060248345,-2.470196520078182
1761475862068995800,4.576995849609375,-10.50360350612402,-2.2513285820953546,-2.4943822823077437
1761475862078973000,4.586972900390625,-7.105373856750131,-1.742778902107477,-1.6995435714930296
1761475862088949800,4.59694970703125,-3.5795775656491515,-0.9247558611907064,-0.7805922318626195
1761475862098926800,4.6069267578125,-0.36994507302641866,-0.14945070288553833,0.13765490502119063
1761475862108904000,4.616904052734375,2.159747592115402,0.5877164479441941,0.5893950486809015
1761475862118880800,4.626880859375,3.989277725958824,1.3680251136250794,0.03316474910750985
1761475862128857900,4.63685791015625,5.11496576320827,2.05249966192618,-0.7157106674335897
1761475862138834700,4.646834716796875,5.862050789201259,2.1028768271192906,-0.5953405130818485
1761475862148811800,4.656811767578125,6.884081468099355,1.5407625840738415,0.21519757890701294
1761475862158788600,4.66678857421875,8.316796057647466,0.9950148078091442,0.9233989666890352
1761475862168765700,4.676765625,9.951555314540862,0.6480816309273243,1.303473292607069
1761475862178742800,4.68674267578125,11.3396814052999,0.28629063826203344,1.2211885387606918
1761475862188719900,4.696719970703125,12.195455354070663,-0.27677403737604617,0.9014226241372525
1761475862198697000,4.706697021484375,12.47806233538389,-0.8324144082322716,0.43613772005401547
1761475862208673800,4.716673828125,12.278237682175636,-0.9923860667407512,0.05717274361737072
1761475862218651000,4.72665087890625,11.745716028839349,-0.7867498046442866,-0.007350874219462275
1761475862228629000,4.73662890625,10.853652623069285,-0.4516958661265671,0.19487806365154683
1761475862238605800,4.746605712890625,9.965967286252974,0.022401216900348662,0.5136641003921628
1761475862248583000,4.7565830078125,9.41805692512691,0.5958477319516241,0.8680969853796064
1761475862258559700,4.766559814453125,9.113450877973436,0.9896553266026079,1.046130516409874
1761475862268536800,4.776536865234375,8.861101672279835,1.293940178977698,0.9921236894775182
1761475862278514000,4.786513916015625,8.741103419980407,1.6020909130007028,0.6854412744414061
1761475862288490800,4.79649072265625,8.729475526028871,1.85047764480412,0.14670038126409052
1761475862298467800,4.8064677734375,8.927927137318253,2.220634168624133,-0.6412579954523593
1761475862308445000,4.81644482421875,8.914611144149303,2.60613146943897,-1.1937638676751405
1761475862318421800,4.826421875,8.132077203634381,2.8965456173717974,-1.1642356484390795
1761475862328398800,4.83639892578125,6.974864147308469,3.0391587293222546,-0.5221452207505702
1761475862338375700,4.846375732421875,6.359349153465033,2.9967428983971476,0.10490903891287744
1761475862348353000,4.85635302734375,6.083889705818891,2.6779706709861753,0.6911165435988456
1761475862358329900,4.866329833984375,5.722921719974279,2.4914666871219873,0.7485846169009804
1761475862368307000,4.876306884765625,4.552246540006995,1.7262807717710733,0.5344277061533182
1761475862378284000,4.886283935546875,2.1118349173396824,-0.16037527087330816,0.4742616259388625
1761475862388260900,4.8962607421875,-1.0748469078063965,-2.1678733231648804,0.23321064385101198
1761475862398238000,4.906238037109375,-4.5332653606832025,-2.7840590558767317,-0.3326445392884314
1761475862408215800,4.9162158203125,-8.543045776444673,-3.0128038063600657,-0.37694172698073086
1761475862418193000,4.92619287109375,-12.943484382915496,-3.8823724717274306,-0.06499090655501931
1761475862428170000,4.936169921875,-16.096346356046197,-5.440277913782,-0.041328985536471005
1761475862438146800,4.946146728515625,-18.35560879988074,-6.11233371001482,-1.119918075545877
1761475862448124000,4.9561240234375,-20.30871972068548,-4.836861938533187,-1.2766013600334525
1761475862458100700,4.966100830078125,-19.84442696944475,-2.726043797020614,-0.051268305346556006
1761475862468077800,4.976077880859375,-17.280861260795593,-1.2931973977863789,1.0522951765194535
1761475862478054700,4.9860546875,-16.12527200627923,-0.9119476714134216,1.101698382113874
1761475862488031700,4.99603173828125,-16.86502537420988,-1.3625164332062005,0.45446942249312994
1761475862498009000,5.006009033203125,-17.011756735134124,-1.6248633013010023,-0.19335416028620675
1761475862507986000,5.01598583984375,-15.496148758321999,-1.576607219915092,-0.4902759548136964
1761475862517963000,5.025962890625,-12.607837885332106,-1.7214961678430436,-0.8133696621529758
1761475862527939800,5.03593994140625,-9.180648098933696,-1.77735103379488,-1.6818344579316675
1761475862537917000,5.0459169921875,-5.56333087747693,-1.60019355494678,-2.9776427688688036
1761475862547893800,5.055893798828125,-1.8243910173892974,-1.027778867161274,-3.4868624570727347
1761475862557870800,5.065870849609375,1.4352835632532834,0.2886430466070771,-2.9480121852368115
1761475862567848000,5.075847900390625,3.5752889285445213,1.7748706151559948,-1.413300717895478
1761475862577824800,5.08582470703125,4.708353047519922,2.918064498479664,0.4928919459983706
1761475862587803000,5.095802978515625,5.36090451733768,4.073770949634909,1.4582799695678055
1761475862597780000,5.105780029296875,5.709486484339833,4.679003618916869,1.5149876529566944
1761475862607756800,5.1157568359375,5.707814751735329,4.238101680135727,0.9974144162967801
1761475862617734000,5.12573388671875,5.759094272595644,3.0142630652576683,0.28774774173516776
1761475862627710700,5.135710693359375,6.232426070338487,1.8217425487071275,-0.21437475474942475
1761475862637687800,5.145687744140625,7.084284306970238,1.1257304150864482,-0.392144483744353
1761475862647665000,5.155664794921875,8.172863972052932,0.667897799770534,-0.26921967647373674
1761475862657642000,5.16564208984375,8.970988280409575,0.23437208884581923,0.23916487608030437
1761475862667619000,5.175619140625,8.95792070904374,0.052422845676541326,0.7615354300193489
1761475862677596000,5.185595947265625,8.338820842450856,0.07994973502755165,1.2246145676866174
1761475862687573000,5.195572998046875,7.783831336718797,0.39754049756899473,1.2948770214363932
1761475862697549800,5.2055498046875,7.41582453827858,0.7247115738824009,1.1111768429465592
1761475862707527000,5.21552685546875,7.131990645518899,1.0163220919929443,0.7659402408495545
1761475862717503700,5.225503662109375,7.034675934192538,1.2217362357713282,0.28753420858234163
1761475862727480800,5.235480712890625,7.029564874789118,1.463951147072017,-0.04039638086147606
1761475862737458000,5.2454580078125,6.962951006674766,1.8864619813770054,-0.2988680149581283
1761475862747434800,5.255434814453125,7.192548282334208,2.4765929431170224,-0.47457770615071054
1761475862757411800,5.265411865234375,7.699051697316765,3.0475659076616166,-0.4405892195701599
1761475862767389700,5.2753896484375,7.958516872495412,3.352857598991692,-0.5524574299711734
1761475862777366800,5.28536669921875,7.943157390800118,3.375450246810913,-0.7164768295004963
1761475862787344000,5.29534375,7.601687301629782,3.2625454599037766,-0.49707704966329036
1761475862797321000,5.305321044921875,6.9475342418342825,3.2115257590234276,-0.17112835475169122
1761475862807298000,5.315298095703125,6.2257759647995226,3.0879172072723504,0.0945799526002258
1761475862817275000,5.32527490234375,5.28054152533412,2.726125922346115,0.5682778071764856
1761475862827252000,5.335251953125,3.8520284791290758,2.4320748792156577,0.8887852608822285
1761475862837228800,5.345228759765625,1.9865274527162313,2.0700977163285015,0.952221814134717
1761475862847206000,5.355205810546875,-0.43210488434135913,0.5570271490395069,0.9778316178180276
1761475862857183000,5.365182861328125,-2.417969489234686,-1.5463292782902716,0.586342967633903
1761475862867159800,5.375159912109375,-2.7738562262922524,-1.9588222841888665,-1.2968179263710975
1761475862877137000,5.385136962890625,-2.751637380221486,-0.7970572636470198,-3.8308909985542297
1761475862887113700,5.39511376953125,-6.1994835856795305,-0.9772174314424394,-3.4044963085532185
1761475862897090800,5.4050908203125,-12.706502842223644,-2.708392989517748,-0.1632796140126884
1761475862907067600,5.415067626953125,-16.97714719404578,-1.9724796381413936,1.8305431102782488
1761475862917045000,5.425044921875,-17.19145980681181,0.17232903577834366,3.800045193913579
1761475862927022000,5.43502197265625,-15.34819574664831,1.0435171190410852,5.481751495420933
1761475862936999700,5.444999755859375,-13.273664431786536,0.4147305556923151,5.482250677114725
1761475862946977000,5.45497705078125,-11.671422127616404,-0.6519622717529535,4.01071331269741
1761475862956953900,5.464953857421875,-9.671444826218485,-1.4095385888829826,1.260869245633483
1761475862966931000,5.474930908203125,-7.23715490130186,-1.875614131887257,-1.9467220965504646
1761475862976908000,5.484907958984375,-5.699474793413281,-2.5440035145670175,-3.9703105751603838
1761475862986884900,5.494884765625,-5.161016151243448,-3.53620984082669,-4.334294109433889
1761475862996862000,5.504862060546875,-4.280395930507779,-3.801669287984073,-3.7797166916340585
1761475863006838800,5.5148388671875,-2.624535433396697,-3.1989281432569023,-2.698930164645612
1761475863016815900,5.52481591796875,-0.7533499316066503,-2.265539624407887,-1.5850243351265787
1761475863026792700,5.534792724609375,1.0693149926424026,-1.2728279789745807,-0.8916212149605155
1761475863036769800,5.544769775390625,2.554132694393396,-0.38475378897115586,-0.5895224744528532
1761475863046747000,5.554746826171875,3.395785763353109,0.08207885601073503,-0.7375484052322805
1761475863056723700,5.5647236328125,3.4152614481955763,0.265698955001682,-1.6420124428920446
1761475863066701000,5.574701171875,2.5805279493659734,0.5904049563758075,-2.288293600268662
1761475863076678000,5.584677978515625,1.83917532954514,0.952721580350399,-2.058946646108478
1761475863086655000,5.594655029296875,1.5759259596526622,0.8366077682688832,-1.0765610182479024
1761475863096631800,5.6046318359375,1.804977291867137,0.4144794304754585,0.22721909355232492
1761475863106609000,5.61460888671875,2.661615163990855,-0.017826967787370085,1.2419590857192873
1761475863116586000,5.6245859375,3.9682629949808117,-0.3312997736159712,1.4850127859316766
1761475863126563800,5.634563720703125,5.513206371870637,-0.6072733813293277,1.302481066699326
1761475863136541000,5.644541015625,6.668007106357813,-1.146290388034284,0.9875046513747423
1761475863146518000,5.65451806640625,7.32081927293837,-1.6509578197613357,0.459077464277856
1761475863156494800,5.664494873046875,7.54484430142343,-1.8854624489456413,-0.075048646846693
1761475863166472000,5.674471923828125,7.291677934128046,-1.8916040204405784,-0.015653112613316623
1761475863176448800,5.68444873046875,6.647027446693182,-1.7548098239019512,0.4954711488366127
1761475863186425900,5.69442578125,5.741598363393545,-1.5393337203145026,1.0916283851288258
1761475863196402700,5.704402587890625,4.801895254570246,-1.1286534629262983,1.3151556932248174
1761475863206379800,5.7143798828125,4.197753303134441,-0.5769670903928578,1.1856056956607848
1761475863216357000,5.724357177734375,4.260112436413765,-0.010648819786310196,0.9031367345787584
1761475863226334000,5.734333984375,4.70589513297379,0.5116551717225462,0.39241307155266403
1761475863236311000,5.74431103515625,5.070757203647494,1.1070738646071403,-0.4156365646213293
1761475863246288000,5.754287841796875,5.101673735436797,1.4578238963633774,-1.2127153825130312
1761475863256265000,5.764264892578125,4.592693701207637,1.4875862896814942,-1.0282773912679404
1761475863266241800,5.77424169921875,3.7766251553595063,1.640207585427165,-0.20249416467845438
1761475863276219000,5.784218994140625,2.9824001925289627,1.8625940529249607,0.5740336672894656
1761475863286195700,5.79419580078125,2.292424124202132,1.934095985341817,1.1281114650040864
1761475863296172500,5.804172607421875,1.9902157858401537,1.9486147784292698,1.0540822060666977
1761475863306150700,5.814150634765625,1.729166556340456,1.6100022706471382,0.5420275866977871
1761475863316127700,5.824127685546875,0.6580664338469505,0.7214853053122758,0.020459873574227093
1761475863326104600,5.8341044921875,-0.7242442486315965,-0.26024390446618195,-0.3936180634282529
1761475863336081700,5.84408154296875,-1.656466646310687,-1.2677823860228061,-0.3471048071216792
1761475863346058500,5.85405859375,-2.9912451777637004,-2.5074472233250735,0.5954178161017596
1761475863356035600,5.86403564453125,-5.215086764127015,-3.9400323412746188,2.2705951542317866
1761475863366012700,5.8740126953125,-7.685386160057782,-4.995840786612034,3.5467163295328614
1761475863375989800,5.88398974609375,-9.923356809538602,-4.9824178259372705,3.2633772345528005
1761475863385966800,5.893966796875,-11.418522886824608,-4.12324897403121,3.003662760788202
1761475863395943700,5.903943603515625,-11.556503955060244,-3.6097298350676894,3.670466043320298
1761475863405920800,5.913920654296875,-10.5296357730031,-3.3752734289392827,3.752203830808401
1761475863415897600,5.923897705078125,-9.28569720390439,-2.7211691767215727,2.7452675529286266
1761475863425874700,5.933874755859375,-9.235578543516993,-1.5740408765584228,1.046514912617579
1761475863435851500,5.9438515625,-10.596409215593338,-0.7608595765843987,-0.0668209715263918
1761475863445828600,5.95382861328125,-12.206619722163676,-0.15568886662274597,-1.0108636804565787
1761475863455805700,5.9638056640625,-12.735114019680022,-0.02560059746354818,-1.3036981874041258
1761475863465782500,5.973782470703125,-11.407695203340053,0.1197162204876542,-0.9205790869627147
1761475863475759900,5.983759765625,-8.841312683704494,0.3265799785524606,-0.5589840917935595
1761475863485736700,5.99373681640625,-5.713560017389058,0.7035686864800751,-0.4598366851473227
1761475863495713800,6.0037138671875,-2.5931606364458797,0.988505425915122,-0.5873115569377317
1761475863505691600,6.013691650390625,0.09973930812478064,0.8875491432160139,-0.8456320555932819
1761475863515668700,6.023668701171875,2.1772236275732517,0.7061258236169815,-1.2996857368923722
1761475863525645800,6.033645751953125,3.5225983718425034,0.4753652032665908,-1.6330580059334634
1761475863535622700,6.04362255859375,4.448754016828537,0.3894445771358907,-1.6454045695483683
1761475863545599700,6.053599853515625,5.130377851873636,0.6347308587059378,-1.39130384401232
1761475863555576600,6.06357666015625,5.534998516961932,0.8532517368167638,-0.7529100058194249
1761475863565553700,6.0735537109375,5.833918335172534,0.8184259226292371,-0.02372552430666983
1761475863575530800,6.08353076171875,6.3583648186028,0.4957216164663434,0.34637901359777895
1761475863585507600,6.093507568359375,7.241884852433204,0.03042524114102125,0.3412345633814111
1761475863595484700,6.103484619140625,8.210959017169476,-0.5339943562373518,0.11322547022886574
1761475863605461500,6.11346142578125,8.911210980316996,-1.0156592441700398,-0.07800172449862584
1761475863615438600,6.1234384765625,9.15676862617433,-1.3649544740080832,-0.09352634276091121
1761475863625415700,6.133415771484375,8.75247529334426,-1.7551609754271804,0.23502288090474902
1761475863635392800,6.143392822265625,8.03951991596818,-1.7212079985514281,0.5694535729575901
1761475863645369900,6.153369873046875,7.141995906704664,-1.1833278869219124,0.8182235319249331
1761475863655346700,6.1633466796875,6.247718916538357,-0.6298631065391004,1.0193594138622284
1761475863665323800,6.17332373046875,5.436932110485434,-0.19665917491465806,0.8892242368213832
1761475863675300600,6.183300537109375,4.879872812741994,0.25503815251663325,0.5329340335294604
1761475863685278700,6.19327880859375,4.85255985840261,0.9301204569637775,0.19784294133912772
1761475863695255800,6.203255859375,5.343243772962689,1.6252192751318215,-0.14364426336279137
1761475863705232600,6.213232666015625,5.9310939302891486,2.2333796684287486,-0.5647909149087965
1761475863715209700,6.223209716796875,6.475566133660077,2.8292779615238306,-0.8847476028639822
1761475863725186600,6.2331865234375,6.773698600885272,3.418001394553482,-1.0029831563398242
1761475863735163600,6.24316357421875,6.546739857035875,3.7996763606011865,-0.5153046706734224
1761475863745140500,6.253140380859375,6.085419399604201,4.026489558500051,0.5648015824332833
1761475863755117600,6.26311767578125,5.471726945012808,4.010781409497559,1.4073451704919338
1761475863765094700,6.2730947265625,4.2329573029845955,3.051801937796175,1.8393864880777895
1761475863775071700,6.28307177734375,2.9509084912002086,1.076662432795763,2.065879367981106
1761475863785048800,6.293048828125,1.9938579417347906,-0.7499591201245784,1.392540400069952
1761475863795025700,6.303025634765625,1.0841156714111566,-2.076421366392076,-0.4376282508727163
1761475863805002800,6.313002685546875,-0.6111223118424415,-2.282931780974567,-2.688307063822448
1761475863814979600,6.3229794921875,-4.324894997447728,-3.0036700673118233,-2.272151151502132
1761475863824956700,6.332956787109375,-8.633619196817278,-4.775939267797768,0.05383925181310623
1761475863834933800,6.342933837890625,-11.168946068453788,-4.0534325104832645,0.37004531853049993
1761475863844910600,6.35291064453125,-11.513486651110648,-2.1559519992247225,1.014685065375641
1761475863854887700,6.3628876953125,-10.58732223829627,-1.2635182988375424,1.9386501415148376
1761475863864864500,6.372864501953125,-9.44853038932383,-0.8699439284205436,1.481475113324821
1761475863874841600,6.382841552734375,-9.217746534228324,-1.242364451649785,0.5528403648741543
1761475863884818400,6.392818359375,-9.949998148226737,-2.0936735299661753,-0.36950741226151584
1761475863894796500,6.402796630859375,-11.091705007863045,-2.7512966039597986,-0.9051800769746303
1761475863904773600,6.412773681640625,-12.02388181283474,-2.5378213188007472,-1.5160907918930053
1761475863914750500,6.42275048828125,-11.926491113662719,-2.0903087297081946,-1.7848422663331032
1761475863924727600,6.4327275390625,-10.98008938398361,-1.8528882130771873,-1.7338852554254234
1761475863934705000,6.442704833984375,-9.448825572878121,-1.3024036175489424,-2.1676832074202594
1761475863944681700,6.452681640625,-6.832271785885095,-0.4352008045300841,-2.780273107597232
1761475863954658800,6.462658935546875,-3.851733295574784,0.2730687531173229,-2.9208202269285914
1761475863964635600,6.4726357421875,-1.4049422010034323,0.9616258945569396,-2.372987022691965
1761475863974612700,6.48261279296875,0.2682856104940176,1.3263278062328696,-1.2258894099280238
1761475863984589600,6.492589599609375,1.3153940320253372,1.2912810427710413,-0.14555406077317892
1761475863994566700,6.502566650390625,1.780114653289318,1.034555375558883,0.2840955393705517
1761475864004543700,6.512543701171875,2.079893718677759,0.8785672337286173,-0.06339212958887219
1761475864014520600,6.5225205078125,2.3306746521413326,0.7797161066152155,-0.5321776622042059
1761475864024497700,6.53249755859375,2.6483283969163893,0.5441223670199513,-0.4458792157370597
1761475864034474500,6.542474609375,3.277520618456602,0.18551921061053872,-0.12311079482939094
1761475864044451800,6.552451904296875,4.357445267918706,-0.27989158487468957,0.15452778695411978
1761475864054428700,6.5624287109375,5.752216203519701,-0.5834884549856185,0.04578756324737333
1761475864064405800,6.57240576171875,6.989094917234778,-0.8986455606393515,0.01224144328959519
1761475864074382800,6.5823828125,7.733152704361081,-1.0890819155164062,0.37202962421551344
1761475864084360700,6.592360595703125,8.040960762426257,-1.0797311727166174,0.8464618574809283
1761475864094337800,6.602337890625,8.161590882888436,-0.9062069358043372,1.2873426804088055
1761475864104314600,6.612314697265625,8.205834513762593,-0.6341356692917645,1.5757982416197656
1761475864114291700,6.622291748046875,8.04192639258802,-0.3034437253758311,1.7915107843115925
1761475864124268800,6.632268798828125,7.8845929736286395,0.14346490647420287,1.886097239717841
1761475864134245600,6.64224560546875,7.6840832607656715,0.6716057143777608,1.8053434948310254
1761475864144222700,6.65222265625,7.397576349404454,1.0073716005571185,1.6116048835381864
1761475864154199600,6.662199462890625,6.940600058656931,1.2581995880328118,1.2887810426488517
1761475864164176600,6.6721767578125,6.569422813487052,1.4593391232319175,1.0636415501158685
1761475864174153500,6.682153564453125,6.597600275701284,1.6911828626438974,0.9428451331760733
1761475864184130600,6.692130615234375,6.75859397073388,1.8056367786891758,0.6890496741969138
1761475864194107600,6.702107666015625,6.689194855815172,1.6080778784558176,0.5778199078299104
1761475864204084700,6.712084716796875,5.806784829053282,1.2598529081977903,0.7124992311064153
1761475864214061800,6.722061767578125,3.9721348679780957,1.128101235871017,0.5971668151935562
1761475864224038700,6.73203857421875,1.8110779468297957,0.806800805156678,-0.2735626193151809
1761475864234015700,6.742015625,-0.3089315091371536,0.13154606675207614,-1.270868515469879
1761475864243992600,6.75199267578125,-2.8177228405475616,-0.5715472573012114,-1.6262367816112935
1761475864253969700,6.7619697265625,-5.398104659441113,-0.8599195241428911,-1.3989609346367418
1761475864263946800,6.77194677734375,-6.824401198640465,-0.9791311561092734,-1.1167685254737734
1761475864273923600,6.781923583984375,-7.113789802917838,-1.257329381069541,-0.8358309386774897
1761475864283902000,6.79190185546875,-7.556484470334649,-1.4706789940223097,-0.5219447662750258
1761475864293879000,6.801879150390625,-9.32722923773229,-2.421657822358608,1.4198853569827974
1761475864303855900,6.81185595703125,-11.752656641757488,-2.6319983166232706,3.077420070916414
1761475864313833000,6.8218330078125,-13.377507083576917,-0.7218427404478192,2.936272355343401
1761475864323810000,6.83181005859375,-14.320482345938682,-0.14546996268630027,3.453815342995524
1761475864333787000,6.841786865234375,-14.371292495721578,-0.8921879089325666,3.437439377734065
1761475864343764000,6.851763916015625,-13.569306251239777,-1.3565332671433687,1.927925918404758
1761475864353741000,6.861740966796875,-12.22170038691759,-1.5128616007134317,0.5920837397756055
1761475864363718100,6.87171826171875,-10.66410152659416,-1.4213096906974911,-0.28614244369668884
1761475864373695000,6.881695068359375,-9.263393017637728,-1.5593214463323353,-0.898698386805132
1761475864383672000,6.891672119140625,-8.029768921804427,-2.174482804432511,-1.166586230153218
1761475864393649200,6.901649169921875,-6.4042860273003575,-2.8203566961824893,-1.1369440291486679
1761475864403626000,6.9116259765625,-4.204467121559381,-2.7675062727436424,-0.8092778627946973
1761475864413603000,6.92160302734375,-1.8114666538864372,-1.988952049514651,-0.4182582183618098
1761475864423580000,6.931579833984375,0.43473114119172096,-1.0007111197546124,0.0410605986575596
1761475864433557000,6.941556884765625,2.0912445492535827,-0.2946203674510121,0.3011692776378244
1761475864443533800,6.951533935546875,3.066194912546873,0.010071166028827428,0.12634900956563652
1761475864453511000,6.961510986328125,3.590429214531183,0.1337776251964271,-0.48044754803217943
1761475864463488000,6.971488037109375,3.923686771151423,0.4113740848712623,-1.242572395312041
1761475864473465000,6.981465087890625,4.059463607341051,0.8262865730017424,-1.7591548673689363
1761475864483442200,6.991442138671875,4.21082788876295,1.0802297698885202,-1.7211847638063131
1761475864493419800,7.001419677734375,4.422968418186903,0.9776600606434047,-1.1658962020624428
1761475864503396900,7.01139697265625,4.815244565486908,0.6096455172881484,-0.45491782384775575
1761475864513374200,7.021374267578125,5.494577659246326,0.2275995259709656,0.057486010817624625
1761475864523351000,7.03135107421875,6.308015272068977,0.05195595881715417,0.14504812054503707
1761475864533328100,7.041328125,7.040407171320915,-0.15367095092907548,0.10012998794279993
1761475864543305000,7.051304931640625,7.37979110186696,-0.5558972682267427,0.2693198854451999
1761475864553282000,7.061281982421875,7.706958524918556,-0.821963302975148,0.43229806882590055
1761475864563259000,7.0712587890625,8.165566216260194,-0.9156085320085287,0.4695909307140857
1761475864573236000,7.081236083984375,8.522872756987809,-0.9792860544100404,0.5176624493133276
1761475864583213000,7.091213134765625,8.547025785991549,-0.7156938624292611,0.58531468403209
1761475864593190000,7.10118994140625,8.365590775954724,-0.24537308307066558,0.5670183816999197
1761475864603167000,7.1111669921875,8.178359646859764,0.1182971474699676,0.5671531870607286
1761475864613143800,7.121143798828125,8.091488588136434,0.4285825554341078,0.6151943835869431
1761475864623121000,7.131120849609375,8.205042486602068,0.8603525087326764,0.610865998993814
1761475864633098000,7.141097900390625,8.276613684862852,1.3511090501375496,0.5068501095283776
1761475864643075000,7.151074951171875,7.950621735331415,1.6646028987541794,0.440811410953477
1761475864653052200,7.16105224609375,7.3190750596195455,1.7787316744983195,0.38169082120396197
1761475864663029000,7.171029052734375,6.592405629667639,1.617211909765005,0.35879053220767526
1761475864673006000,7.181006103515625,5.856525303778052,1.4749541871234775,0.12987952177934348
1761475864682983000,7.19098291015625,5.111845585361123,1.4964534867480397,-0.1336487381197512
1761475864692960000,7.2009599609375,4.355092567312717,1.3526917892843484,-0.30308745928406716
1761475864702938000,7.210938232421875,3.6101357855200766,0.9645911741033196,-0.5741392465557903
1761475864712915000,7.2209150390625,2.640743640875816,-0.01408025553971529,-0.8916836857374757
1761475864722892000,7.23089208984375,1.7551158211112021,-1.7824688152000308,-1.1047305163513867
1761475864732868900,7.240868896484375,1.298111473312974,-3.6431276622787117,-1.072734445697069
1761475864742846000,7.250845947265625,0.28519115258753297,-4.394242089918255,-0.744619366531819
1761475864752823000,7.260822998046875,-2.8417572116076943,-3.659824237796664,-0.31354331378154454
1761475864762799900,7.2707998046875,-8.534162212765215,-4.653289039684831,2.8533389283299444
1761475864772777000,7.28077685546875,-12.930806103128194,-6.557905394172668,5.609656575322151
1761475864782754000,7.290754150390625,-13.645434382152557,-4.490160962972045,4.288581867311895
1761475864792731100,7.300731201171875,-12.481168484705686,-2.8976754981845616,3.7175159637868402
1761475864802708000,7.3107080078125,-9.990012178707122,-2.4165432558238504,1.215396365225315
1761475864812685000,7.32068505859375,-9.513018351325393,-2.2389538152992725,-1.7095627150736747
1761475864822662100,7.330662109375,-11.495233201539516,-2.0005945565134287,-2.6892940290331837
1761475864832639000,7.340638916015625,-12.933838602691887,-1.4295301142930983,-2.9324428601831194
1761475864842616000,7.350615966796875,-13.596748384916781,-1.3429527778193353,-2.112682474079728
1761475864852593000,7.360593017578125,-12.564321399688719,-1.595849972784519,-1.1512731448829174
1761475864862570000,7.370570068359375,-9.827274270355701,-1.2995305463306606,-1.3585837699323893
1761475864872546800,7.380546875,-6.993072004172205,-0.9331174468226731,-2.204220647831261
1761475864882524000,7.39052392578125,-4.593455333229899,-0.5900690024197102,-2.7620374859437344
1761475864892501000,7.4005009765625,-2.5421271993011234,0.04111643876433372,-2.597166364955902
1761475864902478800,7.410478759765625,-1.4559154323935508,0.4412785170085728,-1.4001602274239062
1761475864912456000,7.4204560546875,-1.253809974771738,0.6766865247733891,0.024534648732468484
1761475864922433000,7.43043310546875,-1.0270739337623118,0.8424732993014157,1.0845260788429527
1761475864932410000,7.44041015625,-0.31064298923015593,1.0488517580673098,1.5206746125519275
1761475864942387200,7.45038720703125,0.5136000952452421,1.092955395948887,1.63998824358806
1761475864952364000,7.460364013671875,1.5550556055814027,0.8674700856529176,1.658695136015117
1761475864962341000,7.470341064453125,2.794398079061508,0.4523347485519945,1.5482447565227746
1761475864972318000,7.48031787109375,4.2564112438082695,0.19302096454277634,1.305347562046349
1761475864982295000,7.490294921875,5.682882555052638,-0.1224989830739796,1.1018958043821154
1761475864992272000,7.50027197265625,6.900546865209937,-0.508715830335021,0.9218184194993227
1761475865002249000,7.5102490234375,7.779328180080652,-0.8858534452140331,0.6985181250922381
1761475865012226000,7.52022607421875,8.287894957333803,-1.197465425606817,0.5876185770602896
1761475865022203000,7.530202880859375,8.322432017707824,-1.3071191017635166,0.5352204274335876
1761475865032180000,7.540179931640625,7.946524236884713,-1.16119014326334,0.5927744619861245
1761475865042157000,7.550156982421875,7.465239434310793,-0.7242381111517548,0.7253304364331066
1761475865052134100,7.560134033203125,6.907298677557707,-0.3290829012840986,0.9659490184530615
1761475865062111000,7.570111083984375,6.407440107417107,-0.04064925964400172,1.206058335776627
1761475865072088000,7.580088134765625,6.153579328116774,0.3733342770732939,1.1745004373438657
1761475865082065200,7.590065185546875,6.211764975103735,0.8703181685604154,0.8746114818401635
1761475865092042000,7.6000419921875,6.265404210832715,1.1984265257239342,0.4567064973628148
1761475865102019000,7.61001904296875,6.146196232128143,1.407355691885948,0.11373146525593474
1761475865111996000,7.619995849609375,5.899305291840434,1.8562844313867388,-0.07794597572339698
1761475865121974000,7.62997412109375,5.2731747959584,2.3623132145948706,-0.12885897395941429
1761475865131951000,7.639951171875,4.144413342612982,2.497723993951082,0.11807152202054857
1761475865141928000,7.649927978515625,2.8092840980261564,2.5002768933042883,0.6412596759527921
1761475865151905000,7.659905029296875,1.8011942661970852,2.6557074012517927,0.6846664176113904
1761475865161881900,7.6698818359375,1.2699556384086608,2.404185294032097,0.11102536636870354
1761475865171859000,7.67985888671875,0.8656336640059947,1.415671684810519,-0.8289620758213102
1761475865181835800,7.689835693359375,-0.0635778614193201,0.02965747163891792,-2.0471289286732675
1761475865191813000,7.699813232421875,-1.8709055158048866,-0.828321878221631,-3.187778680472076
1761475865201790200,7.709790283203125,-4.587852690917253,-0.6085232352599501,-3.484745026527345
1761475865211767000,7.71976708984375,-8.170395536112785,-0.46494829254001374,-2.2018273229539393
1761475865221744000,7.729744140625,-10.922874043333529,-0.36296792749017476,-0.44247912496998903
1761475865231721000,7.739720947265625,-11.262305904674529,-1.0810071840018034,0.9737547237679361
1761475865241698000,7.749697998046875,-10.204127223074435,-2.712712314021587,1.901192809779942
1761475865251675000,7.7596748046875,-9.248467835706473,-3.014572861859202,2.0072364787459374
1761475865261652000,7.76965185546875,-8.89425107768774,-3.126956547501683,2.849596819192171
1761475865271629000,7.779629150390625,-8.593622117471694,-3.3559093877777455,3.2777512123420833
1761475865281605000,7.789605224609375,-8.31779500555694,-3.3914673156321045,2.7591785893812775
1761475865291582500,7.79958251953125,-8.514771283596753,-2.9854823764532803,2.2079051815629005
1761475865301559300,7.809559326171875,-8.848863537475467,-2.2004338227689266,1.6783679508648812
1761475865311536400,7.819536376953125,-9.20643603566289,-1.5908230845332145,0.8799575190432369
1761475865321513200,7.82951318359375,-9.26503084797263,-1.4772960740745067,0.42712293121032413
1761475865331490300,7.839490234375,-8.317953410989045,-1.5555805062383412,0.15914127209894358
1761475865341468400,7.849468505859375,-6.176614751267433,-1.396266727116704,0.007799860095977783
1761475865351445200,7.8594453125,-3.4963813960462806,-1.1585367061451077,-0.17907799858190118
1761475865361422300,7.86942236328125,-0.8715905265837908,-0.7076464573130011,-0.20373550650905817
1761475865371399200,7.879399169921875,1.3046470125615597,-0.10508417628407478,0.03877062455685809
1761475865381376300,7.889376220703125,2.8336498929977414,0.23469693688601254,0.32201500872448086
1761475865391353300,7.899353271484375,3.7582062860935923,0.20203210012465714,0.10982640237510204
1761475865401330200,7.909330078125,4.2629146343529225,0.198746210321784,-0.7892877256240696
1761475865411307300,7.919307373046875,4.45898548798561,0.35292964081764217,-1.9021387123279272
1761475865421284000,7.9292841796875,4.19947121296823,0.5384959054403007,-2.570653036561608
1761475865431261200,7.93926123046875,3.6082132930248974,0.7559058996997773,-2.694642696584761
1761475865441238300,7.94923828125,3.132708242896199,0.6515358630344271,-2.190571915576607
1761475865451215400,7.95921533203125,3.1026790153354407,0.27415128765702246,-1.3616111549295484
1761475865461192400,7.9691923828125,3.7819215082019566,0.1649248970016837,-0.7385282831151038
1761475865471169300,7.979169189453125,4.9306402924269435,0.270286867313832,-0.513619822859019
1761475865481146400,7.989146484375,6.231756208252906,0.36153687177374955,-0.7437370307393372
1761475865491123200,7.999123291015625,7.352914785379171,0.19452990780100227,-0.8149802391547709
1761475865501100300,8.009100341796875,8.130608884647488,-0.2229933473497629,-0.5200623865945264
1761475865511077000,8.0190771484375,8.448917293938994,-0.5778241456136107,-0.16484689986202866
1761475865521054200,8.02905419921875,8.523789287310839,-0.45706104642152784,0.05770991923399269
1761475865531031300,8.03903125,8.415609483098983,-0.009673837274312973,0.25443638723120093
1761475865541008100,8.049008056640625,7.9734169199854135,0.41058892584294077,0.6168127055037766
1761475865550985200,8.058985107421876,7.422261877849698,0.878572640556097,1.00009064976871
1761475865560962300,8.06896240234375,7.130364505621791,1.3360799694404004,1.1806219889640808
1761475865570939400,8.078939453125,7.254551441782713,1.7001576117381452,0.9178444013018161
1761475865580916200,8.088916259765625,7.628417487645149,1.9164505846664308,0.3741572838939726
1761475865590893300,8.098893310546876,7.8346695435523985,1.9607190577208995,-0.12499087295494973
1761475865600870400,8.108870361328124,7.9284344534426925,1.9964298380494117,-0.7744179271418601
1761475865610847200,8.11884716796875,7.8501710640668865,1.9142238485276697,-0.9562572071306407
1761475865620824300,8.12882421875,7.241290393671393,1.8411586123168466,-0.7101911002945155
1761475865630802200,8.13880224609375,6.135891695734858,2.1288366132840513,-0.6860553146865218
1761475865640779300,8.148779296875,5.01811457774043,2.1012921882763504,-1.1685513927463442
1761475865650756400,8.15875634765625,3.924637203744054,1.1256927134245633,-1.1572576991852372
1761475865660733200,8.168733154296875,2.296089076450467,-0.32247400453835723,-0.8522511814720928
1761475865670710300,8.178710205078126,-0.06950608242452144,-1.6106988746091722,-0.7072882915250956
1761475865680687000,8.18868701171875,-2.3209125520616767,-2.166453811755776,-1.1717438321121036
1761475865690664200,8.198664306640625,-4.510046397659182,-2.2577768814519046,-1.5607434419594703
1761475865700641300,8.208641357421875,-7.30970400468409,-2.1310019746243953,-1.4990204146265982
1761475865710618400,8.218618408203126,-10.539921020174026,-1.8293121071785687,-1.1475777244310825
1761475865720595500,8.228595458984374,-13.00765319596529,-3.17119959385395,1.2930454220950602
1761475865730572300,8.238572265625,-13.120940552449225,-4.037632007022202,3.6553032532408833
1761475865740549400,8.24854931640625,-12.288992884945868,-3.745144267685711,5.12343256278038
1761475865750526200,8.258526123046876,-11.078439868098497,-3.5774089894384145,6.034853579971194
1761475865760503300,8.26850341796875,-8.749360376194119,-2.602915722262859,4.898814244577288
1761475865770480000,8.278480224609375,-6.647329644510149,-1.0831319210708141,2.8701567921400066
1761475865780457200,8.288457275390625,-7.1806690439701075,-0.27551906887888905,1.4287347261317074
1761475865790434300,8.298434326171876,-9.553603459692,0.09561229132264852,0.7551711556844413
1761475865800411100,8.3084111328125,-12.079185766905546,-0.009763707514852284,0.5559682511037215
1761475865810388200,8.31838818359375,-12.869598477971554,-0.7756143703848123,0.7255644643846899
1761475865820365300,8.328365234375,-10.986923613917828,-1.2043766662999986,1.013217696236819
1761475865830342400,8.33834228515625,-7.623877506127953,-0.5835811017051339,0.9890385829437524
1761475865840320300,8.3483203125,-4.434926567006111,0.4005344186879694,0.7714267825018614
1761475865850297000,8.358297119140625,-1.2896680546164512,1.2366343835651874,0.5736540203221142
1761475865860274400,8.3682744140625,1.565689227798581,1.903964028058946,0.3270396319534629
1761475865870251300,8.378251220703126,3.700295364394784,2.4169508137114346,-0.11841668219640851
1761475865880228400,8.388228271484374,4.895588852789998,2.5011101292580364,0.02682297886535525
1761475865890205200,8.398205078125,5.058376445502042,1.9091107432976364,1.0039305201925337
1761475865900182300,8.408182373046875,4.745075635239481,0.8854442068260162,2.1078306501343844
1761475865910159400,8.418159423828126,4.71611549821496,-0.146214643573761,2.4392665442854167
1761475865920136200,8.42813623046875,5.173554145777225,-0.8320908023010939,1.8442901883408427
1761475865930113300,8.43811328125,6.005087387260795,-1.2853446384593843,0.4783895925890654
1761475865940090000,8.448090087890625,6.918660614049434,-2.1328677684962747,-1.004035588002205
1761475865950067200,8.458067138671876,7.505704131168127,-3.1439120662167666,-1.919395113685727
1761475865960044000,8.4680439453125,7.5429522040665145,-3.6435908958762884,-2.464025137966871
1761475865970021000,8.478021240234375,7.2672314751356835,-3.6264825246870513,-2.3565222101032735
1761475865979998500,8.48799853515625,6.757569888383149,-3.2867353137865662,-1.5711971775650977
1761475865989975300,8.497975341796876,6.06389847266972,-2.6135768170088527,-0.5433670186080038
1761475865999952400,8.507952392578124,5.300915035799146,-1.8404431575238704,0.3602292963065207
1761475866009929200,8.51792919921875,4.767966096961498,-1.0873225046284496,0.6364391239285468
1761475866019906300,8.52790625,4.768530745106935,-0.4910197954509407,0.3234964063886553
1761475866029883100,8.537883056640625,5.261843254604935,0.030615576081350442,-0.05200578930824995
1761475866039861200,8.547861328125,5.850888174673915,0.36520511195771393,-0.4862143679305911
1761475866049838300,8.55783837890625,6.258612650996446,0.3438881100974977,-0.9046328914206474
1761475866059815200,8.567815185546875,6.229004279196262,0.4674697738416493,-0.8159763375200331
1761475866069792300,8.577792236328126,5.625134714961051,1.0844558631509542,-0.54120377615951
1761475866079769300,8.587769287109374,4.522120866334438,1.6146239390984176,-0.3274210324864834
1761475866089746200,8.59774609375,3.0945155826240778,1.5976874173447488,0.47689445866048336
1761475866099723300,8.60772314453125,1.7325450928628443,1.0191662293776869,1.0526766501177103
1761475866109700000,8.6177001953125,1.1154343542605638,0.4911731593817472,0.8860168921474367
1761475866119677200,8.62767724609375,0.7027852810174227,0.05228621368482709,0.361485726108402
1761475866129654300,8.637654296875,-1.1027397078603505,-0.17370821517705917,-0.7486050751671195
1761475866139631400,8.64763134765625,-4.87838929618597,0.037103257600218056,-1.7707196329563855
1761475866149608400,8.6576083984375,-9.371490404263138,-0.45020095139369365,-1.7886919274985789
1761475866159585300,8.667585205078124,-12.426608042478561,-1.8985500401861966,-1.2183892634309827
1761475866169562400,8.677562255859375,-13.727557369565963,-3.1839021312996745,-0.9045617989458143
1761475866179539200,8.687539306640625,-14.660501067256927,-4.075236053751409,-0.562158155252412
1761475866189516300,8.697516357421875,-14.392759646642208,-4.110536207452416,0.8332364652048796
1761475866199493000,8.7074931640625,-11.950105798006057,-3.4418849589660763,2.7556349254250523
1761475866209470200,8.71747021484375,-7.733660069361329,-2.562044782692194,3.408979591447115
1761475866219447000,8.727447021484375,-3.263492093104124,-1.2033370941191912,2.334515253217518
1761475866229424000,8.737424072265625,-1.4836340449243783,-0.02806289592385292,0.7668715303502976
1761475866239401200,8.747401123046876,-3.5228222437262535,0.0423199693351984,-0.6773739955808967
1761475866249378300,8.75737841796875,-6.242872645550966,-0.2217328258946538,-1.9133647474803028
1761475866259356200,8.767356201171875,-8.07827079464495,-0.42886473337635395,-2.384787204470485
1761475866269333200,8.777333251953126,-8.338616844311357,-0.4755331071794033,-2.272930173050612
1761475866279310300,8.787310302734374,-7.313208213412762,0.10931436119973659,-1.772704961554706
1761475866289288000,8.797287841796875,-5.728920083606242,1.1285919419974089,-1.4414685354985295
1761475866299265000,8.80726513671875,-3.766707572457194,1.9057091181606054,-1.4446592943638563
1761475866309242400,8.817242431640626,-1.5146201348185537,2.4379241897657513,-1.2918757937937975
1761475866319219200,8.82721923828125,0.6760936734467744,3.09279533470273,-1.0954738815758376
1761475866329196300,8.8371962890625,2.2785703708946703,3.1859500037401913,-0.3016473434783518
1761475866339173000,8.847173095703125,3.360338017874956,2.3676336789652703,1.0478937266901134
1761475866349150200,8.857150146484376,4.504537278848886,1.5907283919870852,1.6596470299124717
1761475866359127000,8.867126953125,6.16886165292263,1.177670299551636,1.3801856531485914
1761475866369104100,8.877104248046875,8.064891088590025,0.8059820361196994,0.8569927499759942
1761475866379081000,8.8870810546875,9.47105961651802,0.10982114167809486,0.2454222925072536
1761475866389058000,8.89705810546875,10.363463214027881,-0.640529754243046,-0.3495275407565757
1761475866399035100,8.90703515625,10.272285982543229,-1.2569023878291248,-0.49876624485924836
1761475866409012000,8.917011962890625,9.573180851343274,-1.631899629678577,-0.41465741739086803
1761475866418989000,8.926989013671875,8.909497162136436,-1.864330813589692,-0.18716423787120728
1761475866428966100,8.936966064453125,8.389490122458339,-1.8346724651679396,0.04288878219909966
1761475866438943200,8.946943115234374,7.785611205872893,-1.4460345282398164,0.15755798496287315
1761475866448920000,8.956920166015625,7.326095752036571,-0.8515184832833707,0.2866076683219522
1761475866458897200,8.966897216796875,7.296293318969011,-0.2478190149180591,0.42760844970494505
1761475866468874200,8.976874267578125,7.6616417118549345,0.29443098235875365,0.39843971143104134
1761475866478851000,8.98685107421875,8.193874611377716,1.0763485445410013,0.06749218531884253
1761475866488828200,8.996828125,8.519789988541602,1.8167333422429859,-0.14822875987514852
1761475866498805000,9.006804931640625,8.321381047350167,2.1977068820230663,0.07391118551567197
1761475866508783000,9.016783203125,7.765245294192433,2.498503453890979,0.22518727719746529
1761475866518760200,9.02676025390625,6.879893368759751,2.642524386812746,0.16474420667253434
1761475866528737000,9.036737060546875,5.66596181538999,2.6912980623319744,0.22402714737690985
1761475866538714000,9.046714111328125,4.272015640175343,2.758667717249691,0.21922712668403982
1761475866548691000,9.05669091796875,3.2595401406079527,2.5409300984710455,-0.10314707074165344
1761475866558668000,9.06666796875,2.9899072071582076,1.3280522919379174,-0.4735824115030467
1761475866568645000,9.07664501953125,2.8542279861241577,-0.6556079347789288,-0.8085461144540459
1761475866578622200,9.086622314453125,0.7730354598075151,-1.7090125338450073,-2.2293170951649546
1761475866588599300,9.096599365234376,-4.470113615721464,-1.7516588125251233,-4.277132837058604
1761475866598576000,9.106576171875,-11.325700810742378,-0.5766419500917196,-6.176622350051999
1761475866608553200,9.11655322265625,-18.888608592122793,1.5391899279296397,-5.80898964562118
1761475866618530000,9.126530029296875,-24.379215594172475,1.3513155324950814,-1.5184776870295404
1761475866628507100,9.136507080078125,-24.330090036475656,0.8675240077972411,3.082075203245878
1761475866638484200,9.146484130859376,-19.70863785829544,1.2952087376087904,6.176050687643885
1761475866648461000,9.1564609375,-14.863828175628184,1.0522183118909596,5.9783151156693695
1761475866658438100,9.166438232421875,-11.241581096553801,-0.3193663939118385,4.536909562404453
1761475866668415000,9.1764150390625,-9.568350946968794,-0.9445245376303791,2.679184138429165
1761475866678392000,9.18639208984375,-9.922794499480723,-1.3578876043617725,1.041906907365471
1761475866688369200,9.196369140625,-10.453306566560268,-2.4203145910561084,-0.606057356603071
1761475866698346200,9.20634619140625,-10.269231271147728,-3.1440684258222578,-2.0128603099770843
1761475866708323300,9.2163232421875,-9.043308835732937,-2.823497332295775,-2.2917532392032443
1761475866718300200,9.226300048828126,-6.91747403461337,-1.9468347631447016,-1.744075371658802
1761475866728277200,9.23627734375,-4.286522888955473,-0.9656384911991656,-1.3330543380089104
1761475866738254000,9.246254150390625,-1.3557500078111886,-0.35440322050154205,-1.1391865473784506
1761475866748231200,9.256231201171875,1.3087766597121953,-0.059369449944049114,-0.7590637792088091
1761475866758208000,9.2662080078125,2.8329817844778296,-0.06124664199277758,-0.5651242385163903
1761475866768186000,9.27618603515625,3.6609967887073753,-0.2957178072988987,-0.5705135303393006
1761475866778163200,9.2861630859375,4.748413839751482,-0.8400693068996071,-0.5396529299883172
1761475866788140000,9.29614013671875,6.381604239892959,-1.485599353647977,-0.5093906973892822
1761475866798117000,9.3061171875,8.20033883895576,-1.7946565349914132,-0.5298536762360483
1761475866808094000,9.316093994140624,9.7728371622473,-2.0256959722831844,-0.5902805628111586
1761475866818071000,9.326071044921875,11.112425139808654,-2.2301709355153143,-0.7747597263168543
1761475866828048100,9.336048095703125,11.974319032764434,-2.2333020731478928,-0.7368129305645823
1761475866838025200,9.346025146484376,11.935650571674108,-2.184034915023297,-0.030869331646710633
1761475866848002300,9.356002197265624,11.152654274344444,-2.2340450004696844,0.9835974878683685
1761475866857979100,9.365979248046875,9.874433496415614,-2.0669040348537266,1.5991908076450227
1761475866867956200,9.375956298828125,8.809471438285708,-1.694953028832376,1.493461319194734
1761475866877933000,9.38593310546875,8.437518532568216,-1.3246928985074162,0.7466445156838745
1761475866887910100,9.39591015625,8.542556531623005,-0.9889717282526195,-0.0337638840444386
1761475866897887200,9.40588720703125,8.766317356213927,-0.6927062239430845,-0.8517930624410509
1761475866907864000,9.415864013671875,9.163429837629199,-0.6184918176971376,-1.6349322753727435
1761475866917841200,9.425841064453126,9.873570742106438,-0.5531745652645826,-2.2297008337855337
1761475866927818000,9.43581787109375,10.444776054102181,-0.23708617011010646,-2.573234577487409
1761475866937795000,9.445795166015625,9.997335068941116,0.15026055796369908,-2.4929522495046257
1761475866947772000,9.45577197265625,8.664785319453477,0.4565193407602608,-2.0761897495932877
1761475866957749200,9.465749267578126,7.465632817542552,0.694732469073683,-1.4535070560775696
1761475866967726300,9.475726318359374,6.3733455301135775,0.8697657953746616,-0.9045409753534942
1761475866977703200,9.485703125,5.186566187563538,0.9087757633790373,-0.5946795649550854
1761475866987680300,9.49568017578125,4.08331736113727,0.9504830076433718,-0.5779148195717484
1761475866997657000,9.505656982421876,2.6628373992621897,1.0290383657030762,-0.6863950680349021
1761475867007634200,9.51563427734375,0.7525117272168398,0.5928577563554048,-0.5811303475521504
1761475867017611000,9.525611083984375,-1.1537748985707759,-0.765206373617053,0.11867248358838259
1761475867027589000,9.535589111328125,-2.4654607237279413,-2.0850264053910967,0.23482195150516927
1761475867037566200,9.545566162109376,-3.6400381718307733,-1.5889650355763731,-0.6325763840857893
1761475867047543000,9.55554296875,-6.861729351037741,-0.7964110746979713,-0.35514980108514427
1761475867057520000,9.56552001953125,-12.036781041896342,-1.283372169342637,1.399964704851806
1761475867067497000,9.5754970703125,-17.540803990358114,-2.7672821085989474,3.401293420858681
1761475867077474000,9.58547412109375,-21.367716732931136,-2.8937232534274457,3.247596020314097
1761475867087451100,9.595451171875,-22.391976778316497,-0.7680207003854215,2.2320029732480644
1761475867097428000,9.605427978515625,-20.028974558544157,0.6269250072605907,2.3908751460820437
1761475867107405300,9.6154052734375,-15.700128193122147,1.0561140041552484,1.7279753007292746
1761475867117382100,9.625382080078126,-13.179743454551696,1.6063590918391941,-0.48967597962655124
1761475867127359200,9.635359130859374,-14.240426227927207,0.8822693031169474,-1.4992042467609048
1761475867137336000,9.645336181640625,-15.3938714561522,-0.09102379448860883,-1.3750009439870714
1761475867147313200,9.655313232421875,-14.351628010308742,-0.4252193626113236,-1.029369643484056
1761475867157290200,9.665290283203126,-11.937111876398324,-0.8505313719421624,-0.9359425872460007
1761475867167267000,9.67526708984375,-8.392201719504595,-1.0873678050749003,-1.3158426525756717
1761475867177244200,9.685244140625,-4.0733921794503924,-0.7268434713445603,-2.006879043610394
1761475867187221000,9.695220947265625,-0.041138066074252126,-0.22839535252377388,-2.502311321741342
1761475867197198000,9.705197998046875,2.950098343861103,0.21364421198517083,-2.2283280841276047
1761475867207175000,9.7151748046875,4.822437107339501,1.0265224373593926,-1.2738419783227144
1761475867217152000,9.725152099609375,5.722737011057138,2.1102901721157132,0.03911613179259002
1761475867227129300,9.73512939453125,5.764488240593671,2.4960800261363385,1.5836150528505444
1761475867237106200,9.745106201171875,5.777393314874172,1.9934185274042189,2.788114468747377
1761475867247083300,9.755083251953126,6.4903580446004865,1.225146774867177,3.0524744302302596
1761475867257060000,9.76506005859375,7.807900779092312,0.31568536731153723,2.67378432521224
1761475867267037200,9.775037109375,9.396346613100171,-0.586277793443203,1.854671881623566
1761475867277014000,9.785013916015625,10.522577086663246,-1.4311279048785566,0.9153716545127332
1761475867286991600,9.79499169921875,10.648174474143982,-2.25133194309622,0.2464080521415919
1761475867296968700,9.80496875,9.915458749765158,-2.7935186658784747,0.11786810840293764
1761475867306945500,9.814945556640625,8.785249435698985,-3.015511311753094,0.1495010813659057
1761475867316922600,9.824922607421875,7.704159834110737,-2.6970021191924807,0.04575038217529654
1761475867326899500,9.8348994140625,6.72959291717708,-2.0979377632819114,0.15324563818909226
1761475867336876500,9.84487646484375,6.065580142146349,-1.4548095169782638,0.2730254254322499
1761475867346853600,9.854853515625,5.782585038298368,-0.8471636490747332,0.15293883726224303
1761475867356830700,9.864830810546875,5.95003886925578,-0.4849481473870575,-0.05117562209442258
1761475867366807800,9.874807861328126,6.749981040689349,-0.09555047813281416,-0.06065839377604425
1761475867376784600,9.88478466796875,8.000240044981242,0.3955614525809884,-0.15175846837125717
1761475867386761700,9.89476171875,9.073146924635767,0.8013347948357462,0.08318067977279424
1761475867396738600,9.904738525390625,9.859247617721557,1.2216675544492899,0.4366029264129698
1761475867406715600,9.914715576171876,10.236147332191466,1.606727486760169,0.5921731350921094
1761475867416692700,9.924692626953124,9.564295534098148,1.9420489901728928,0.5773412574674934
1761475867426669600,9.934669677734375,7.829025984707474,2.238988009829819,0.2222580918777734
1761475867436646700,9.944646728515625,5.637275234609842,2.233122624927759,-0.3046370998788625
1761475867446623500,9.95462353515625,3.2700311394840478,2.066536370585114,-0.8234859094325453
1761475867456600600,9.9646005859375,0.9482102404057979,1.4502962773375212,-0.9179744574222714
1761475867466577400,9.974577392578125,-0.8335556872218847,-0.32522768716067074,-0.3946186918381601
1761475867476554800,9.9845546875,-1.0638064583539961,-1.7428832392647862,-0.06762333741784095
1761475867486531800,9.99453173828125,-0.35294483838677404,-2.0296905948773025,-0.8590957866698503
1761475867496508700,10.0045087890625,-1.8191051859408616,-2.779528426709771,-1.5519922724880277
1761475867506485800,10.01448583984375,-7.530254050534963,-3.9753412628039717,-2.28480020519495
1761475867516462600,10.024462646484375,-16.250385409635303,-4.879252927277982,-2.7716557936385273
1761475867526439700,10.034439697265626,-23.055640593779085,-6.47129035603702,-0.8741402110666036
1761475867536416500,10.04441650390625,-23.990868603014945,-6.19627631407082,1.3678705075852573
1761475867546393600,10.0543935546875,-20.664015506112573,-3.5693364498808977,2.9446324796706436
1761475867556370700,10.06437060546875,-15.895096638470887,-0.8560574418872594,2.25541175975576
1761475867566348500,10.0743486328125,-13.140503331053257,-0.019078794479370116,0.29252650044430045
1761475867576325600,10.08432568359375,-14.626446821963786,-0.27309184173196555,-1.8738494603022933
1761475867586302500,10.094302490234375,-16.23068117673397,-0.3626259821847081,-3.2128950015500184
1761475867596279600,10.104279541015625,-15.500634379303454,-1.2276686945602298,-2.705241247488558
1761475867606256600,10.114256591796876,-12.89636724243164,-2.0821397440388796,-1.672089016725868
1761475867616233500,10.1242333984375,-9.613617491149903,-2.070736891014874,-1.6593484853573142
1761475867626210800,10.1342109375,-6.587181173017621,-1.3998390326455235,-1.6638414128623902
1761475867636187600,10.144187744140625,-3.744862820395827,-0.06581921060532331,-1.283652885980159
1761475867646164700,10.154164794921876,-1.164934590488672,1.3366802734211087,-0.5949846853815018
1761475867656141600,10.1641416015625,0.8208341528147458,2.3789377477899194,0.395032460270822
1761475867666118700,10.17411865234375,2.1539000351309774,3.0940421198934316,0.5762641662878916
1761475867676095700,10.184095703125,3.0922575745642185,3.71919529517591,0.07699493120941334
1761475867686072600,10.194072509765626,3.662914605027437,3.78785528216511,0.1162175464506261
1761475867696049700,10.204049560546874,4.077504875466227,2.8835204238429664,0.7089801170695572
1761475867706026500,10.214026611328125,5.235235233664512,1.819654344256222,1.3185996961988509
1761475867716003600,10.224003662109375,7.244031216812133,1.2563120207205414,1.513398191808164
1761475867725980400,10.23398046875,9.159446320950984,0.9454963052719831,1.3539450042158365
1761475867735957500,10.24395751953125,10.323548552268743,0.4941965988561511,1.2209984230160713
1761475867745934800,10.253934814453125,10.742836625134943,0.019117957445979116,1.0509583749577402
1761475867755911700,10.26391162109375,10.647893903636932,-0.31924364431500435,0.8416258886918425
1761475867765888800,10.273888671875,10.320968472647666,-0.32302696224600075,0.6543425910182297
1761475867775865600,10.283865478515626,9.907941798263789,0.03845657190531492,0.49402902373690155
1761475867785842700,10.2938427734375,9.286063699129222,0.3774517953947186,0.4226213454747572
1761475867795819500,10.303819580078125,8.438094286629557,0.5159294149756432,0.37014541790410876
1761475867805796600,10.313796630859375,7.64018215971887,0.8124588309183717,0.231443488048017
1761475867815773700,10.323773681640626,7.423570037838816,1.3415823662489652,0.3096537589970976
1761475867825750500,10.33375048828125,7.7910688867568965,1.9231813542261718,0.5578631614722311
1761475867835727600,10.3437275390625,8.416168870547413,2.6243252977773546,0.6184689482782035
1761475867845704400,10.353704345703125,9.45408860797286,3.163545864230394,0.3450294621523469
1761475867855681500,10.363681640625,10.333977591824532,3.558808041603863,-0.1845934740677476
1761475867865659600,10.37365966796875,10.176390490365028,3.6695012899413704,-0.4290991997193545
1761475867875636500,10.383636474609375,9.317183060014248,3.472890922604501,-0.28655571893900633
1761475867885613600,10.393613525390625,8.455298519408702,3.2987881551519034,-0.19129794014245272
1761475867895590700,10.403590576171876,7.507092955178022,2.8156211920931935,-0.2678321676380932
1761475867905567700,10.413567626953125,6.60452686009407,2.2561568790346382,-0.9360133143946527
1761475867915544800,10.423544921875,5.626246475595235,2.068022955881059,-1.6545166812866925
1761475867925521700,10.433521728515625,4.052004523506761,1.7535916802838443,-2.144470674137026
1761475867935498800,10.443498779296876,2.024909498080611,0.6247469325691462,-1.9296943893820047
1761475867945475600,10.4534755859375,0.4964326873451471,-0.9920449982181191,-1.1282982928130776
1761475867955452700,10.46345263671875,-0.6001818156331777,-1.0976944071695207,-1.4473016255661844
1761475867965429500,10.473429443359375,-2.421712182894349,0.3368503204151988,-2.652221312701702
1761475867975406600,10.483406494140626,-6.699498223164677,-0.3328223800733685,-2.278205921496451
1761475867985383400,10.493383544921874,-13.016104213446377,-2.2802385963678358,-0.9012953444957733
1761475867995360500,10.503360595703125,-17.02406676613092,-2.7020941816344854,0.6030563481561839
1761475868005337600,10.513337646484375,-16.542075861114263,-3.248697259554267,3.0989439204603433
1761475868015314700,10.523314697265626,-14.364233809381723,-4.006839393873513,5.183136797636747
1761475868025291800,10.533291748046874,-12.279399711692333,-3.930358211739361,5.840680084392428
1761475868035268600,10.5432685546875,-10.052537316203116,-3.9614354870483277,5.433635991549491
1761475868045245700,10.55324560546875,-8.569337571042775,-3.591406242869794,3.9905969918638466
1761475868055222500,10.563222412109376,-8.793065077885984,-2.4476702154934404,1.762839839491993
1761475868065199600,10.57319970703125,-10.624168160134554,-1.010256946735084,-0.44597321416344493
1761475868075176700,10.5831767578125,-12.93044019242525,-0.3495172020256519,-1.5653978436365723
1761475868085153500,10.593153564453125,-13.492249899566172,-0.7440037188515066,-1.5260048676639795
1761475868095130600,10.603130615234376,-12.331723773169516,-1.6547158571206033,-1.4863245991826057
1761475868105107500,10.613107421875,-9.797186006084084,-1.5228433348931372,-1.4994415626481175
1761475868115084500,10.62308447265625,-6.415989909097552,-0.8919456246092915,-1.716726761484146
1761475868125061600,10.6330615234375,-2.84340673238039,-0.18761223736703395,-1.4890861728504299
1761475868135038700,10.643038818359376,0.12409224361479282,0.3588859188735485,-0.8685159414440393
1761475868145015800,10.653015869140624,1.8999983392983675,0.6041608022667467,-0.6762594584677368
1761475868154993400,10.662993408203125,2.5208476799070834,0.8129626887872815,-1.2853650967255235
1761475868164970800,10.672970703125,2.4640567021489144,1.3029320253372192,-2.0061438612036406
1761475868174947800,10.68294775390625,2.0569477273762224,1.433512461927533,-1.954731507743895
1761475868184924700,10.692924560546874,2.1203151609152555,0.80010159977898,-1.2686759738616644
1761475868194901800,10.70290185546875,2.9334540830522773,-0.06126439684517681,-0.7720803510397672
1761475868204878600,10.712878662109375,4.2116555717587465,-0.8544782829370349,-0.6575134030740708
1761475868214855700,10.722855712890626,5.81549771234095,-0.9983166258335113,-0.6671542148616164
1761475868224832500,10.73283251953125,7.446354701098799,-0.49052726269364355,-0.5712245281528682
1761475868234809600,10.7428095703125,8.493502285596728,-0.2139883492477238,-0.47156000229734923
1761475868244786700,10.75278662109375,8.344455633467435,-0.8275416876293719,-0.5724717882676049
1761475868254763500,10.762763427734376,8.113417511349915,-1.1655974383115768,-0.876046483079344
1761475868264740600,10.77274072265625,8.084723916307091,-0.10579174003154039,-1.5382424179464578
1761475868274717700,10.7827177734375,7.688273698192835,0.06417758087813853,-0.27982138744900004
1761475868284695000,10.792695068359375,8.403128187188505,1.3308899995818733,-0.3327830709762871
1761475868294672100,10.802672119140626,9.648083824375272,1.9592039769828318,-0.10433350404724478
1761475868304649200,10.812649169921874,9.188271433418988,0.7793715309612452,1.5619161390006542
1761475868314626000,10.8226259765625,9.29657164914012,0.27608605511188505,1.72192257656157
1761475868324603100,10.83260302734375,8.902145630329846,-0.23685046165809034,1.582299001815915
1761475868334580000,10.842580078125,6.240867150947452,-1.5113830525934695,1.9013579372137783
1761475868344557000,10.85255712890625,3.7560470622330904,-1.8726631731271743,1.5214217776574193
1761475868354534100,10.8625341796875,3.3350960245907304,-0.5044199597720056,0.3226559004439041
1761475868364511000,10.872510986328125,3.5965994275987145,0.9936071329683065,-0.18578619098365307
1761475868374488000,10.882488037109376,3.893476341804862,2.2322753604486585,-0.39911567446384577
1761475868384465000,10.89246484375,3.558292785558104,2.763020067240298,-0.4973459662651643
1761475868394442000,10.90244189453125,2.6630408128798004,2.10680393743515,-0.94472795124799
1761475868404419000,10.912419189453125,0.8484417061865329,1.5410066219627856,-0.22367683610189704
1761475868414396200,10.922396240234375,-1.2673504243463276,0.4309901280324906,1.2128129246033728
1761475868424373200,10.932373291015624,-2.103712401160598,-0.3424059087157249,1.3726307077243924
1761475868434350000,10.94235009765625,-1.6663351293742656,-0.49764147861301894,-0.05584149501360953
1761475868444327200,10.9523271484375,-2.0655401991546154,-0.5323755228638649,-0.8221943352520465
1761475868454305000,10.962304931640626,-3.563993043026328,-1.0833687985666096,0.3452064261544496
1761475868464282000,10.9722822265625,-5.005108381173014,-1.026920496766269,0.6640116059869527
1761475868474259200,10.98225927734375,-5.789790439632535,-1.3266774964533745,1.968076288615912
1761475868484236000,10.992236083984375,-5.793121045359968,-3.3807319866061207,5.269170236492156
1761475868494213000,11.002213134765626,-2.399123334467411,-3.519033372837305,3.8465249132767316
1761475868504190000,11.01218994140625,1.3069967905580997,-0.1705894986346364,-1.3307391929343342
1761475868514167000,11.0221669921875,0.9968412925839424,1.9747741788193582,-4.018907432807982
1761475868524143900,11.032143798828125,-1.4001619809895753,3.518173541137576,-4.607261155742407
1761475868534121000,11.042120849609375,-4.695246897709369,3.820869370755553,-3.382561247859895
1761475868544098000,11.05209814453125,-7.831295683205127,2.836184964433312,-1.8403883585967122
1761475868554075000,11.062074951171875,-8.984503595542908,1.42757810344249,-0.10315965622859075
1761475868564052200,11.07205224609375,-8.686556421756745,-0.045250615959614514,0.636306437459588
1761475868574029000,11.082029052734375,-7.098517999505996,-1.1242091238033025,0.017350217121094465
1761475868584006100,11.092006103515626,-5.165720967933535,-1.7202525975227354,-1.2124950177606195
1761475868593983000,11.10198291015625,-3.47021644269824,-2.063472745230794,-2.2599549561433494
1761475868603960000,11.1119599609375,-2.323012739211321,-1.9320251704171298,-2.925185436400771
1761475868613937200,11.121937255859375,-1.9851117406994103,-1.3479802505925298,-3.0154893921822308
1761475868623914000,11.1319140625,-2.4337410588622093,-0.5965721737686545,-1.8813108822241424
1761475868633891000,11.14189111328125,-2.84555192771554,-0.26737466966155915,0.6512532467007637
1761475868643868000,11.151867919921875,-2.2147253829717637,-0.16063830572366714,1.70420031125769
1761475868653845000,11.161844970703125,-0.7215034254908561,-0.5163369728632271,1.3345206111691892
1761475868663821800,11.17182177734375,1.025072530812025,-1.1252180816501378,0.9736372348681092
1761475868673799000,11.181798828125,2.538284552398324,-1.6505889864489436,0.6062527330446988
1761475868683776300,11.1917763671875,3.7428234235227107,-2.0016022722512483,0.5125574177918956
1761475868693753000,11.201753173828125,4.145737284693122,-2.2080977815255523,0.5583928844347595
