time,seconds_elapsed,z,y,x
1761475891345847600,0.06584765625,0.5328853726387024,-0.11855658143758774,0.14806872606277466
1761475891355824600,0.07582470703125,0.5419508218765259,-0.04795416072010994,0.17174528539180756
1761475891365801500,0.085801513671875,0.537907600402832,0.03946330398321152,0.15370316803455353
1761475891375778600,0.095778564453125,0.5441743731498718,0.08984871953725815,0.11514395475387573
1761475891385756000,0.105755859375,0.5462761521339417,0.08227202296257019,0.08523719012737274
1761475891395732700,0.115732666015625,0.521142840385437,0.06577183306217194,0.06409162282943726
1761475891405709800,0.125709716796875,0.47505179047584534,0.034978237003088,0.046406637877225876
1761475891415686700,0.135686767578125,0.43198394775390625,-0.05438040569424629,0.014557361602783203
1761475891425663700,0.145663818359375,0.38906630873680115,-0.12373551726341248,-0.03503868728876114
1761475891435640600,0.155640625,0.3498295843601227,-0.15193669497966766,-0.0909803956747055
1761475891445617700,0.16561767578125,0.3223779797554016,-0.16861926019191742,-0.14312748610973358
1761475891455593500,0.175593505859375,0.3080716133117676,-0.15361866354942322,-0.14966745674610138
1761475891465570800,0.18557080078125,0.3039511740207672,-0.10112269967794418,-0.11076638102531433
1761475891475548000,0.1955478515625,0.3021591603755951,-0.05214763805270195,-0.025415046140551567
1761475891485524700,0.205524658203125,0.2982320487499237,-0.016914285719394684,0.06362135708332062
1761475891495501800,0.215501708984375,0.2926190495491028,0.02992360293865204,0.16046003997325897
1761475891505478700,0.225478759765625,0.2978058457374573,0.08450029045343399,0.24066779017448425
1761475891515455700,0.235455810546875,0.3133869171142578,0.12179839611053467,0.2980716824531555
1761475891525432600,0.2454326171875,0.33354759216308594,0.13769614696502686,0.3367314636707306
1761475891535409700,0.25540966796875,0.34219738841056824,0.14319682121276855,0.3564377725124359
1761475891545386800,0.26538671875,0.33351361751556396,0.14099732041358948,0.3781912624835968
1761475891555363600,0.275363525390625,0.3216458857059479,0.12429499626159668,0.3943149745464325
1761475891565340700,0.285340576171875,0.3246837556362152,0.08684376627206802,0.4216509759426117
1761475891575317500,0.2953173828125,0.34718799591064453,0.1175302043557167,0.47561004757881165
1761475891585294800,0.305294921875,0.3851263225078583,0.1485736072063446,0.524483859539032
1761475891595271700,0.315271728515625,0.4026697278022766,0.15412023663520813,0.551565408706665
1761475891605247700,0.325247802734375,0.3718084692955017,0.12013616412878036,0.5507794618606567
1761475891615224600,0.335224609375,0.29227766394615173,0.04409471154212952,0.5038011074066162
1761475891625201700,0.34520166015625,0.1969122737646103,-0.07655847072601318,0.454910010099411
1761475891635178500,0.355178466796875,0.1492416262626648,-0.3394394814968109,0.3935977518558502
1761475891645155600,0.365155517578125,0.06904799491167068,-0.6164045333862305,0.34277236461639404
1761475891655132700,0.375132568359375,-0.07854393869638443,-0.860287606716156,0.23668760061264038
1761475891665109800,0.38510986328125,-0.22074875235557556,-0.9072039723396301,0.10956508666276932
1761475891675086800,0.3950869140625,-0.26449763774871826,-0.7584763169288635,-0.0279824361205101
1761475891685063700,0.405063720703125,-0.14817260205745697,-0.64576655626297,-0.24312350153923035
1761475891695040800,0.415040771484375,0.02215883880853653,-0.45641791820526123,-0.4419457018375397
1761475891705017600,0.425017578125,0.2072056531906128,-0.09236034005880356,-0.6291046738624573
1761475891714994700,0.43499462890625,0.4028342366218567,0.2698366045951843,-0.8201372027397156
1761475891724971800,0.4449716796875,0.5353771448135376,0.5846989154815674,-0.9944027662277222
1761475891734948600,0.454948486328125,0.7426263689994812,0.9634304642677307,-1.1910467147827148
1761475891744924700,0.464924560546875,1.1037449836730957,1.3594629764556885,-1.4252586364746094
1761475891754901800,0.47490185546875,1.3928980827331543,1.5891040563583374,-1.5795154571533203
1761475891764878800,0.48487890625,1.4440888166427612,1.6801133155822754,-1.6043955087661743
1761475891774855700,0.494855712890625,1.2905851602554321,1.6265677213668823,-1.534031867980957
1761475891784832800,0.504832763671875,0.9588741064071655,1.4730799198150635,-1.3779383897781372
1761475891794809600,0.5148095703125,0.5556818842887878,1.274845004081726,-1.1401444673538208
1761475891804786700,0.52478662109375,0.14091721177101135,1.0299623012542725,-0.8498498797416687
1761475891814763800,0.534763671875,-0.12198885530233383,0.47738146781921387,-0.5931105613708496
1761475891824740600,0.54474072265625,-0.25235724449157715,0.016920920461416245,-0.26400986313819885
1761475891834717700,0.5547177734375,-0.3422642648220062,-0.3282228410243988,0.09331901371479034
1761475891844694500,0.564694580078125,-0.421144962310791,-0.6528358459472656,0.3937219977378845
1761475891854671600,0.574671630859375,-0.49264994263648987,-0.8607004284858704,0.6364673376083374
1761475891864648700,0.584648681640625,-0.5531563758850098,-0.9370399713516235,0.8123840689659119
1761475891874625800,0.594625732421875,-0.5795629620552063,-0.9191874861717224,0.8840065002441406
1761475891884603000,0.604602783203125,-0.5679108500480652,-0.808178722858429,0.861709713935852
1761475891894578700,0.61457861328125,-0.5272860527038574,-0.6682152152061462,0.7450519800186157
1761475891904555800,0.6245556640625,-0.48136457800865173,-0.5288490653038025,0.6072707176208496
1761475891914532600,0.63453271484375,-0.42657384276390076,-0.40141427516937256,0.5032791495323181
1761475891924509700,0.644509765625,-0.3312894105911255,-0.3074997663497925,0.41557618975639343
1761475891934486500,0.654486572265625,-0.2214401662349701,-0.2495984137058258,0.3898496925830841
1761475891944463600,0.664463623046875,-0.13885793089866638,-0.24722740054130554,0.42084968090057373
1761475891954440700,0.674440673828125,-0.15536625683307648,-0.13551628589630127,0.4142003059387207
1761475891964417800,0.684417724609375,-0.24554915726184845,-0.02752537466585636,0.4304637014865875
1761475891974395000,0.694394775390625,-0.34116727113723755,-0.06419837474822998,0.48221951723098755
1761475891984371700,0.704371826171875,-0.3950211703777313,-0.309187650680542,0.5502195954322815
1761475891994348800,0.714348876953125,-0.40808218717575073,-0.5948795676231384,0.6084621548652649
1761475892004325600,0.72432568359375,-0.3924553096294403,-0.8908790349960327,0.6210269331932068
1761475892014302700,0.734302734375,-0.41340094804763794,-1.0461715459823608,0.6097814440727234
1761475892024279600,0.744279541015625,-0.4712599813938141,-0.9761010408401489,0.5693613290786743
1761475892034255600,0.754255615234375,-0.5046897530555725,-0.6583752632141113,0.5053398013114929
1761475892044232700,0.764232666015625,-0.4749603271484375,-0.26913881301879883,0.4385911226272583
1761475892054209800,0.774209716796875,-0.29361632466316223,-0.006437086034566164,0.36250177025794983
1761475892064186600,0.7841865234375,-0.056941188871860504,0.1490105539560318,0.23247478902339935
1761475892074163700,0.794163818359375,0.07678382098674774,0.3181067109107971,0.06472031027078629
1761475892084140800,0.804140869140625,0.1159176379442215,0.48828431963920593,-0.09785874933004379
1761475892094117600,0.81411767578125,0.13152122497558594,0.6672217845916748,-0.20600338280200958
1761475892104094700,0.8240947265625,0.10339292138814926,1.0264226198196411,-0.28392907977104187
1761475892114071600,0.834071533203125,0.06002464517951012,1.2542221546173096,-0.35639896988868713
1761475892124048600,0.844048583984375,0.013670196756720543,1.1344517469406128,-0.4005051851272583
1761475892134025500,0.854025390625,-0.11110647022724152,0.931674063205719,-0.4259830713272095
1761475892144002600,0.86400244140625,-0.3322913348674774,0.8091683983802795,-0.44110289216041565
1761475892153980000,0.87397998046875,-0.44026196002960205,0.48563647270202637,-0.4310469627380371
1761475892163956700,0.883956787109375,-0.46712154150009155,0.1476147472858429,-0.3627925515174866
1761475892173932800,0.893932861328125,-0.48085588216781616,-0.11817313730716705,-0.25001266598701477
1761475892183909600,0.90390966796875,-0.4726717174053192,-0.3033296763896942,-0.13220879435539246
1761475892193886700,0.91388671875,-0.4594665467739105,-0.4611922800540924,-0.059458889067173004
1761475892203863600,0.923863525390625,-0.4643324315547943,-0.5913203954696655,-0.0554598867893219
1761475892213840600,0.933840576171875,-0.5180764198303223,-0.6554083824157715,-0.13501960039138794
1761475892223817500,0.9438173828125,-0.6022046208381653,-0.6239258050918579,-0.26793742179870605
1761475892233794800,0.953794921875,-0.6859970092773438,-0.5290448665618896,-0.4233506917953491
1761475892243772000,0.96377197265625,-0.7332180142402649,-0.4048566222190857,-0.5911176204681396
1761475892253748700,0.973748779296875,-0.7342587113380432,-0.29141366481781006,-0.7329435348510742
1761475892263725800,0.983725830078125,-0.6762183308601379,-0.17054955661296844,-0.8287360668182373
1761475892273702700,0.99370263671875,-0.5742388963699341,-0.06412969529628754,-0.908904492855072
1761475892283679700,1.0036796875,-0.44924959540367126,0.042986102402210236,-0.9851046800613403
1761475892293656600,1.013656494140625,-0.33129987120628357,0.19850832223892212,-1.0058298110961914
1761475892303633700,1.023633544921875,-0.24680255353450775,0.40511155128479004,-0.9643194675445557
1761475892313607700,1.033607666015625,-0.20459036529064178,0.6223750710487366,-0.8678411245346069
1761475892323584500,1.04358447265625,-0.18799781799316406,0.7827690243721008,-0.7102541923522949
1761475892333561600,1.0535615234375,-0.17230936884880066,0.8767778277397156,-0.5094702839851379
1761475892343538400,1.063538330078125,-0.14045822620391846,0.8485056757926941,-0.32983362674713135
1761475892353515500,1.073515625,-0.11609060317277908,0.6528906226158142,-0.20397020876407623
1761475892363492600,1.08349267578125,-0.1283901482820511,0.3304364085197449,-0.11522462218999863
1761475892373469700,1.0934697265625,-0.12481699138879776,0.021149134263396263,-0.006736496463418007
1761475892383446800,1.10344677734375,-0.11601550132036209,-0.16270723938941956,0.14190544188022614
1761475892393423600,1.113423583984375,-0.11984310299158096,-0.23593029379844666,0.320164293050766
1761475892403400700,1.123400634765625,-0.06052732095122337,-0.3234769105911255,0.5157521963119507
1761475892413377500,1.13337744140625,0.07929443567991257,-0.42236432433128357,0.7590337991714478
1761475892423354600,1.143354736328125,0.2785617411136627,-0.397188663482666,1.0670735836029053
1761475892433331500,1.15333154296875,0.4003167152404785,-0.28318506479263306,1.335862159729004
1761475892443307500,1.1633076171875,0.3343683183193207,-0.170981302857399,1.5525808334350586
1761475892453284600,1.17328466796875,0.182769775390625,0.005516883917152882,1.8748911619186401
1761475892463261700,1.18326171875,0.03781924769282341,0.11177514493465424,2.2507476806640625
1761475892473238800,1.19323876953125,-0.03709553927183151,0.04650638625025749,2.6356897354125977
1761475892483215600,1.203215576171875,0.005093723069876432,-0.1315682828426361,3.020454168319702
1761475892493192700,1.213192626953125,0.11974836140871048,-0.2281898409128189,3.3926665782928467
1761475892503169500,1.22316943359375,0.2360808253288269,-0.12361310422420502,3.687702178955078
1761475892513146600,1.233146728515625,0.31974849104881287,0.19470149278640747,3.899980068206787
1761475892523123500,1.24312353515625,0.35413306951522827,0.5449345707893372,3.97031307220459
1761475892533100500,1.2531005859375,0.3365550935268402,0.7234305739402771,3.7942075729370117
1761475892543077600,1.26307763671875,0.26255276799201965,0.6355907320976257,3.397495985031128
1761475892553054500,1.273054443359375,0.1507415622472763,0.40998223423957825,2.883592367172241
1761475892563031600,1.283031494140625,0.049686308950185776,0.19919756054878235,2.301090717315674
1761475892573007600,1.293007568359375,-0.03377542272210121,0.0037597680930048227,1.6495599746704102
1761475892582984700,1.302984619140625,-0.09478364139795303,-0.16826578974723816,0.978689432144165
1761475892592961500,1.31296142578125,-0.11550401896238327,-0.3856838345527649,0.3337229788303375
1761475892602938600,1.322938720703125,-0.11445792764425278,-0.5345004796981812,-0.2594463527202606
1761475892612915500,1.33291552734375,-0.1409379243850708,-0.5283859968185425,-0.7990449666976929
1761475892622892500,1.342892578125,-0.18543881177902222,-0.3881966173648834,-1.2830792665481567
1761475892632869400,1.352869384765625,-0.22776538133621216,-0.18087154626846313,-1.757872462272644
1761475892642846500,1.362846435546875,-0.24609723687171936,-0.008156755939126015,-2.2570841312408447
1761475892652823800,1.37282373046875,-0.22461722791194916,0.1693698763847351,-2.7458646297454834
1761475892662800600,1.382800537109375,-0.14700818061828613,0.40390223264694214,-3.111910820007324
1761475892672777700,1.39277783203125,-0.02110384777188301,0.7437833547592163,-3.2717456817626953
1761475892682754600,1.402754638671875,0.07887494564056396,1.0806431770324707,-3.238281488418579
1761475892692731600,1.412731689453125,0.09950835257768631,1.360970377922058,-3.0796139240264893
1761475892702707500,1.42270751953125,0.05052109807729721,1.5375715494155884,-2.8762261867523193
1761475892712684500,1.4326845703125,-0.07655896246433258,1.5715223550796509,-2.7514472007751465
1761475892722661400,1.442661376953125,-0.2550376355648041,1.4463484287261963,-2.6952903270721436
1761475892732638700,1.452638671875,-0.3982163965702057,1.230110764503479,-2.599417209625244
1761475892742615800,1.46261572265625,-0.43518534302711487,1.0304490327835083,-2.3596315383911133
1761475892752592600,1.472592529296875,-0.34054553508758545,0.8455943465232849,-1.9282442331314087
1761475892762569700,1.48256982421875,-0.1640370488166809,0.6240225434303284,-1.387985348701477
1761475892772546600,1.492546630859375,0.05174344778060913,0.3463759124279022,-0.8623644113540649
1761475892782523600,1.502523681640625,0.24589668214321136,0.0457545630633831,-0.5049066543579102
1761475892792500500,1.51250048828125,0.4017891585826874,-0.23631738126277924,-0.34685567021369934
1761475892802477600,1.5224775390625,0.5274120569229126,-0.3880262076854706,-0.3535231649875641
1761475892812454700,1.53245458984375,0.5961059331893921,-0.42622095346450806,-0.47851961851119995
1761475892822431500,1.542431396484375,0.6217377781867981,-0.40962493419647217,-0.6881722211837769
1761475892832408600,1.55240869140625,0.6343963742256165,-0.340206503868103,-0.8933541774749756
1761475892842384600,1.562384521484375,0.6436636447906494,-0.16730104386806488,-1.0014833211898804
1761475892852361700,1.57236181640625,0.6183925271034241,0.10102970153093338,-0.971222460269928
1761475892862338600,1.582338623046875,0.5731731057167053,0.4143173098564148,-0.8233517408370972
1761475892872315600,1.592315673828125,0.4903859496116638,0.7017483115196228,-0.6035906076431274
1761475892882292500,1.60229248046875,0.354392945766449,0.8939257264137268,-0.38193196058273315
1761475892892269600,1.61226953125,0.16347326338291168,0.9254711270332336,-0.20587268471717834
1761475892902246700,1.62224658203125,-0.02718537300825119,0.756514310836792,-0.03597339615225792
1761475892912223500,1.632223388671875,-0.18792971968650818,0.42519962787628174,0.17952950298786163
1761475892922200600,1.64220068359375,-0.28879883885383606,0.030313575640320778,0.41119682788848877
1761475892932177700,1.652177734375,-0.3582704961299896,-0.33917859196662903,0.6078124046325684
1761475892942154800,1.66215478515625,-0.4455670416355133,-0.6487734317779541,0.717824399471283
1761475892952131600,1.672131591796875,-0.432373583316803,-0.8642608523368835,0.7942395806312561
1761475892962108700,1.682108642578125,-0.21840107440948486,-0.910548985004425,0.8769741654396057
1761475892972084500,1.69208447265625,0.14328564703464508,-0.8494710922241211,0.9814918637275696
1761475892982061600,1.7020615234375,0.5411568284034729,-0.8070762157440186,1.0931215286254883
1761475892992038400,1.712038330078125,0.8465417623519897,-0.7573109865188599,1.1608628034591675
1761475893002015500,1.722015380859375,0.8836590051651001,-0.7762522101402283,1.002660870552063
1761475893011992600,1.73199267578125,0.7293440699577332,-0.6627271175384521,0.833885908126831
1761475893021969700,1.7419697265625,0.5933561325073242,-0.13147655129432678,1.1514185667037964
1761475893031946800,1.75194677734375,0.6013226509094238,0.5106636881828308,1.9754557609558105
1761475893041923600,1.761923583984375,0.8480240106582642,0.7777835130691528,2.864457845687866
1761475893051900700,1.771900634765625,1.1624699831008911,0.5357754230499268,3.3678555488586426
1761475893061877500,1.78187744140625,1.315865159034729,-0.05753820016980171,3.416806936264038
1761475893071854600,1.7918544921875,1.3099530935287476,-0.7875673770904541,3.1187455654144287
1761475893081831700,1.801831787109375,1.2403756380081177,-1.5209126472473145,2.6075279712677
1761475893091808500,1.81180859375,1.1419196128845215,-2.0710484981536865,1.9894787073135376
1761475893101784800,1.821784912109375,1.0989856719970703,-2.3475396633148193,1.37288498878479
1761475893111761700,1.83176171875,1.069461703300476,-2.3463213443756104,0.7148476243019104
1761475893121738800,1.84173876953125,0.9876717925071716,-2.0361366271972656,-0.0487201064825058
1761475893131715600,1.851715576171875,0.9177860021591187,-1.3830926418304443,-0.7902211546897888
1761475893141692700,1.861692626953125,0.8460758924484253,-0.524107813835144,-1.4202451705932617
1761475893151669500,1.87166943359375,0.7771276831626892,0.302511990070343,-1.870388388633728
1761475893161646600,1.881646484375,0.7617572546005249,0.8572103381156921,-2.1623997688293457
1761475893171623700,1.891623779296875,0.6855958104133606,1.1324578523635864,-2.371774673461914
1761475893181600500,1.9016005859375,0.4998086094856262,1.1767582893371582,-2.4311015605926514
1761475893191577600,1.91157763671875,0.30999401211738586,1.022416353225708,-2.2637386322021484
1761475893201554400,1.921554443359375,0.15453624725341797,0.7794634103775024,-1.8890900611877441
1761475893211531500,1.931531494140625,0.008753186091780663,0.5723447799682617,-1.40873384475708
1761475893221507600,1.941507568359375,-0.15068680047988892,0.37287744879722595,-0.9446282386779785
1761475893231484700,1.951484619140625,-0.32716283202171326,0.10429217666387558,-0.5471814274787903
1761475893241461500,1.96146142578125,-0.5358532667160034,-0.24507753551006317,-0.2590968906879425
1761475893251438600,1.9714384765625,-0.7801042795181274,-0.6262456774711609,-0.12632983922958374
1761475893261415400,1.98141552734375,-1.0206806659698486,-0.9301155209541321,-0.15358994901180267
1761475893271392500,1.991392578125,-1.186949610710144,-1.0489732027053833,-0.3406006991863251
1761475893281369600,2.00136962890625,-1.2344050407409668,-0.9474157094955444,-0.640396773815155
1761475893291346400,2.011346435546875,-1.1980081796646118,-0.6444545388221741,-0.941017746925354
1761475893301323800,2.02132373046875,-1.0793912410736084,-0.19637714326381683,-1.1591825485229492
1761475893311300900,2.03130078125,-0.8920907378196716,0.24037602543830872,-1.243918538093567
1761475893321278000,2.04127783203125,-0.6958903074264526,0.5900938510894775,-1.2079877853393555
1761475893331254800,2.0512548828125,-0.5420486330986023,0.8492118716239929,-1.1250423192977905
1761475893341231900,2.06123193359375,-0.4200764298439026,1.0656582117080688,-1.045932650566101
1761475893351207700,2.071207763671875,-0.33293700218200684,1.2663209438323975,-0.9943916201591492
1761475893361184800,2.081184814453125,-0.2600252330303192,1.4309238195419312,-0.9678769111633301
1761475893371161600,2.09116162109375,-0.22976996004581451,1.529952883720398,-0.9614439010620117
1761475893381138700,2.101138671875,-0.2691349387168884,1.5603587627410889,-0.9595903754234314
1761475893391115800,2.11111572265625,-0.36490002274513245,1.5114877223968506,-0.9714489579200745
1761475893401092900,2.1210927734375,-0.4946920871734619,1.3619331121444702,-0.9735634922981262
1761475893411070000,2.131070068359375,-0.5768464207649231,1.1417044401168823,-0.9150639176368713
1761475893421046800,2.141046875,-0.5582772493362427,0.9835624098777771,-0.746302604675293
1761475893431023900,2.15102392578125,-0.4606201946735382,0.9236205220222473,-0.49601736664772034
1761475893441000700,2.161000732421875,-0.3088895380496979,0.9497379064559937,-0.16558592021465302
1761475893450977800,2.170977783203125,-0.13352736830711365,1.0613795518875122,0.23284876346588135
1761475893460955000,2.180954833984375,0.028250088915228844,1.203816533088684,0.6226205229759216
1761475893470930700,2.1909306640625,0.15997131168842316,1.2978585958480835,0.9383537769317627
1761475893480908000,2.200907958984375,0.22659775614738464,1.3434633016586304,1.1586276292800903
1761475893490884900,2.210884765625,0.17852438986301422,1.3120523691177368,1.256962537765503
1761475893500862000,2.220862060546875,0.05203435942530632,1.122104525566101,1.207714319229126
1761475893510838800,2.2308388671875,-0.09821602702140808,0.7569262981414795,1.0623221397399902
1761475893520815900,2.24081591796875,-0.24291861057281494,0.3536810874938965,0.9241114258766174
1761475893530792700,2.250792724609375,-0.31327706575393677,0.08820163458585739,0.9324800968170166
1761475893540769800,2.260769775390625,-0.28140515089035034,-0.028327908366918564,1.1191202402114868
1761475893550747000,2.270746826171875,-0.21509884297847748,-0.00827766302973032,1.4006617069244385
1761475893560723700,2.2807236328125,-0.21257257461547852,0.008917302824556828,1.6025439500808716
1761475893570700800,2.29070068359375,-0.2730349898338318,-0.14204253256320953,1.6692277193069458
1761475893580677600,2.300677734375,-0.3874036371707916,-0.5874114632606506,1.627665638923645
1761475893590655000,2.310655029296875,-0.512704074382782,-1.1825878620147705,1.4367042779922485
1761475893600630800,2.320630859375,-0.5383180975914001,-1.6455628871917725,1.2585691213607788
1761475893610607900,2.33060791015625,-0.4119167625904083,-1.6677963733673096,1.3395028114318848
1761475893620584700,2.340584716796875,-0.2691638767719269,-1.2511144876480103,1.6495976448059082
1761475893630561800,2.350561767578125,-0.11551360785961151,-0.5749896764755249,1.9369722604751587
1761475893640538600,2.36053857421875,0.07827024161815643,0.09523659199476242,2.019665002822876
1761475893650515700,2.370515625,0.23680958151817322,0.3676537871360779,1.8329585790634155
1761475893660492800,2.380492919921875,0.40436315536499023,0.35565677285194397,1.5321176052093506
1761475893670470000,2.390469970703125,0.6224146485328674,0.20773212611675262,1.2176424264907837
1761475893680447000,2.400447021484375,0.7776252627372742,-0.01530974917113781,0.8476792573928833
1761475893690423800,2.410423828125,0.8348750472068787,-0.2874070405960083,0.4387601315975189
1761475893700401000,2.42040087890625,0.7985354065895081,-0.6126918792724609,0.07718755304813385
1761475893710377700,2.430377685546875,0.7499393224716187,-0.8688263297080994,-0.14824895560741425
1761475893720353800,2.440353759765625,0.731916069984436,-1.0035271644592285,-0.32169318199157715
1761475893730330600,2.45033056640625,0.6843816041946411,-0.8851078152656555,-0.500596821308136
1761475893740307700,2.4603076171875,0.548926830291748,-0.4707806408405304,-0.6537554860115051
1761475893750284800,2.470284912109375,0.4148716926574707,0.09039224684238434,-0.729408860206604
1761475893760262000,2.480261962890625,0.3415530025959015,0.4874383807182312,-0.7448142170906067
1761475893770239000,2.490239013671875,0.31357836723327637,0.6152303218841553,-0.6246532201766968
1761475893780215800,2.5002158203125,0.31035542488098145,0.5946075916290283,-0.3676083981990814
1761475893790193000,2.51019287109375,0.36006996035575867,0.5610971450805664,-0.15035030245780945
1761475893800169700,2.520169677734375,0.43614688515663147,0.6012118458747864,-0.17543594539165497
1761475893810146800,2.530146728515625,0.5188345909118652,0.6860713958740234,-0.4022795259952545
1761475893820124000,2.5401240234375,0.5762003660202026,0.7706334590911865,-0.6953436136245728
1761475893830100700,2.550100830078125,0.554209291934967,0.7859236001968384,-1.0001134872436523
1761475893840076800,2.560076904296875,0.41622740030288696,0.6487018465995789,-1.2709535360336304
1761475893850054000,2.570053955078125,0.1655908077955246,0.355974942445755,-1.4677693843841553
1761475893860031000,2.580031005859375,-0.10481111705303192,-0.03872711583971977,-1.566576600074768
1761475893870007800,2.5900078125,-0.3073121905326843,-0.34335342049598694,-1.6667227745056152
1761475893879985000,2.59998486328125,-0.4250103533267975,-0.4388434588909149,-1.872362494468689
1761475893889961700,2.609961669921875,-0.47435614466667175,-0.3675087094306946,-2.1883046627044678
1761475893899938800,2.619938720703125,-0.45238614082336426,-0.14326417446136475,-2.4641895294189453
1761475893909915600,2.62991552734375,-0.37536412477493286,0.20947431027889252,-2.5736987590789795
1761475893919892700,2.639892822265625,-0.2935377061367035,0.5878077745437622,-2.4524505138397217
1761475893929869800,2.649869873046875,-0.22072720527648926,0.8661986589431763,-2.1247718334198
1761475893939846700,2.6598466796875,-0.15605713427066803,1.0035687685012817,-1.656144618988037
1761475893949823700,2.66982373046875,-0.14364074170589447,0.9426930546760559,-1.1653392314910889
1761475893959799800,2.6797998046875,-0.2100011259317398,0.6928350329399109,-0.7434707880020142
1761475893969777000,2.68977685546875,-0.32442358136177063,0.31093913316726685,-0.44628652930259705
1761475893979753700,2.699753662109375,-0.429747074842453,-0.10750872641801834,-0.24944829940795898
1761475893989730800,2.709730712890625,-0.46145403385162354,-0.44256162643432617,-0.11731410026550293
1761475893999707600,2.719707763671875,-0.4090491533279419,-0.6254116296768188,-0.05299023911356926
1761475894009684700,2.729684814453125,-0.30468669533729553,-0.6647822856903076,-0.024568267166614532
1761475894019661800,2.739661865234375,-0.15041373670101166,-0.5549732446670532,-0.01044206041842699
1761475894029638700,2.749638671875,0.00011377857299521565,-0.3213580846786499,0.042249277234077454
1761475894039615700,2.75961572265625,0.14279848337173462,0.012641971930861473,0.1316545307636261
1761475894049592800,2.7695927734375,0.22737573087215424,0.3304310739040375,0.22386695444583893
1761475894059570000,2.77956982421875,0.22322626411914825,0.502798318862915,0.309398353099823
1761475894069545700,2.789545654296875,0.16964444518089294,0.5050037503242493,0.4236379563808441
1761475894079522800,2.799522705078125,0.10580793768167496,0.3650674521923065,0.549584150314331
1761475894089499600,2.809499755859375,0.007287172134965658,0.07646003365516663,0.596470057964325
1761475894099476700,2.819476806640625,-0.09267856925725937,-0.241096630692482,0.5862722396850586
1761475894109453800,2.829453857421875,-0.1449461728334427,-0.4330972135066986,0.6379027366638184
1761475894119430700,2.8394306640625,-0.11651559174060822,-0.5303755402565002,0.7706354856491089
1761475894129408000,2.849407958984375,-0.06172482296824455,-0.5637574195861816,0.8999658226966858
1761475894139384800,2.859384765625,0.07808954268693924,-0.5734513401985168,1.0257905721664429
1761475894149362000,2.86936181640625,0.358566015958786,-0.513144314289093,1.2435630559921265
1761475894159338800,2.8793388671875,0.6444219946861267,-0.4506196975708008,1.4846166372299194
1761475894169315800,2.88931591796875,0.745724081993103,-0.45819351077079773,1.5481754541397095
1761475894179293000,2.89929296875,0.629616379737854,-0.4920281767845154,1.4137567281723022
1761475894189268700,2.909268798828125,0.29605168104171753,-0.5529611110687256,1.2813022136688232
1761475894199245600,2.91924560546875,-0.13788938522338867,-0.5792771577835083,1.410288691520691
1761475894209223000,2.929222900390625,-0.3990516662597656,-0.5974507927894592,1.75861656665802
1761475894219200000,2.939199951171875,-0.36038440465927124,-0.6834349632263184,2.080286979675293
1761475894229176800,2.9491767578125,-0.1633761078119278,-0.8170537352561951,2.195046901702881
1761475894239154000,2.95915380859375,0.13129600882530212,-0.9288018345832825,2.1216535568237305
1761475894249130800,2.969130859375,0.3829631209373474,-1.0246509313583374,1.8723255395889282
1761475894259107800,2.97910791015625,0.5346828699111938,-1.0123388767242432,1.5428334474563599
1761475894269084700,2.989084716796875,0.5365176200866699,-0.9677203893661499,1.1104708909988403
1761475894279061800,2.999061767578125,0.43664267659187317,-0.8954616189002991,0.6276756525039673
1761475894289038800,3.009038818359375,0.3131760358810425,-0.6792862415313721,0.21605630218982697
1761475894299015700,3.019015625,0.25525280833244324,-0.29632768034935,-0.09494870901107788
1761475894308992300,3.0289921875,0.3036404550075531,0.054615266621112823,-0.31400588154792786
1761475894318969000,3.038968994140625,0.42134496569633484,0.20751160383224487,-0.4188385605812073
1761475894328946200,3.0489462890625,0.559837281703949,0.1452765017747879,-0.49681079387664795
1761475894338923000,3.058923095703125,0.6220058798789978,-0.11400699615478516,-0.5915268659591675
1761475894348900000,3.068900146484375,0.597113311290741,-0.4768122434616089,-0.6347651481628418
1761475894358877200,3.078877197265625,0.5391855835914612,-0.796367883682251,-0.5556018948554993
1761475894368854000,3.08885400390625,0.5219727158546448,-0.9542540311813354,-0.3619871139526367
1761475894378831000,3.0988310546875,0.5861980319023132,-0.9489370584487915,-0.15078721940517426
1761475894388808000,3.108807861328125,0.7032893300056458,-0.8044812679290771,0.006548600737005472
1761475894398785000,3.118784912109375,0.7832051515579224,-0.625769853591919,0.0733068585395813
1761475894408761900,3.128761962890625,0.7295868396759033,-0.5738856792449951,0.015712741762399673
1761475894418739200,3.1387392578125,0.49638745188713074,-0.6738138794898987,-0.15509894490242004
1761475894428715000,3.148715087890625,0.16667540371418,-0.82494056224823,-0.32442736625671387
1761475894438692000,3.158692138671875,-0.15486161410808563,-0.9391589760780334,-0.43467238545417786
1761475894448669200,3.168669189453125,-0.33113595843315125,-0.9022920727729797,-0.48139679431915283
1761475894458646000,3.17864599609375,-0.13808472454547882,-0.7171435356140137,-0.5382872819900513
1761475894468623000,3.188623046875,0.39138558506965637,-0.4461594521999359,-0.6685571670532227
1761475894478600000,3.198599853515625,0.7621915936470032,-0.2917163670063019,-0.9410393238067627
1761475894488577000,3.208576904296875,0.45628872513771057,-0.37680041790008545,-1.4105178117752075
1761475894498554000,3.21855419921875,-0.5484951138496399,-0.6841486692428589,-1.9439510107040405
1761475894508531200,3.22853125,-1.6824887990951538,-0.688117504119873,-2.356044292449951
1761475894518508300,3.23850830078125,-2.3931021690368652,-0.46459251642227173,-2.634803295135498
1761475894528485000,3.248485107421875,-2.3973565101623535,-0.019271809607744217,-2.58630633354187
1761475894538461200,3.258461181640625,-1.754668116569519,0.6198548674583435,-2.178685188293457
1761475894548438000,3.26843798828125,-0.8184531331062317,1.1087043285369873,-1.5545958280563354
1761475894558415000,3.2784150390625,-0.09604428708553314,1.3646702766418457,-0.8663055300712585
1761475894568392000,3.288391845703125,0.31506937742233276,1.3639265298843384,-0.32848674058914185
1761475894578369000,3.298369140625,0.5297979116439819,1.203041434288025,-0.13058805465698242
1761475894588346000,3.30834619140625,0.640939474105835,1.0380675792694092,-0.19390861690044403
1761475894598323200,3.3183232421875,0.6877642273902893,0.9335925579071045,-0.3961392045021057
1761475894608300300,3.32830029296875,0.6093051433563232,0.9011479616165161,-0.667726993560791
1761475894618277000,3.338277099609375,0.44151267409324646,0.9759172797203064,-0.9036412239074707
1761475894628254200,3.348254150390625,0.29152342677116394,1.1040273904800415,-0.9722435474395752
1761475894638231000,3.35823095703125,0.2249947190284729,1.2545726299285889,-0.8230183720588684
1761475894648208100,3.3682080078125,0.23113985359668732,1.3816256523132324,-0.46143046021461487
1761475894658184000,3.378183837890625,0.2527700662612915,1.488389015197754,0.05016783997416496
1761475894668161300,3.388161376953125,0.27832555770874023,1.4616464376449585,0.6081934571266174
1761475894678138000,3.39813818359375,0.31421297788619995,1.29079270362854,1.0871195793151855
1761475894688115200,3.408115234375,0.30580949783325195,0.9055041670799255,1.3669215440750122
1761475894698092000,3.418092041015625,0.19833947718143463,0.2325814664363861,1.346920132637024
1761475894708069000,3.428069091796875,0.03161800652742386,-0.531478226184845,1.0879758596420288
1761475894718046200,3.438046142578125,-0.08056578785181046,-0.9621433019638062,0.7554833889007568
1761475894728023000,3.44802294921875,-0.0455077700316906,-0.9934805631637573,0.4659233093261719
1761475894738000100,3.458000244140625,0.14336547255516052,-0.6438128352165222,0.2892249524593353
1761475894747977000,3.46797705078125,0.4331246614456177,-0.04393874108791351,0.21403078734874725
1761475894757954000,3.4779541015625,0.7428511381149292,0.49934637546539307,0.23031681776046753
1761475894767930000,3.48793017578125,0.9422570466995239,0.9018147587776184,0.33550190925598145
1761475894777907200,3.4979072265625,1.0438982248306274,1.1426668167114258,0.4812876284122467
1761475894787884000,3.507884033203125,0.9970216155052185,1.1674073934555054,0.5719537734985352
1761475894797861000,3.517861083984375,0.7851812839508057,0.918784499168396,0.5180439352989197
1761475894807838200,3.527838134765625,0.5276208519935608,0.42197009921073914,0.3523271381855011
1761475894817815000,3.53781494140625,0.4161640703678131,-0.1315879076719284,0.3222888112068176
1761475894827792100,3.547792236328125,0.44553935527801514,-0.45697566866874695,0.6873310804367065
1761475894837769000,3.55776904296875,0.4707767963409424,-0.4755789339542389,1.3739196062088013
1761475894847746000,3.56774609375,0.46602025628089905,-0.4054107069969177,1.9466893672943115
1761475894857723000,3.577722900390625,0.455559641122818,-0.40198561549186707,2.0891809463500977
1761475894867700200,3.5877001953125,0.4800664186477661,-0.33938178420066833,1.8851178884506226
1761475894877676000,3.597676025390625,0.3643302321434021,-0.32606279850006104,1.3407957553863525
1761475894887653000,3.607653076171875,0.05117274448275566,-0.41971880197525024,0.621571958065033
1761475894897630200,3.617630126953125,-0.27516356110572815,-0.5030762553215027,0.1097390428185463
1761475894907607000,3.62760693359375,-0.318532794713974,-0.3990669846534729,0.0091409208253026
1761475894917584100,3.637584228515625,-0.17626111209392548,-0.11003519594669342,0.16201062500476837
1761475894927561000,3.64756103515625,-0.04147263243794441,0.17777018249034882,0.28377002477645874
1761475894937538000,3.6575380859375,0.02149195224046707,0.32409968972206116,0.1937703639268875
1761475894947515100,3.66751513671875,-0.002099632518365979,0.28197574615478516,-0.050272971391677856
1761475894957492200,3.6774921875,-0.13463717699050903,0.04615069180727005,-0.3188495635986328
1761475894967469000,3.687468994140625,-0.38005051016807556,-0.3948011100292206,-0.585175096988678
1761475894977446100,3.697446044921875,-0.5787034034729004,-0.8295088410377502,-0.770098090171814
1761475894987422000,3.707421875,-0.6061177253723145,-1.0529053211212158,-0.8946504592895508
1761475894997399000,3.71739892578125,-0.47966843843460083,-1.1287068128585815,-1.0400656461715698
1761475895007376100,3.727376220703125,-0.27382948994636536,-0.8869462609291077,-1.1417193412780762
1761475895017353000,3.73735302734375,-0.05176287516951561,-0.41075631976127625,-1.157575011253357
1761475895027330000,3.747330078125,0.05389813706278801,0.047489892691373825,-1.1148806810379028
1761475895037307100,3.75730712890625,0.02033005654811859,0.2672683000564575,-1.0180466175079346
1761475895047284200,3.7672841796875,-0.13153362274169922,0.13663871586322784,-0.9290416836738586
1761475895057261000,3.777260986328125,-0.4340495467185974,-0.22107921540737152,-0.9225987195968628
1761475895067238100,3.787238037109375,-0.8709200620651245,-0.6413648724555969,-0.9730246067047119
1761475895077215200,3.79721533203125,-1.2976527214050293,-0.9235861897468567,-0.9679417014122009
1761475895087192000,3.807192138671875,-1.596045970916748,-0.9708916544914246,-0.8900201320648193
1761475895097169200,3.817169189453125,-1.779304027557373,-0.8522355556488037,-0.8090466856956482
1761475895107145000,3.82714501953125,-1.8505642414093018,-0.64573073387146,-0.7271678447723389
1761475895117122000,3.8371220703125,-1.8497812747955322,-0.44137465953826904,-0.6546656489372253
1761475895127099100,3.84709912109375,-1.7560664415359497,-0.286504328250885,-0.6171563267707825
1761475895137076200,3.857076171875,-1.576297402381897,-0.10987976938486099,-0.6624436378479004
1761475895147053000,3.867052978515625,-1.400189757347107,0.06409809738397598,-0.822913646697998
1761475895157030100,3.877030029296875,-1.2711501121520996,0.2239151895046234,-1.0600851774215698
1761475895167007200,3.88700732421875,-1.1497433185577393,0.442286878824234,-1.2948328256607056
1761475895176984000,3.896984130859375,-0.9989184737205505,0.7507371306419373,-1.4524277448654175
1761475895186961200,3.906961181640625,-0.8357216119766235,1.0696663856506348,-1.4962230920791626
1761475895196938000,3.91693798828125,-0.6686234474182129,1.3123565912246704,-1.3847771883010864
1761475895206914300,3.926914306640625,-0.5225610136985779,1.422446846961975,-1.1357841491699219
1761475895216891100,3.93689111328125,-0.42213135957717896,1.3302090167999268,-0.8235722780227661
1761475895226868200,3.9468681640625,-0.3733942210674286,0.954559862613678,-0.5433105826377869
1761475895236845000,3.956844970703125,-0.3382897675037384,0.4120102822780609,-0.28279027342796326
1761475895246822100,3.966822265625,-0.3217118978500366,-0.12479875981807709,-0.0751035138964653
1761475895256799000,3.976799072265625,-0.3266211450099945,-0.5136466026306152,0.08155081421136856
1761475895266776000,3.986776123046875,-0.3303804397583008,-0.6080596446990967,0.1797681599855423
1761475895276753200,3.996753173828125,-0.3512420654296875,-0.43170031905174255,0.19283415377140045
1761475895286730000,4.00672998046875,-0.35789549350738525,-0.08810046315193176,0.14707154035568237
1761475895296707000,4.01670703125,-0.29752853512763977,0.3343946039676666,0.10545459389686584
1761475895306683100,4.02668310546875,-0.16063322126865387,0.721180260181427,0.12715740501880646
1761475895316660000,4.036659912109375,0.034952789545059204,1.1101762056350708,0.2098163366317749
1761475895326636800,4.04663671875,0.2517787516117096,1.4417073726654053,0.33089494705200195
1761475895336614000,4.05661376953125,0.4831147789955139,1.6771055459976196,0.45202723145484924
1761475895346590700,4.0665908203125,0.6624298691749573,1.6404826641082764,0.5211467146873474
1761475895356567800,4.07656787109375,0.7345775365829468,1.3629205226898193,0.5294674634933472
1761475895366545000,4.086544921875,0.6977804899215698,0.8919479250907898,0.4915481507778168
1761475895376521700,4.096521728515625,0.5577914118766785,0.37078970670700073,0.44905340671539307
1761475895386498800,4.106498779296875,0.4094649851322174,-0.00359162176027894,0.4526762068271637
1761475895396476000,4.116475830078125,0.2986505925655365,-0.14954696595668793,0.4697646498680115
1761475895406453000,4.126452880859375,0.2595096826553345,-0.12233161926269531,0.4622748792171478
1761475895416428800,4.1364287109375,0.2680211365222931,0.02948853000998497,0.37976136803627014
1761475895426406000,4.146406005859375,0.3391295373439789,0.14829681813716888,0.23709681630134583
1761475895436382700,4.1563828125,0.4712452292442322,0.27796077728271484,0.24191580712795258
1761475895446359800,4.16635986328125,0.5782981514930725,0.429413378238678,0.3882784843444824
1761475895456336600,4.176336669921875,0.522377073764801,0.4728838801383972,0.45556938648223877
1761475895466313700,4.186313720703125,0.36111849546432495,0.3774866461753845,0.3976558446884155
1761475895476290800,4.196290771484375,0.20025531947612762,0.1480633169412613,0.3376758396625519
1761475895486268000,4.206267822265625,0.17289294302463531,0.07058626413345337,0.5281805396080017
1761475895496245000,4.216244873046875,0.29455095529556274,0.3104340136051178,0.9809730052947998
1761475895506221800,4.226221923828125,0.4426703453063965,0.6252021789550781,1.4221587181091309
1761475895516199000,4.236198974609375,0.6129577159881592,0.7092682719230652,1.6832488775253296
1761475895526174700,4.2461748046875,0.7728999853134155,0.5632808208465576,1.7340755462646484
1761475895536151800,4.25615185546875,0.8706923127174377,0.39404037594795227,1.6110659837722778
1761475895546128600,4.266128662109375,0.8786500692367554,0.3508548140525818,1.397965669631958
1761475895556105700,4.276105712890625,0.8085530400276184,0.3792739510536194,1.1258693933486938
1761475895566083000,4.2860830078125,0.6712067127227783,0.36646315455436707,0.7683655023574829
1761475895576060000,4.296059814453125,0.5210944414138794,0.31288301944732666,0.3642268478870392
1761475895586037000,4.306037109375,0.35819128155708313,0.23553693294525146,-0.021068625152111053
1761475895596013800,4.316013916015625,0.15904700756072998,0.1390056014060974,-0.3192555904388428
1761475895605991000,4.325990966796875,-0.028530551120638847,0.029948057606816292,-0.5525676012039185
1761475895615967700,4.3359677734375,-0.2238534390926361,-0.25431615114212036,-0.8326112627983093
1761475895625943800,4.34594384765625,-0.5142840147018433,-0.6606730818748474,-1.1266311407089233
1761475895635920600,4.355920654296875,-0.8362234234809875,-0.8478549718856812,-1.2214354276657104
1761475895645898000,4.36589794921875,-1.1202865839004517,-0.7096349000930786,-1.103044867515564
1761475895655874800,4.375874755859375,-1.302734375,-0.4292469024658203,-0.9414436221122742
1761475895665852000,4.385851806640625,-1.4170039892196655,-0.30413082242012024,-0.8905371427536011
1761475895675829000,4.3958291015625,-1.456809401512146,-0.23184649646282196,-0.8947274088859558
1761475895685805800,4.405805908203125,-1.4904093742370605,-0.20791471004486084,-0.9279131889343262
1761475895695783000,4.415782958984375,-1.5393770933151245,-0.31866708397865295,-0.9542108178138733
1761475895705759700,4.425759765625,-1.5630744695663452,-0.578255295753479,-0.9380846619606018
1761475895715736800,4.43573681640625,-1.4988704919815063,-0.9599549770355225,-0.9107390642166138
1761475895725713700,4.445713623046875,-1.311927318572998,-1.3492145538330078,-0.9007869958877563
1761475895735690000,4.45568994140625,-1.0105164051055908,-1.6273446083068848,-0.943187952041626
1761475895745666800,4.465666748046875,-0.6663574576377869,-1.7512010335922241,-1.059118390083313
1761475895755644000,4.475643798828125,-0.38730400800704956,-1.6487436294555664,-1.2451995611190796
1761475895765621000,4.48562109375,-0.19646070897579193,-1.2632062435150146,-1.4818463325500488
1761475895775597800,4.495597900390625,-0.12434045225381851,-0.656615674495697,-1.6816723346710205
1761475895785575000,4.505574951171875,-0.11273496598005295,0.005200129467993975,-1.766137957572937
1761475895795551700,4.5155517578125,-0.11435576528310776,0.5336663722991943,-1.6909202337265015
1761475895805528800,4.52552880859375,-0.09388884156942368,0.8580268621444702,-1.4714477062225342
1761475895815505700,4.535505615234375,-0.07812878489494324,0.8570182919502258,-1.1768033504486084
1761475895825482800,4.545482666015625,-0.1310269832611084,0.45922523736953735,-0.9006743431091309
1761475895835458800,4.555458740234375,-0.19381339848041534,-0.1745128184556961,-0.6580625176429749
1761475895845436000,4.565435791015625,-0.25823527574539185,-0.7222997546195984,-0.415998250246048
1761475895855413000,4.5754130859375,-0.3194988965988159,-0.9897087812423706,-0.16983747482299805
1761475895865389800,4.585389892578125,-0.36651527881622314,-1.0527615547180176,0.017994415014982224
1761475895875367000,4.595366943359375,-0.39106643199920654,-0.9160828590393066,0.13008394837379456
1761475895885343700,4.60534375,-0.3806743323802948,-0.6172403693199158,0.18068774044513702
1761475895895320800,4.61532080078125,-0.3151882588863373,-0.24144917726516724,0.17486713826656342
1761475895905297700,4.625297607421875,-0.20664145052433014,0.1387893110513687,0.1504809558391571
1761475895915274800,4.635274658203125,-0.060510605573654175,0.4444357752799988,0.1749865710735321
1761475895925251800,4.645251953125,0.09778141230344772,0.6396604776382446,0.28436174988746643
1761475895935229000,4.65522900390625,0.24279718101024628,0.6558082699775696,0.48086869716644287
1761475895945204700,4.665204833984375,0.318167120218277,0.5213706493377686,0.7536694407463074
1761475895955181800,4.675181884765625,0.3162477910518646,0.30215761065483093,1.0678331851959229
1761475895965159000,4.685158935546875,0.22250400483608246,0.049071285873651505,1.3280527591705322
1761475895975135700,4.6951357421875,0.03982553258538246,-0.21295632421970367,1.431484580039978
1761475895985112800,4.70511279296875,-0.15768061578273773,-0.3471151888370514,1.4443669319152832
1761475895995089700,4.715089599609375,-0.2648986876010895,-0.21826215088367462,1.4665957689285278
1761475896005066800,4.725066650390625,-0.2840416431427002,0.04372867941856384,1.5340348482131958
1761475896015043800,4.7350439453125,-0.2014216035604477,0.29236912727355957,1.6308543682098389
1761475896025021000,4.74502099609375,-0.028637737035751343,0.3308162987232208,1.6682155132293701
1761475896034998000,4.754998046875,0.21974436938762665,0.1750061959028244,1.6093887090682983
1761475896044973800,4.764973876953125,0.45682191848754883,0.0004169780295342207,1.4503220319747925
1761475896054951000,4.774950927734375,0.5495470762252808,-0.18828661739826202,1.1639012098312378
1761475896064927700,4.784927734375,0.4808221161365509,-0.2948928475379944,0.860913097858429
1761475896074904800,4.79490478515625,0.24561519920825958,-0.08535373210906982,0.7409020066261292
1761475896084881700,4.804881591796875,-0.03692270815372467,0.5443068742752075,0.8508408665657043
1761475896094859000,4.81485888671875,-0.1581370085477829,1.3403995037078857,1.0644570589065552
1761475896104835800,4.8248359375,-0.11708678305149078,1.8161332607269287,1.2608023881912231
1761475896114813000,4.83481298828125,0.04911310598254204,1.8372046947479248,1.3948746919631958
1761475896124790000,4.8447900390625,0.23674482107162476,1.3739722967147827,1.305698037147522
1761475896134766800,4.854766845703125,0.2906416058540344,0.7224323749542236,1.0239425897598267
1761475896144744000,4.864743896484375,0.19188787043094635,0.3246237337589264,0.7250844836235046
1761475896154719700,4.8747197265625,0.000651607639156282,0.2080606371164322,0.39392203092575073
1761475896164696800,4.88469677734375,-0.21145780384540558,0.12869586050510406,-0.015903178602457047
1761475896174674000,4.894673828125,-0.3876669406890869,0.05693991854786873,-0.5244428515434265
1761475896184651000,4.904651123046875,-0.4686467945575714,-0.04793686419725418,-1.0293447971343994
1761475896194627800,4.9146279296875,-0.46572157740592957,-0.2056732326745987,-1.3976738452911377
1761475896204605000,4.92460498046875,-0.43854188919067383,-0.4081422984600067,-1.5984783172607422
1761475896214581800,4.934581787109375,-0.3676285743713379,-0.6214500665664673,-1.6817270517349243
1761475896224558800,4.944558837890625,-0.29709571599960327,-0.8353854417800903,-1.706150770187378
1761475896234536000,4.954535888671875,-0.2558729350566864,-0.9925116896629333,-1.677578330039978
1761475896244512800,4.9645126953125,-0.26224884390830994,-1.0808353424072266,-1.6179255247116089
1761475896254488800,4.97448876953125,-0.3257998526096344,-1.176895022392273,-1.5706671476364136
1761475896264466000,4.9844658203125,-0.3336460292339325,-1.1205130815505981,-1.4719423055648804
1761475896274443000,4.994443115234375,-0.2209967076778412,-0.8340949416160583,-1.259614109992981
1761475896284419800,5.004419921875,-0.059174858033657074,-0.3810976445674896,-0.9897590279579163
1761475896294397000,5.01439697265625,0.023622283712029457,0.014109887182712555,-0.710781991481781
1761475896304373800,5.024373779296875,0.008840478025376797,0.18908703327178955,-0.4039158821105957
1761475896314350300,5.034350341796875,-0.1183965653181076,0.18242646753787994,-0.0698162168264389
1761475896324327400,5.044327392578125,-0.33012324571609497,-0.04831625521183014,0.2861081063747406
1761475896334304500,5.054304443359375,-0.5870072245597839,-0.5023282170295715,0.6482476592063904
1761475896344281300,5.06428125,-0.7881245017051697,-0.9970118999481201,0.9340648651123047
1761475896354258400,5.074258544921875,-0.9075262546539307,-1.3821107149124146,1.0582529306411743
1761475896364234500,5.084234375,-0.9843543171882629,-1.5390814542770386,0.9460849761962891
1761475896374211600,5.094211669921875,-1.070367455482483,-1.3952672481536865,0.6463052034378052
1761475896384188400,5.1041884765625,-1.1317628622055054,-1.0398287773132324,0.20619484782218933
1761475896394165500,5.11416552734375,-1.1485919952392578,-0.6044418215751648,-0.27209582924842834
1761475896404142300,5.124142333984375,-1.1381129026412964,-0.15413188934326172,-0.7177515625953674
1761475896414119400,5.134119384765625,-1.1300017833709717,0.2430836409330368,-1.0969442129135132
1761475896424096500,5.144096435546875,-1.11457097530365,0.561274528503418,-1.3617054224014282
1761475896434073300,5.1540732421875,-1.057332992553711,0.8229199647903442,-1.4744988679885864
1761475896444050400,5.164050537109375,-0.95166015625,0.9748740196228027,-1.4455486536026
1761475896454027500,5.174027587890625,-0.8050097227096558,1.014248013496399,-1.2833442687988281
1761475896464003600,5.184003662109375,-0.6353134512901306,0.9219569563865662,-1.0089325904846191
1761475896473980400,5.19398046875,-0.4400387406349182,0.7067168354988098,-0.6774747967720032
1761475896483957500,5.20395751953125,-0.24918009340763092,0.3754972517490387,-0.34518662095069885
1761475896493934300,5.213934326171875,-0.08941413462162018,0.012379221618175507,-0.04296097531914711
1761475896503911400,5.223911376953125,0.02770097181200981,-0.2646175026893616,0.21846140921115875
1761475896513888300,5.23388818359375,0.10522745549678802,-0.4226026237010956,0.3798380494117737
1761475896523865300,5.243865234375,0.16883154213428497,-0.45020291209220886,0.443923681974411
1761475896533842700,5.2538427734375,0.2435625046491623,-0.35580530762672424,0.43217435479164124
1761475896543819500,5.263819580078125,0.34020593762397766,-0.14368216693401337,0.38588520884513855
1761475896553796600,5.273796630859375,0.443738728761673,0.13559074699878693,0.31606486439704895
1761475896563772400,5.2837724609375,0.5620337128639221,0.40784648060798645,0.2565256655216217
1761475896573749500,5.29374951171875,0.6784296035766602,0.6322680711746216,0.23482756316661835
1761475896583726300,5.303726318359375,0.7854267954826355,0.7468634247779846,0.2658328711986542
1761475896593703400,5.313703369140625,0.8434392213821411,0.7495017647743225,0.3205195665359497
1761475896603680300,5.32368017578125,0.8603507280349731,0.6608710289001465,0.37924081087112427
1761475896613657600,5.33365771484375,0.8283834457397461,0.5352907180786133,0.42994847893714905
1761475896623634700,5.343634765625,0.7361227869987488,0.3877469003200531,0.44558337330818176
1761475896633611500,5.353611572265625,0.6292437314987183,0.268131822347641,0.40516725182533264
1761475896643588600,5.363588623046875,0.541459858417511,0.23323148488998413,0.3408384919166565
1761475896653565400,5.3735654296875,0.48282185196876526,0.2176181674003601,0.27542033791542053
1761475896663541500,5.38354150390625,0.46096011996269226,0.12068887054920197,0.25978899002075195
1761475896673518300,5.393518310546875,0.4762202799320221,-0.08147728443145752,0.35028374195098877
1761475896683495400,5.403495361328125,0.4407728612422943,-0.2966611683368683,0.4267302453517914
1761475896693472500,5.413472412109375,0.4426756799221039,-0.34194743633270264,0.4399009048938751
1761475896703449600,5.42344970703125,0.5668634176254272,-0.09397943317890167,0.5155876874923706
1761475896713426700,5.4334267578125,0.6634642481803894,0.22991421818733215,0.6722750067710876
1761475896723403500,5.443403564453125,0.6155705451965332,0.41904670000076294,0.9156103730201721
1761475896733380600,5.453380615234375,0.5350802540779114,0.5377779006958008,1.283514142036438
1761475896743357400,5.463357421875,0.45463085174560547,0.6046017408370972,1.6252731084823608
1761475896753334500,5.47333447265625,0.29350268840789795,0.5863848924636841,1.8067827224731445
1761475896763310300,5.483310302734375,0.15229777991771698,0.5256759524345398,1.8719171285629272
1761475896773287400,5.493287353515625,0.08925409615039825,0.3229718804359436,1.7209579944610596
1761475896783264500,5.503264404296875,0.1427009105682373,0.07962921261787415,1.3483136892318726
1761475896793241600,5.51324169921875,0.31881362199783325,0.0689198449254036,0.9150227308273315
1761475896803218400,5.523218505859375,0.5612725615501404,0.3603578507900238,0.4942912757396698
1761475896813195500,5.533195556640625,0.7419393062591553,0.4961108863353729,-0.006297525484114885
1761475896823172600,5.543172607421875,0.8449475765228271,0.30818939208984375,-0.5760775208473206
1761475896833149400,5.5531494140625,0.8432759046554565,-0.04084235802292824,-0.9667006134986877
1761475896843126500,5.56312646484375,0.6186054944992065,-0.47070276737213135,-1.1536396741867065
1761475896853103400,5.573103271484375,0.04773087054491043,-0.8896835446357727,-1.2062333822250366
1761475896863079400,5.583079345703125,-0.5878337025642395,-1.119248628616333,-1.2148481607437134
1761475896873056500,5.593056396484375,-0.8767925500869751,-1.0287269353866577,-1.305341362953186
1761475896883033600,5.60303369140625,-0.7070900797843933,-0.7169370055198669,-1.510323405265808
1761475896893010400,5.613010498046875,-0.1205030083656311,-0.4279771149158478,-1.7609803676605225
1761475896902987500,5.622987548828125,0.5554907321929932,-0.33586108684539795,-1.9418903589248657
1761475896912964600,5.632964599609375,0.9606443047523499,-0.47990188002586365,-2.017651319503784
1761475896922941400,5.64294140625,0.9975692629814148,-0.8444070816040039,-1.926572561264038
1761475896932918500,5.65291845703125,0.48653367161750793,-1.477097988128662,-1.7409613132476807
1761475896942895400,5.662895263671875,-0.42725658416748047,-2.2841992378234863,-1.686016321182251
1761475896952872400,5.67287255859375,-1.0913211107254028,-2.798757553100586,-1.89602530002594
1761475896962848500,5.6828486328125,-1.2197191715240479,-2.8338489532470703,-2.1956281661987305
1761475896972825600,5.69282568359375,-1.0000957250595093,-2.410519599914551,-2.3705523014068604
1761475896982802400,5.702802490234375,-0.5121078491210938,-1.4240549802780151,-2.2212307453155518
1761475896992779500,5.712779541015625,0.0855553150177002,-0.2744479477405548,-1.759602665901184
1761475897002756400,5.72275634765625,0.6103457808494568,0.5390233993530273,-1.1878302097320557
1761475897012733400,5.7327333984375,0.9071868062019348,0.930122971534729,-0.6984304189682007
1761475897022710500,5.74271044921875,0.7877236008644104,0.916377604007721,-0.2862056791782379
1761475897032687400,5.752687255859375,0.3135778605937958,0.4410976767539978,0.06465034931898117
1761475897042664400,5.76266455078125,-0.24605566263198853,-0.2788902819156647,0.24734991788864136
1761475897052640500,5.772640625,-0.6431366801261902,-0.7338489890098572,0.23787198960781097
1761475897062617600,5.78261767578125,-0.7263772487640381,-0.7672656178474426,0.12314379960298538
1761475897072594400,5.792594482421875,-0.5716888904571533,-0.5461617708206177,-0.026367926970124245
1761475897082571500,5.802571533203125,-0.2991078197956085,-0.1404758244752884,-0.17471574246883392
1761475897092548400,5.81254833984375,-0.02895970270037651,0.34083250164985657,-0.2633891701698303
1761475897102525400,5.822525390625,0.133878692984581,0.6698984503746033,-0.2563639283180237
1761475897112502500,5.83250244140625,0.13855813443660736,0.8152747750282288,-0.16505132615566254
1761475897122479400,5.842479248046875,0.0575142577290535,0.8648674488067627,-0.03701616823673248
1761475897132456400,5.85245654296875,-0.04717700183391571,0.9151191711425781,0.06109441816806793
1761475897142433300,5.862433349609375,-0.11335936933755875,0.979835569858551,0.13742339611053467
1761475897152409600,5.87240966796875,-0.09537716954946518,1.0743740797042847,0.261430561542511
1761475897162386400,5.882386474609375,-0.0016573671018704772,1.2081053256988525,0.4510822594165802
1761475897172363500,5.892363525390625,0.11964695900678635,1.303033709526062,0.6555553078651428
1761475897182340400,5.90234033203125,0.25901710987091064,1.348907232284546,0.8615443706512451
1761475897192317400,5.9123173828125,0.3443000614643097,1.3669805526733398,1.0862493515014648
1761475897202294500,5.92229443359375,0.33076876401901245,1.3389630317687988,1.2783273458480835
1761475897212271400,5.932271240234375,0.2008637636899948,1.3424397706985474,1.4227495193481445
1761475897222248400,5.94224853515625,0.1570643037557602,1.4234709739685059,1.6117894649505615
1761475897232225500,5.9522255859375,0.18626932799816132,1.4128167629241943,1.7126715183258057
1761475897242202600,5.96220263671875,0.18704219162464142,1.14590585231781,1.6061546802520752
1761475897252178400,5.972178466796875,0.33465108275413513,1.0329617261886597,1.5805867910385132
1761475897262155500,5.982155517578125,0.5873023867607117,1.1625854969024658,1.8110566139221191
1761475897272132400,5.99213232421875,0.5711535215377808,1.1050364971160889,1.9768521785736084
1761475897282109400,6.002109375,0.16439767181873322,0.6520534157752991,1.9287678003311157
1761475897292086300,6.012086181640625,-0.4720400273799896,0.10930385440587997,1.7279322147369385
1761475897302063400,6.0220634765625,-1.0017119646072388,-0.3439311385154724,1.346247673034668
1761475897312040400,6.03204052734375,-1.281507968902588,-0.7950319647789001,0.7816004753112793
1761475897322017300,6.042017333984375,-1.2611281871795654,-1.1739113330841064,0.03246570751070976
1761475897331994400,6.051994384765625,-0.9922357201576233,-1.4516651630401611,-0.8502667546272278
1761475897341971200,6.06197119140625,-0.5280271172523499,-1.4701107740402222,-1.6412259340286255
1761475897351947000,6.071947021484375,-0.11210739612579346,-1.1045242547988892,-2.0358693599700928
1761475897361924000,6.081924072265625,0.06066327914595604,-0.46521469950675964,-1.9310482740402222
1761475897371901200,6.091901123046875,-0.024321386590600014,-0.01845533214509487,-1.5258657932281494
1761475897381878000,6.1018779296875,-0.28341108560562134,0.0053099943324923515,-1.1538991928100586
1761475897391855400,6.11185546875,-0.5925542712211609,-0.35381725430488586,-0.9554066061973572
1761475897401832200,6.121832275390625,-0.7815322875976562,-0.5985564589500427,-0.7755333781242371
1761475897411809300,6.131809326171875,-0.697949230670929,-0.5118013024330139,-0.6158528923988342
1761475897421786000,6.1417861328125,-0.40080541372299194,-0.2129010707139969,-0.6011422276496887
1761475897431763200,6.15176318359375,-0.0694463700056076,0.14247779548168182,-0.8045651316642761
1761475897441739000,6.161739013671875,0.06791052967309952,0.2991456389427185,-1.1867055892944336
1761475897451716000,6.171716064453125,-0.07662321627140045,0.19366022944450378,-1.4988064765930176
1761475897461693200,6.181693115234375,-0.2644812762737274,-0.00046158023178577423,-1.5718929767608643
1761475897471670300,6.191670166015625,-0.43069687485694885,-0.368713915348053,-1.506177306175232
1761475897481647400,6.2016474609375,-0.5325877666473389,-0.7584115862846375,-1.4035671949386597
1761475897491624200,6.211624267578125,-0.56971675157547,-0.9955464005470276,-1.3785337209701538
1761475897501601300,6.221601318359375,-0.5022393465042114,-1.0061514377593994,-1.4400216341018677
1761475897511578000,6.231578125,-0.229278102517128,-0.8319117426872253,-1.4638150930404663
1761475897521555200,6.24155517578125,0.18437020480632782,-0.5527914762496948,-1.326688289642334
1761475897531532300,6.2515322265625,0.6308262348175049,-0.2335437685251236,-0.9903659224510193
1761475897541508000,6.261508056640625,0.9314326047897339,-0.12530869245529175,-0.5073127746582031
1761475897551485200,6.271485107421875,0.9196835160255432,-0.30057796835899353,0.07544942945241928
1761475897561462300,6.281462158203125,0.6254652738571167,-0.7204367518424988,0.6829718351364136
1761475897571439400,6.291439453125,0.17776761949062347,-1.3799734115600586,1.1311078071594238
1761475897581416200,6.301416259765625,-0.3054673671722412,-2.079296827316284,1.2838103771209717
1761475897591393300,6.311393310546875,-0.6118435859680176,-2.335240364074707,1.1661769151687622
1761475897601370000,6.3213701171875,-0.665359616279602,-2.13466739654541,0.9206269979476929
1761475897611347200,6.33134716796875,-0.5241268277168274,-1.6232402324676514,0.598669171333313
1761475897621324000,6.341323974609375,-0.2684592604637146,-0.8495980501174927,0.29204660654067993
1761475897631300000,6.351300048828125,-0.06810193508863449,0.01479374896734953,0.13457760214805603
1761475897641277200,6.361277099609375,0.06022537127137184,0.8627854585647583,0.24379244446754456
1761475897651254300,6.371254150390625,0.08851506561040878,1.357375144958496,0.2969374358654022
1761475897661231400,6.3812314453125,-0.0579468235373497,1.2667624950408936,0.23276259005069733
1761475897671208200,6.391208251953125,-0.21949763596057892,0.9279060363769531,0.15257880091667175
1761475897681185300,6.401185302734375,-0.34337565302848816,0.5262071490287781,0.054291293025016785
1761475897691162000,6.411162109375,-0.3955107629299164,0.3839153051376343,-0.024096721783280373
1761475897701139200,6.42113916015625,-0.268686980009079,0.5394205451011658,-0.03745628520846367
1761475897711116000,6.431115966796875,0.0024094891268759966,0.9329367280006409,0.039463263005018234
1761475897721093000,6.441093017578125,0.28967809677124023,1.3571300506591797,0.2090754359960556
1761475897731069200,6.451069091796875,0.525856614112854,1.4704062938690186,0.41521155834198
1761475897741046300,6.46104638671875,0.6888070702552795,1.1771349906921387,0.6061282157897949
1761475897751023400,6.4710234375,0.7208265066146851,0.5802108645439148,0.8097202181816101
1761475897761000200,6.481000244140625,0.5496779084205627,-0.1364491730928421,0.9027162790298462
1761475897770977300,6.490977294921875,0.3178286552429199,-0.5231217741966248,1.0589791536331177
1761475897780954000,6.5009541015625,0.31489747762680054,-0.162946879863739,1.5397578477859497
1761475897790931200,6.51093115234375,0.5436347723007202,0.5562893152236938,2.2218687534332275
1761475897800908000,6.520907958984375,0.7655930519104004,0.7541770339012146,2.7323551177978516
1761475897810885000,6.530885009765625,0.7124491333961487,0.3114025294780731,2.8552956581115723
1761475897820861200,6.540861083984375,0.33125972747802734,-0.6813933849334717,2.4248692989349365
1761475897830838300,6.55083837890625,-0.22413478791713715,-1.905389428138733,1.4645895957946777
1761475897840815000,6.560815185546875,-0.6575313806533813,-2.4918746948242188,0.46540576219558716
1761475897850792200,6.570792236328125,-0.838370680809021,-2.6072676181793213,-0.5378850698471069
1761475897860769300,6.580769287109375,-0.7298833727836609,-2.2430341243743896,-1.6406065225601196
1761475897870746000,6.59074609375,-0.5160094499588013,-1.3919909000396729,-2.6089887619018555
1761475897880723200,6.60072314453125,-0.3266153931617737,-0.03961637243628502,-3.1234238147735596
1761475897890700000,6.610699951171875,-0.13789767026901245,1.284304141998291,-3.2510523796081543
1761475897900677000,6.620677001953125,-0.02310275472700596,1.9226073026657104,-3.2089970111846924
1761475897910654000,6.630654052734375,-0.11866842210292816,1.7886271476745605,-3.0269267559051514
1761475897920630300,6.64063037109375,-0.2410658448934555,1.3058297634124756,-2.3491697311401367
1761475897930607000,6.650607177734375,-0.2645099461078644,0.8426363468170166,-1.2317246198654175
1761475897940584200,6.660584228515625,-0.1995542198419571,0.2870713174343109,0.009410105645656586
1761475897950561300,6.670561279296875,-0.06504888832569122,-0.31404727697372437,1.0970385074615479
1761475897960538000,6.6805380859375,-0.00744420662522316,-1.0097352266311646,1.8840242624282837
1761475897970515200,6.69051513671875,-0.14917631447315216,-1.6735349893569946,2.3366353511810303
1761475897980492000,6.700491943359375,-0.39595481753349304,-2.189507484436035,2.4639906883239746
1761475897990469000,6.71046923828125,-0.5636377930641174,-2.4558541774749756,2.305854558944702
1761475898000446200,6.7204462890625,-0.5549373626708984,-2.244513511657715,1.9478319883346558
1761475898010422300,6.73042236328125,-0.40644216537475586,-1.4828273057937622,1.492037296295166
1761475898020399000,6.740399169921875,-0.15033785998821259,-0.4434352517127991,1.068800449371338
1761475898030376200,6.750376220703125,0.011548252776265144,0.6739251017570496,0.6320863366127014
1761475898040353300,6.760353271484375,0.05225710943341255,1.4595361948013306,0.2401837259531021
1761475898050330000,6.770330078125,0.0224643275141716,1.9132903814315796,-0.06553065031766891
1761475898060307200,6.78030712890625,-0.024343855679035187,2.070620536804199,-0.23989242315292358
1761475898070284000,6.790283935546875,-0.05299494415521622,1.9255130290985107,-0.2946408987045288
1761475898080261000,6.80026123046875,-0.05811849609017372,1.5826319456100464,-0.2965855896472931
1761475898090238200,6.81023828125,-0.010414891876280308,1.179701566696167,-0.25993943214416504
1761475898100214300,6.82021435546875,0.08712346851825714,0.850067138671875,-0.19760051369667053
1761475898110191000,6.830191162109375,0.20927467942237854,0.5918209552764893,-0.15534813702106476
1761475898120168200,6.840168212890625,0.34560108184814453,0.5266645550727844,-0.09573222696781158
1761475898130145000,6.85014501953125,0.4829813241958618,0.6306679248809814,-0.007590920198708773
1761475898140122000,6.8601220703125,0.5680482983589172,0.7689475417137146,0.08412943035364151
1761475898150099200,6.87009912109375,0.574487030506134,0.9030486345291138,0.18094971776008606
1761475898160076000,6.880075927734375,0.5277435779571533,0.9574576020240784,0.2965206801891327
1761475898170053000,6.89005322265625,0.42747578024864197,0.8768876194953918,0.4095284640789032
1761475898180030200,6.9000302734375,0.2771477699279785,0.6210147738456726,0.5110260844230652
1761475898190006300,6.91000634765625,0.10425589233636856,0.23388515412807465,0.5446876287460327
1761475898199983000,6.919983154296875,-0.037659939378499985,-0.1456456035375595,0.49317967891693115
1761475898209960200,6.929960205078125,-0.07878527790307999,-0.3364349901676178,0.35589799284935
1761475898219937000,6.93993701171875,-0.023139895871281624,-0.3535774350166321,0.1671169549226761
1761475898229914000,6.9499140625,0.15487058460712433,-0.08833618462085724,-0.009541173465549946
1761475898239891200,6.95989111328125,0.454565167427063,0.5451502203941345,-0.06509018689393997
1761475898249868000,6.969867919921875,0.689393937587738,1.1177958250045776,-0.07627066969871521
1761475898259845400,6.979845458984375,0.7363854050636292,1.215718388557434,-0.1432320773601532
1761475898269822200,6.989822265625,0.6183663606643677,0.9893044233322144,-0.16128991544246674
1761475898279799300,6.99979931640625,0.36269697546958923,0.48301395773887634,-0.04619130864739418
1761475898289775000,7.009775146484375,-0.0675870031118393,0.11124999821186066,0.28502658009529114
1761475898299752200,7.019752197265625,-0.4303555488586426,0.23779664933681488,0.8828006386756897
1761475898309729000,7.02972900390625,-0.6233231425285339,0.4053310453891754,1.382557988166809
1761475898319706400,7.039706298828125,-0.7104331254959106,0.28050974011421204,1.391485333442688
1761475898329683500,7.049683349609375,-0.7461133599281311,-0.11500910669565201,0.9755048751831055
1761475898339660500,7.05966064453125,-0.7113548517227173,-0.5477718710899353,0.3524058759212494
1761475898349637600,7.0696376953125,-0.6113638281822205,-0.9486071467399597,-0.2701975107192993
1761475898359614700,7.07961474609375,-0.4199132025241852,-1.027962565422058,-0.7010498046875
1761475898369591600,7.089591552734375,-0.17681320011615753,-0.6199255585670471,-0.9022777080535889
1761475898379567600,7.099567626953125,-0.044036686420440674,0.017553580924868584,-1.009972095489502
1761475898389544400,7.10954443359375,-0.09381995350122452,0.41770151257514954,-1.097546935081482
1761475898399521500,7.119521484375,-0.35156676173210144,0.37269327044487,-1.1832709312438965
1761475898409498400,7.129498291015625,-0.6472791433334351,-0.0699954703450203,-1.1109617948532104
1761475898419475500,7.139475341796875,-0.858286440372467,-0.7278850674629211,-0.8822089433670044
1761475898429452500,7.14945263671875,-0.8596603870391846,-1.3878976106643677,-0.6404346823692322
1761475898439429600,7.1594296875,-0.6548941135406494,-1.8599896430969238,-0.5420823693275452
1761475898449406700,7.16940673828125,-0.3698221445083618,-1.9329190254211426,-0.6558225154876709
1761475898459383600,7.179383544921875,-0.1377774477005005,-1.5135047435760498,-0.8974285125732422
1761475898469359600,7.189359619140625,-0.006936888210475445,-0.6915943622589111,-1.119874358177185
1761475898479336400,7.19933642578125,0.08665989339351654,0.26034414768218994,-1.1673742532730103
1761475898489313500,7.2093134765625,0.1282946914434433,0.805469274520874,-0.9804158210754395
1761475898499290400,7.219290283203125,0.12192941457033157,0.9826569557189941,-0.5859293341636658
1761475898509267500,7.229267333984375,0.09007374197244644,0.7977121472358704,-0.09233006089925766
1761475898519244500,7.23924462890625,-0.01248098723590374,0.3717084228992462,0.23942981660366058
1761475898529221600,7.2492216796875,-0.19993451237678528,-0.140119731426239,0.2788640558719635
1761475898539198700,7.25919873046875,-0.42571625113487244,-0.4983440935611725,0.04807879775762558
1761475898549175600,7.269175537109375,-0.5975766777992249,-0.5572335124015808,-0.36629122495651245
1761475898559151600,7.279151611328125,-0.6643688678741455,-0.30326318740844727,-0.8600714206695557
1761475898569128400,7.28912841796875,-0.5907120108604431,0.14371323585510254,-1.3191887140274048
1761475898579105500,7.29910546875,-0.44382786750793457,0.6108004450798035,-1.6351567506790161
1761475898589082400,7.309082275390625,-0.25268641114234924,1.0442092418670654,-1.7581795454025269
1761475898599059500,7.3190595703125,-0.03978406637907028,1.3812044858932495,-1.6776505708694458
1761475898609036500,7.32903662109375,0.14249706268310547,1.5054364204406738,-1.3913586139678955
1761475898619013600,7.339013671875,0.27180057764053345,1.5448284149169922,-0.8859168887138367
1761475898628990700,7.34899072265625,0.3542584478855133,1.4870468378067017,-0.25240227580070496
1761475898638967600,7.358967529296875,0.3804858922958374,1.2288485765457153,0.3486272990703583
1761475898648943600,7.368943603515625,0.34219124913215637,0.8414191007614136,0.8405357599258423
1761475898658920400,7.37892041015625,0.2713439464569092,0.40336644649505615,1.2266193628311157
1761475898668897500,7.3888974609375,0.20523229241371155,-0.023015502840280533,1.4701374769210815
1761475898678874400,7.398874267578125,0.1456574946641922,-0.4181613624095917,1.5542585849761963
1761475898688851700,7.408851806640625,0.16565091907978058,-0.7009307742118835,1.5467712879180908
1761475898698828500,7.41882861328125,0.28880006074905396,-0.7786704301834106,1.529486894607544
1761475898708805600,7.4288056640625,0.43010392785072327,-0.6651241779327393,1.4879807233810425
1761475898718782700,7.43878271484375,0.5340451598167419,-0.37991127371788025,1.3836164474487305
1761475898728759600,7.448759521484375,0.5919987559318542,0.031659506261348724,1.2181015014648438
1761475898738735400,7.4587353515625,0.6295617818832397,0.46146160364151,1.02474844455719
1761475898748712400,7.46871240234375,0.6093475818634033,0.7624419331550598,0.8273610472679138
1761475898758689500,7.478689453125,0.469882994890213,0.7155178785324097,0.6494029760360718
1761475898768666600,7.48866650390625,0.26934272050857544,0.316658616065979,0.4797758162021637
1761475898778643700,7.498643798828125,0.08968017995357513,-0.23751863837242126,0.30105096101760864
1761475898788620500,7.50862060546875,0.0034741926938295364,-0.696118175983429,0.13113677501678467
1761475898798597600,7.51859765625,0.10086732357740402,-0.8552572131156921,0.07375869154930115
1761475898808574500,7.528574462890625,0.32699793577194214,-0.7571482062339783,0.1359001100063324
1761475898818551600,7.538551513671875,0.532366156578064,-0.5821899175643921,0.15631671249866486
1761475898828527400,7.54852734375,0.6513469219207764,-0.4557454288005829,0.09227727353572845
1761475898838504400,7.55850439453125,0.6652831435203552,-0.596350908279419,-0.04466431215405464
1761475898848481500,7.5684814453125,0.6261972784996033,-0.8351922035217285,-0.19389934837818146
1761475898858458600,7.578458740234375,0.5922943949699402,-0.8967329263687134,-0.17780856788158417
1761475898868435700,7.588435791015625,0.5117992758750916,-0.7538330554962158,-0.06325190514326096
1761475898878412500,7.59841259765625,0.42040741443634033,-0.40804365277290344,0.20335009694099426
1761475898888389600,7.6083896484375,0.23266175389289856,0.23358292877674103,0.7138791084289551
1761475898898366500,7.618366455078125,-0.013448822312057018,0.5968310832977295,1.1795055866241455
1761475898908343600,7.628343505859375,-0.10785788297653198,0.45485925674438477,1.3176109790802002
1761475898918319400,7.6383193359375,-0.26546433568000793,-0.27431419491767883,0.8209183812141418
1761475898928296400,7.64829638671875,-0.5220790505409241,-1.7194700241088867,-0.3597203195095062
1761475898938273800,7.658273681640625,-0.6226798295974731,-2.9022068977355957,-1.7292696237564087
1761475898948250600,7.668250732421875,-0.5135541558265686,-3.325423240661621,-2.992748498916626
1761475898958227700,7.678227783203125,-0.27101439237594604,-2.7897791862487793,-3.8802108764648438
1761475898968204500,7.68820458984375,-0.029844097793102264,-1.2528259754180908,-4.152735710144043
1761475898978181600,7.698181640625,0.1610219031572342,0.4504586160182953,-3.9043080806732178
1761475898988158500,7.708158447265625,0.3325995206832886,1.732398271560669,-3.234037160873413
1761475898998135600,7.718135498046875,0.3312627673149109,2.4550838470458984,-2.372051954269409
1761475899008111400,7.728111328125,0.17643165588378906,2.448803424835205,-1.4711425304412842
1761475899018088700,7.738088623046875,-0.06577150523662567,1.7482579946517944,-0.6015116572380066
1761475899028065500,7.7480654296875,-0.3913336396217346,0.49312564730644226,0.1980835199356079
1761475899038042600,7.758042724609375,-0.7698187828063965,-1.0196160078048706,0.8724322319030762
1761475899048019700,7.768019775390625,-1.0305845737457275,-2.200212001800537,1.2978613376617432
1761475899057996500,7.77799658203125,-0.9870686531066895,-2.626734972000122,1.447095274925232
1761475899067973600,7.7879736328125,-0.6042289137840271,-2.2913763523101807,1.3383817672729492
1761475899077950500,7.797950439453125,-0.03328552097082138,-1.3226814270019531,1.045798659324646
1761475899087926500,7.807926513671875,0.527275562286377,-0.07008375227451324,0.6847126483917236
1761475899097903600,7.817903564453125,0.9441201090812683,1.027457356452942,0.38816359639167786
1761475899107880700,7.827880615234375,1.1599831581115723,1.7179831266403198,0.17274771630764008
1761475899117857500,7.837857421875,1.1796306371688843,1.8787189722061157,-0.02269931696355343
1761475899127834600,7.847834716796875,1.109410047531128,1.5108025074005127,-0.13617634773254395
1761475899137811700,7.857811767578125,1.0183523893356323,0.9780353903770447,-0.13414059579372406
1761475899147788500,7.86778857421875,0.9395806789398193,0.45720869302749634,-0.061918340623378754
1761475899157765600,7.877765625,0.8470131158828735,-0.023728391155600548,0.01816221885383129
1761475899167742500,7.887742431640625,0.6816015243530273,-0.34491467475891113,0.04318501055240631
1761475899177719600,7.897719482421875,0.4356705844402313,-0.4144616425037384,-0.000915357144549489
1761475899187695600,7.907695556640625,0.1562405526638031,-0.27999863028526306,-0.024112820625305176
1761475899197672700,7.917672607421875,-0.06510543078184128,-0.020655475556850433,0.04264969751238823
1761475899207649500,7.9276494140625,-0.20200787484645844,0.3046850562095642,0.20114319026470184
1761475899217626600,7.937626708984375,-0.2437945157289505,0.5190114974975586,0.3539770245552063
1761475899227603500,7.947603515625,-0.19084449112415314,0.5710022449493408,0.4799109995365143
1761475899237580500,7.95758056640625,-0.07539856433868408,0.4609919488430023,0.5646812319755554
1761475899247557600,7.9675576171875,0.020620379596948624,0.15518224239349365,0.564552366733551
1761475899257534500,7.977534423828125,0.0049047027714550495,-0.4337354302406311,0.4609488248825073
1761475899267510500,7.987510498046875,-0.03072386607527733,-1.090057134628296,0.3746483027935028
1761475899277487600,7.997487548828125,0.016656657680869102,-1.4370125532150269,0.4432370066642761
1761475899287464700,8.007464599609374,0.19302502274513245,-1.3720892667770386,0.6193183064460754
1761475899297441500,8.017441650390625,0.46463537216186523,-1.0410659313201904,0.7965927720069885
1761475899307418600,8.027418701171875,0.727820098400116,-0.5166884660720825,0.978047788143158
1761475899317395700,8.037395751953126,0.9300708770751953,0.04000524803996086,1.216511607170105
1761475899327372500,8.04737255859375,0.9880939722061157,0.2793792188167572,1.543381690979004
1761475899337349600,8.057349609375,0.9123202562332153,0.08165422081947327,1.8756616115570068
1761475899347326500,8.067326416015625,0.7312199473381042,-0.5019218921661377,2.0866706371307373
1761475899357302800,8.077302734375,0.6378256678581238,-1.0153436660766602,2.293158769607544
1761475899367279600,8.087279541015626,0.6291844844818115,-1.0674161911010742,2.570909023284912
1761475899377256700,8.097256591796874,0.5744168758392334,-0.6615773439407349,2.839747905731201
1761475899387233500,8.107233642578125,0.4023129940032959,0.01370469480752945,3.038254737854004
1761475899397210600,8.117210693359375,0.20193134248256683,0.5031436085700989,3.008761405944824
1761475899407187700,8.127187744140626,0.15094299614429474,0.6273542642593384,2.722118616104126
1761475899417164500,8.13716455078125,0.16424252092838287,0.40844815969467163,2.2291059494018555
1761475899427141600,8.1471416015625,0.19229306280612946,0.20790919661521912,1.7050893306732178
1761475899437118500,8.157118408203125,0.2453969568014145,0.31980323791503906,1.3133262395858765
1761475899447094800,8.1670947265625,0.3118630349636078,0.5223422050476074,1.050209403038025
1761475899457071600,8.177071533203126,0.3434404730796814,0.5540589690208435,0.8062150478363037
1761475899467048700,8.187048583984375,0.21441298723220825,0.30809423327445984,0.470780611038208
1761475899477025500,8.197025634765625,-0.034486182034015656,0.06511126458644867,0.1993073672056198
1761475899487002600,8.207002685546875,-0.19339966773986816,0.09479352831840515,0.12811706960201263
1761475899496979700,8.216979736328126,-0.2688791751861572,0.20931853353977203,0.09751575440168381
1761475899506956500,8.22695654296875,-0.23920035362243652,0.3778705596923828,0.06275111436843872
1761475899516933600,8.23693359375,-0.18898671865463257,0.5260999202728271,0.03903592750430107
1761475899526909700,8.24690966796875,-0.16555942595005035,0.501895546913147,0.002858751220628619
1761475899536886800,8.25688671875,-0.14546090364456177,0.44645795226097107,0.027708295732736588
1761475899546863600,8.266863525390624,-0.1404576301574707,0.3310711681842804,0.09984933584928513
1761475899556840700,8.2768408203125,-0.14613643288612366,0.20786744356155396,0.14361423254013062
1761475899566817500,8.286817626953125,-0.11993945389986038,0.1283007115125656,0.1643322855234146
1761475899576794600,8.296794677734376,-0.0199856199324131,0.04928126558661461,0.13548216223716736
1761475899586771500,8.306771484375,0.16608412563800812,-0.030229274183511734,0.07492028176784515
1761475899596748500,8.31674853515625,0.35220038890838623,-0.12658698856830597,0.03349694609642029
1761475899606725600,8.3267255859375,0.3909786641597748,-0.34064096212387085,-0.046371255069971085
1761475899616701700,8.33670166015625,0.26355499029159546,-0.6715812087059021,-0.17782805860042572
1761475899626678800,8.3466787109375,0.06376225501298904,-0.9927565455436707,-0.37523674964904785
1761475899636655600,8.356655517578124,-0.10663078725337982,-1.1151535511016846,-0.6396739482879639
1761475899646632700,8.3666328125,-0.23106032609939575,-0.9511010050773621,-0.9209277629852295
1761475899656609500,8.376609619140625,-0.26815950870513916,-0.5293880105018616,-1.134856104850769
1761475899666586600,8.386586669921876,-0.22810529172420502,0.062226831912994385,-1.1900473833084106
1761475899676563500,8.3965634765625,-0.09299032390117645,0.6783785223960876,-1.0733927488327026
1761475899686540500,8.40654052734375,0.06410635262727737,1.0788580179214478,-0.860355794429779
1761475899696517600,8.416517578125,0.17246054112911224,1.2303495407104492,-0.6301077008247375
1761475899706493700,8.42649365234375,0.1870027333498001,1.169755220413208,-0.4563676118850708
1761475899716470500,8.436470458984376,0.1468885838985443,0.9427948594093323,-0.3158179223537445
1761475899726447600,8.446447509765624,0.11067146807909012,0.6186825633049011,-0.15076345205307007
1761475899736424700,8.4564248046875,0.11156367510557175,0.34403684735298157,0.05272781476378441
1761475899746401500,8.466401611328125,0.1530224233865738,0.14869558811187744,0.2736136019229889
1761475899756378600,8.476378662109376,0.21570567786693573,0.01710670255124569,0.442351371049881
1761475899766355500,8.48635546875,0.2747761905193329,-0.05719096213579178,0.5195431113243103
1761475899776332500,8.49633251953125,0.3015751838684082,-0.05919364094734192,0.5108582973480225
1761475899786309400,8.506309326171875,0.272148072719574,-0.004676338285207748,0.4417729675769806
1761475899796285700,8.51628564453125,0.21088427305221558,0.11263199895620346,0.3398556411266327
1761475899806262500,8.526262451171876,0.1242109015583992,0.21866469085216522,0.21343591809272766
1761475899816239600,8.536239501953125,0.04044942185282707,0.26056769490242004,0.07372036576271057
1761475899826216700,8.546216796875,-0.03605866804718971,0.2707872986793518,-0.019703855738043785
1761475899836193500,8.556193603515625,-0.1435234099626541,0.22467011213302612,-0.06857781857252121
1761475899846170600,8.566170654296876,-0.2912992835044861,0.08076246827840805,-0.0934528112411499
1761475899856147500,8.5761474609375,-0.4585390090942383,-0.0892796441912651,-0.10033703595399857
1761475899866124500,8.58612451171875,-0.6089460849761963,-0.23567786812782288,-0.0678587257862091
1761475899876100600,8.5961005859375,-0.7028059363365173,-0.3499448299407959,0.012012610211968422
1761475899886077700,8.60607763671875,-0.7434886693954468,-0.41568097472190857,0.11897500604391098
1761475899896054500,8.616054443359374,-0.782954216003418,-0.4608581066131592,0.16659444570541382
1761475899906031600,8.626031494140625,-0.8228944540023804,-0.5603556632995605,0.09110021591186523
1761475899916008700,8.6360087890625,-0.8992221355438232,-0.7856029272079468,-0.09743847697973251
1761475899925985500,8.645985595703126,-0.9933419823646545,-1.041857361793518,-0.38189685344696045
1761475899935962600,8.655962646484374,-1.0062466859817505,-1.2884788513183594,-0.7528783679008484
1761475899945939500,8.665939453125,-0.8565937876701355,-1.5923389196395874,-1.1958177089691162
1761475899955916500,8.67591650390625,-0.5568737387657166,-1.9122816324234009,-1.5811370611190796
1761475899965892600,8.685892578125,-0.34401634335517883,-1.6457980871200562,-1.4288052320480347
1761475899975869700,8.69586962890625,-0.29296836256980896,-0.4730878174304962,-0.5317491888999939
1761475899985846500,8.705846435546874,-0.4735035002231598,0.558414101600647,0.38152700662612915
1761475899995823600,8.71582373046875,-0.8011878132820129,0.7379383444786072,0.5804837346076965
1761475900005800400,8.725800537109375,-0.9898115396499634,0.44072285294532776,0.046905554831027985
1761475900015777500,8.735777587890626,-0.8936336636543274,-0.02164488658308983,-0.7584385275840759
1761475900025754600,8.745754638671874,-0.6731090545654297,-0.35730573534965515,-1.4074817895889282
1761475900035731500,8.7557314453125,-0.40232259035110474,-0.709597110748291,-1.8721742630004883
1761475900045707800,8.765707763671875,-0.08758437633514404,-0.9581182599067688,-2.093130588531494
1761475900055684600,8.7756845703125,0.20109327137470245,-0.8811678290367126,-2.013375997543335
1761475900065661700,8.78566162109375,0.3499184250831604,-0.600038468837738,-1.8154876232147217
1761475900075638500,8.795638427734374,0.2121138572692871,-0.2886000871658325,-1.6918710470199585
1761475900085615600,8.80561572265625,-0.1937500238418579,-0.04480423033237457,-1.6785684823989868
1761475900095592400,8.815592529296875,-0.5571325421333313,0.14263862371444702,-1.4790667295455933
1761475900105569500,8.825569580078126,-0.7746438384056091,0.21510963141918182,-1.0263540744781494
1761475900115546600,8.835546630859374,-0.9291152358055115,0.1440434753894806,-0.4720664620399475
1761475900125522700,8.845522705078125,-1.0622087717056274,0.009360223077237606,0.030684279277920723
1761475900135499500,8.85549951171875,-1.1338961124420166,-0.25141260027885437,0.32194316387176514
1761475900145476600,8.8654765625,-1.2157154083251953,-0.5604178309440613,0.37043532729148865
1761475900155453700,8.87545361328125,-1.3743209838867188,-0.8900267481803894,0.17137090861797333
1761475900165430500,8.885430419921875,-1.5376102924346924,-1.2141720056533813,-0.2433096468448639
1761475900175407600,8.89540771484375,-1.5805591344833374,-1.4037349224090576,-0.7343167066574097
1761475900185384400,8.905384521484375,-1.4316825866699219,-1.3485792875289917,-1.146385908126831
1761475900195361500,8.915361572265626,-1.1150981187820435,-1.0975115299224854,-1.4212390184402466
1761475900205338400,8.92533837890625,-0.7545356750488281,-0.6791383028030396,-1.5703749656677246
1761475900215314700,8.935314697265625,-0.442765474319458,-0.12245579808950424,-1.6050914525985718
1761475900225291500,8.94529150390625,-0.22260859608650208,0.42485469579696655,-1.5661773681640625
1761475900235268600,8.9552685546875,-0.08423512428998947,0.8894953727722168,-1.4789507389068604
1761475900245245700,8.96524560546875,0.006744315382093191,1.1695141792297363,-1.3572874069213867
1761475900255222500,8.975222412109375,0.060759179294109344,1.2805806398391724,-1.1969904899597168
1761475900265199600,8.98519970703125,0.027416402474045753,1.1801005601882935,-1.0830063819885254
1761475900275176400,8.995176513671876,-0.024021921679377556,0.8681871891021729,-1.0125677585601807
1761475900285153500,9.005153564453124,-0.04446648061275482,0.4358098804950714,-0.8982501029968262
1761475900295129600,9.015129638671874,-0.018907882273197174,0.08658953756093979,-0.6476802229881287
1761475900305106700,9.025106689453125,0.02395409718155861,-0.1355588436126709,-0.31702426075935364
1761475900315083300,9.035083251953125,0.05601341277360916,-0.19567786157131195,0.016618158668279648
1761475900325060000,9.04506005859375,0.07001125067472458,-0.07296207547187805,0.33888301253318787
1761475900335037200,9.055037109375,0.09217071533203125,0.16041958332061768,0.6108208894729614
1761475900345014000,9.065013916015625,0.13871212303638458,0.3967173397541046,0.8262482285499573
1761475900354991000,9.0749912109375,0.16198095679283142,0.6205927729606628,0.9999188184738159
1761475900364968000,9.084968017578126,0.14559932053089142,0.7365244626998901,1.0778412818908691
1761475900374945300,9.0949453125,0.08856454491615295,0.6781959533691406,1.016847848892212
1761475900384921000,9.104921142578124,0.09739425033330917,0.4721924066543579,0.882263720035553
1761475900394898200,9.114898193359375,0.23382852971553802,0.22423720359802246,0.8012351989746094
1761475900404875300,9.124875244140625,0.48157545924186707,0.12753090262413025,0.8534419536590576
1761475900414852000,9.13485205078125,0.7239370346069336,0.19262389838695526,1.0001366138458252
1761475900424829200,9.1448291015625,0.8371323347091675,0.5126500725746155,1.3134578466415405
1761475900434806000,9.154805908203125,0.7330613732337952,0.8861554861068726,1.768833875656128
1761475900444783000,9.164783203125,0.4348549544811249,0.9953230023384094,2.2287306785583496
1761475900454760200,9.17476025390625,0.1914103776216507,1.023363471031189,2.7708699703216553
1761475900464736300,9.184736328125,0.0024564301129430532,0.8556535243988037,3.2429537773132324
1761475900474713000,9.194713134765625,-0.23274222016334534,0.23042471706867218,3.3102827072143555
1761475900484690200,9.204690185546875,-0.4240458905696869,-0.485855370759964,3.037320137023926
1761475900494667300,9.214667236328125,-0.42723172903060913,-0.7649019956588745,2.7591381072998047
1761475900504644000,9.22464404296875,-0.30696338415145874,-0.6942203640937805,2.433152198791504
1761475900514621200,9.23462109375,-0.06343956291675568,-0.4841524362564087,1.9100687503814697
1761475900524598000,9.244597900390625,0.2328895628452301,-0.0788630023598671,1.2799144983291626
1761475900534575000,9.2545751953125,0.47628092765808105,0.3288693428039551,0.5759636163711548
1761475900544551200,9.26455126953125,0.63550865650177,0.5310400128364563,-0.026356616988778114
1761475900554528300,9.2745283203125,0.693588376045227,0.5739790797233582,-0.4005911648273468
1761475900564505000,9.284505126953125,0.6430392265319824,0.4439813792705536,-0.5632919073104858
1761475900574482200,9.294482177734375,0.4615490138530731,0.15963056683540344,-0.5981565713882446
1761475900584459000,9.304458984375,0.2077380269765854,-0.2579035460948944,-0.6244776248931885
1761475900594436000,9.31443603515625,-0.02328478731215,-0.7195912599563599,-0.7179398536682129
1761475900604413200,9.3244130859375,-0.19793222844600677,-1.0704197883605957,-0.8970574140548706
1761475900614390000,9.33439013671875,-0.33895838260650635,-1.2544595003128052,-1.175670862197876
1761475900624366300,9.344366455078125,-0.4225832521915436,-1.2657870054244995,-1.5376408100128174
1761475900634343200,9.35434326171875,-0.43913960456848145,-1.0351861715316772,-1.9001600742340088
1761475900644320300,9.3643203125,-0.3692617416381836,-0.5283365249633789,-2.164870262145996
1761475900654297000,9.374297119140625,-0.23347006738185883,0.1568884402513504,-2.2557897567749023
1761475900664274200,9.384274169921875,-0.0644269809126854,0.9051762223243713,-2.095167875289917
1761475900674251000,9.3942509765625,0.060322266072034836,1.5518665313720703,-1.7611753940582275
1761475900684228000,9.40422802734375,0.09396465122699738,1.8642420768737793,-1.3843913078308105
1761475900694205200,9.414205078125,0.06509208679199219,1.7648478746414185,-1.0593444108963013
1761475900704182300,9.424182373046875,-0.020473415032029152,1.3264673948287964,-0.7815649509429932
1761475900714158300,9.434158447265625,-0.10157130658626556,0.6630383729934692,-0.5832082033157349
1761475900724135200,9.44413525390625,-0.1425216645002365,-0.042382627725601196,-0.45032763481140137
1761475900734112300,9.4541123046875,-0.18757638335227966,-0.5163109302520752,-0.30314433574676514
1761475900744089000,9.464089111328125,-0.22702792286872864,-0.6373492479324341,-0.09391681849956512
1761475900754066200,9.474066162109375,-0.23884132504463196,-0.4885939061641693,0.16829439997673035
1761475900764043000,9.48404296875,-0.22525440156459808,-0.18505743145942688,0.47893640398979187
1761475900774020000,9.49402001953125,-0.2041427046060562,0.13528120517730713,0.7665974497795105
1761475900783997200,9.5039970703125,-0.19937936961650848,0.3320712447166443,0.9802271723747253
1761475900793973200,9.51397314453125,-0.23007868230342865,0.36899134516716003,1.112576961517334
1761475900803950000,9.5239501953125,-0.31744688749313354,0.16263629496097565,1.1148030757904053
1761475900813927200,9.53392724609375,-0.41642874479293823,-0.2591986358165741,0.9843693971633911
1761475900823904300,9.543904296875,-0.4391023516654968,-0.7283810377120972,0.7475206255912781
1761475900833881000,9.553881103515625,-0.34096524119377136,-0.9574177265167236,0.5059741735458374
1761475900843858200,9.563858154296875,-0.15513303875923157,-0.891196608543396,0.34142279624938965
1761475900853835000,9.5738349609375,0.05268125236034393,-0.5463106036186218,0.3031258285045624
1761475900863812000,9.58381201171875,0.24318301677703857,-0.002648122375831008,0.38945963978767395
1761475900873788200,9.5937880859375,0.39358028769493103,0.4513206481933594,0.5239241719245911
1761475900883765200,9.60376513671875,0.4683551788330078,0.5948240160942078,0.6046504378318787
1761475900893742000,9.6137421875,0.5034367442131042,0.6240639090538025,0.7152038216590881
1761475900903719200,9.62371923828125,0.47716790437698364,0.6552844047546387,0.8944010138511658
1761475900913696300,9.6336962890625,0.42544877529144287,0.542311429977417,1.1078431606292725
1761475900923673000,9.643673095703125,0.38168931007385254,0.2176624834537506,1.3090647459030151
1761475900933650200,9.653650146484376,0.33994367718696594,-0.21914121508598328,1.5570729970932007
1761475900943627000,9.663626953125,0.26952651143074036,-0.6494672894477844,1.9355412721633911
1761475900953603300,9.673603271484374,0.011299863457679749,-1.287774682044983,2.255411148071289
1761475900963580200,9.683580078125,-0.3791501820087433,-1.935457468032837,2.265422821044922
1761475900973557200,9.69355712890625,-0.6551401019096375,-2.1515462398529053,2.02282452583313
1761475900983534000,9.7035341796875,-0.7042061686515808,-1.7550709247589111,1.60288405418396
1761475900993511200,9.71351123046875,-0.2907143235206604,-0.9686506390571594,1.046169400215149
1761475901003488000,9.723488037109375,0.30554482340812683,-0.012426964938640594,0.4762021005153656
1761475901013465000,9.733465087890625,0.7797309160232544,0.706024706363678,-0.07165663689374924
1761475901023442200,9.743442138671876,0.9777308106422424,0.8870842456817627,-0.5637070536613464
1761475901033418200,9.753418212890624,0.945336639881134,0.7535707950592041,-0.8623141646385193
1761475901043395300,9.763395263671875,0.8045161366462708,0.4471445381641388,-1.0320360660552979
1761475901053372200,9.7733720703125,0.6554285287857056,0.15882952511310577,-1.0483806133270264
1761475901063349200,9.783349365234375,0.44689956307411194,0.0549425408244133,-0.926742434501648
1761475901073326000,9.793326171875,0.10244370251893997,0.14008671045303345,-0.7801250219345093
1761475901083303200,9.80330322265625,-0.2878396213054657,0.18022240698337555,-0.7048009634017944
1761475901093280000,9.813280029296875,-0.6208422183990479,0.02677672542631626,-0.713239848613739
1761475901103257000,9.823257080078125,-0.7385150790214539,-0.2523331940174103,-0.7546160221099854
1761475901113233200,9.833233154296876,-0.5991203188896179,-0.45392951369285583,-0.7957590818405151
1761475901123210200,9.843210205078124,-0.3062335252761841,-0.4117026925086975,-0.8770899176597595
1761475901133187300,9.853187255859375,0.03877165913581848,-0.1272038370370865,-0.9626451730728149
1761475901143164200,9.8631640625,0.38617488741874695,0.3391111493110657,-0.9902504682540894
1761475901153141200,9.873141357421876,0.6562680006027222,0.8403561115264893,-0.8957557082176208
1761475901163118000,9.8831181640625,0.8136917352676392,1.1843481063842773,-0.7270620465278625
1761475901173095200,9.89309521484375,0.9075558185577393,1.2919838428497314,-0.4915730059146881
1761475901183072000,9.903072021484375,0.931403636932373,1.1471443176269531,-0.20650160312652588
1761475901193048300,9.91304833984375,0.90253746509552,0.8033780455589294,0.05191362649202347
1761475901203025200,9.923025146484376,0.8390921950340271,0.37131741642951965,0.2415354996919632
1761475901213002200,9.933002197265624,0.7451756000518799,-0.04211306944489479,0.33767303824424744
1761475901222979000,9.94297900390625,0.6606484651565552,-0.2908909320831299,0.3276510238647461
1761475901232956200,9.9529560546875,0.6270744800567627,-0.30852118134498596,0.2601093649864197
1761475901242933200,9.962933349609376,0.6235431432723999,-0.1058916300535202,0.14467251300811768
1761475901252910000,9.97291015625,0.6120167374610901,0.2761577367782593,0.014283344149589539
1761475901262887200,9.98288720703125,0.5672503113746643,0.6650458574295044,-0.09882669895887375
1761475901272863200,9.99286328125,0.4924520254135132,0.924839973449707,-0.15017451345920563
1761475901282840300,10.00284033203125,0.41929659247398376,1.0510060787200928,-0.12423346191644669
1761475901292817200,10.012817138671876,0.36104848980903625,1.0375994443893433,-0.0796203464269638
1761475901302794200,10.022794189453125,0.3490932881832123,0.8427777290344238,-0.03742389380931854
1761475901312771000,10.03277099609375,0.38971880078315735,0.5038891434669495,0.012534016743302345
1761475901322749200,10.042749267578126,0.49794647097587585,0.20412318408489227,0.08974411338567734
1761475901332726000,10.05272607421875,0.6639081239700317,0.0038089777808636427,0.13708680868148804
1761475901342703000,10.062703125,0.8651182055473328,-0.07042530924081802,0.18319091200828552
1761475901352679000,10.072678955078125,1.0473345518112183,0.0521545484662056,0.2831217050552368
1761475901362656000,10.082656005859375,1.1661626100540161,0.3552246689796448,0.40861597657203674
1761475901372633000,10.092633056640626,1.1789124011993408,0.7724704742431641,0.4975762665271759
1761475901382610200,10.102610107421874,1.1210269927978516,1.1028167009353638,0.6012025475502014
1761475901392587000,10.1125869140625,1.032791018486023,1.2531147003173828,0.7956555485725403
1761475901402564000,10.122564208984375,0.9738577008247375,1.0499690771102905,0.9685154557228088
1761475901412541200,10.132541259765626,0.9705100059509277,0.5502322912216187,0.9366819262504578
1761475901422518000,10.14251806640625,0.9414021968841553,0.019189998507499695,0.7680984735488892
1761475901432494000,10.152494140625,0.8809002041816711,-0.1209973394870758,0.8079979419708252
1761475901442471000,10.162470947265625,0.5257620811462402,0.04488910362124443,1.0481324195861816
1761475901452448300,10.1724482421875,-0.09737556427717209,0.08686456084251404,1.3642324209213257
1761475901462425000,10.182425048828126,-0.6223487854003906,-0.19868062436580658,1.5494025945663452
1761475901472402200,10.192402099609374,-0.7497755289077759,-0.7226510643959045,1.4249664545059204
1761475901482379000,10.20237890625,-0.5607432723045349,-1.2809542417526245,1.0093634128570557
1761475901492356000,10.212356201171875,-0.21227358281612396,-1.505000352859497,0.375791072845459
1761475901502333200,10.222333251953126,0.1860508918762207,-1.253523826599121,-0.4013100266456604
1761475901512309000,10.23230908203125,0.5106036067008972,-0.7667816281318665,-1.214062213897705
1761475901522285800,10.242285888671875,0.5901010632514954,-0.3291377127170563,-1.905374526977539
1761475901532263200,10.25226318359375,0.4293595254421234,-0.0811309963464737,-2.4473142623901367
1761475901542240300,10.262240234375,0.15264643728733063,-0.0426696315407753,-2.892965316772461
1761475901552217000,10.272217041015624,-0.010188398882746696,-0.12045612186193466,-3.126770257949829
1761475901562194200,10.282194091796875,-0.10693491250276566,-0.09388097375631332,-3.030254602432251
1761475901572171000,10.2921708984375,-0.2292494773864746,0.05742086470127106,-2.6572635173797607
1761475901582148000,10.302148193359375,-0.3356717824935913,0.16585414111614227,-2.173109531402588
1761475901592124000,10.3121240234375,-0.407504141330719,0.14021088182926178,-1.6037801504135132
1761475901602101000,10.32210107421875,-0.4060865342617035,0.0011904051061719656,-1.0069385766983032
1761475901612077800,10.332077880859375,-0.3536377549171448,-0.20493730902671814,-0.49302297830581665
1761475901622055200,10.34205517578125,-0.35773158073425293,-0.38093018531799316,-0.10855358839035034
1761475901632032300,10.3520322265625,-0.4561873972415924,-0.453401118516922,0.12408287823200226
1761475901642009000,10.362009033203124,-0.5897635817527771,-0.42010414600372314,0.1742943674325943
1761475901651986200,10.371986083984375,-0.6480045914649963,-0.23361527919769287,0.11221267282962799
1761475901661963000,10.381962890625,-0.5385259985923767,0.06439217925071716,0.023735271766781807
1761475901671939000,10.39193896484375,-0.2765457034111023,0.33314457535743713,-0.040429700165987015
1761475901681916000,10.401916015625,0.08214320987462997,0.4961089789867401,-0.06465141475200653
1761475901691893000,10.41189306640625,0.4142756760120392,0.4875958561897278,-0.07651080191135406
1761475901701870000,10.4218701171875,0.5675152540206909,0.32586929202079773,-0.15303806960582733
1761475901711847200,10.43184716796875,0.5016671419143677,0.0006103210616856813,-0.33514052629470825
1761475901721824300,10.44182421875,0.25401976704597473,-0.3240162134170532,-0.5644213557243347
1761475901731801000,10.451801025390624,-0.0758289247751236,-0.4980641305446625,-0.7810149788856506
1761475901741777000,10.46177685546875,-0.39005425572395325,-0.2940598726272583,-0.9280300140380859
1761475901751754000,10.47175390625,-0.594159722328186,0.13211536407470703,-0.9427899718284607
1761475901761731000,10.48173095703125,-0.6614444851875305,0.5679214000701904,-0.7814450263977051
1761475901771708000,10.4917080078125,-0.6353192925453186,0.869225025177002,-0.4929347634315491
1761475901781685000,10.50168505859375,-0.5836132168769836,0.983684241771698,-0.15176065266132355
1761475901791662000,10.511662109375,-0.5637059807777405,0.9546213150024414,0.21035397052764893
1761475901801639200,10.52163916015625,-0.5073066353797913,0.7158867716789246,0.5465508699417114
1761475901811616000,10.531615966796876,-0.4705248177051544,0.19388242065906525,0.7691987752914429
1761475901821592000,10.541592041015624,-0.490207701921463,-0.41821399331092834,0.8468900918960571
1761475901831569000,10.55156884765625,-0.45140883326530457,-0.9011467695236206,0.8263995051383972
1761475901841546000,10.5615458984375,-0.3103225529193878,-1.1195480823516846,0.7879841923713684
1761475901851523000,10.571523193359376,-0.08661135286092758,-0.9410915374755859,0.7202039361000061
1761475901861500000,10.5815,0.19150015711784363,-0.44922059774398804,0.6945875287055969
1761475901871477200,10.591477294921875,0.4424729347229004,0.21274669468402863,0.8201911449432373
1761475901881454000,10.6014541015625,0.6531367301940918,0.8634001016616821,1.114534616470337
1761475901891431200,10.61143115234375,0.8761109113693237,1.21150803565979,1.4072617292404175
1761475901901407000,10.621406982421876,1.0088777542114258,1.0517576932907104,1.548880696296692
1761475901911384000,10.631384033203124,0.9259483218193054,0.5348458886146545,1.5237020254135132
1761475901921361000,10.64136083984375,0.662676215171814,-0.201168492436409,1.4658206701278687
1761475901931338000,10.651337890625,0.24310502409934998,-1.1212077140808105,1.3634268045425415
1761475901941314800,10.661314697265626,-0.165785014629364,-1.6336787939071655,1.375415563583374
1761475901951292200,10.671292236328124,-0.5201780200004578,-1.799513816833496,1.5170435905456543
1761475901961269200,10.681269287109375,-0.49092480540275574,-1.7441811561584473,1.6488823890686035
1761475901971246000,10.69124609375,-0.059771060943603516,-1.5104024410247803,1.6110750436782837
1761475901981222100,10.70122216796875,0.5069746375083923,-1.1791776418685913,1.3232792615890503
1761475901991199000,10.711198974609376,0.9661024212837219,-0.8437435030937195,0.6594443321228027
1761475902001176000,10.721176025390625,1.1904815435409546,-0.46733176708221436,-0.28650277853012085
1761475902011153000,10.73115283203125,1.250952959060669,0.0574302114546299,-1.0981276035308838
1761475902021130000,10.7411298828125,1.1953179836273193,0.5825634598731995,-1.5006848573684692
1761475902031107000,10.751107177734376,1.0284695625305176,0.9062826633453369,-1.5427117347717285
1761475902041084200,10.761084228515625,0.8467264771461487,0.9878227710723877,-1.3685115575790405
1761475902051061200,10.771061279296875,0.7151092886924744,0.843512237071991,-1.048710823059082
1761475902061037000,10.781037109375,0.6814754605293274,0.5562053322792053,-0.6607751250267029
1761475902071014100,10.79101416015625,0.7986471652984619,0.11179303377866745,-0.343718558549881
1761475902080991000,10.800990966796874,0.9064178466796875,-0.4350847005844116,-0.16134504973888397
1761475902090968000,10.810968017578125,0.8932511806488037,-0.8025386929512024,-0.035150639712810516
1761475902100945000,10.82094482421875,0.8089306950569153,-0.7500818967819214,0.137734055519104
1761475902110922000,10.830921875,0.7498608231544495,-0.3598024845123291,0.31117013096809387
1761475902120899000,10.840899169921874,0.6871564388275146,0.06321773678064346,0.41876211762428284
1761475902130875100,10.850875244140624,0.5864572525024414,0.2836008667945862,0.4771502912044525
1761475902140852000,10.86085205078125,0.44621679186820984,0.25769737362861633,0.4591350853443146
1761475902150829000,10.8708291015625,0.2765773832798004,-0.7663471698760986,0.033551353961229324
1761475902160806000,10.880805908203126,-0.2777297794818878,-1.7959821224212646,-0.627651572227478
1761475902170783000,10.890782958984374,-0.7963786125183105,-2.292426586151123,-1.1964305639266968
1761475902180760000,10.900760009765625,-1.287028431892395,-2.098071336746216,-1.627151370048523
1761475902190737000,10.91073681640625,-1.7242189645767212,-1.6159166097640991,-1.8838226795196533
1761475902200714000,10.9207138671875,-2.1118547916412354,-0.9735783934593201,-2.0279557704925537
1761475902210690000,10.93068994140625,-2.423903465270996,-0.4303881824016571,-2.179828405380249
1761475902220667100,10.940667236328125,-2.4928505420684814,-0.12093444168567657,-2.1511740684509277
1761475902230644000,10.95064404296875,-2.403430461883545,-0.19711756706237793,-1.8583738803863525
1761475902240621000,10.96062109375,-2.2569921016693115,0.14194758236408234,-1.329250454902649
1761475902250598000,10.970597900390626,-2.1241443157196045,0.4554482400417328,-0.7260752320289612
1761475902260575000,10.980574951171874,-1.9393055438995361,0.6277390718460083,-0.17906196415424347
1761475902270552000,10.990552001953125,-1.6671515703201294,0.6665295362472534,0.26175451278686523
1761475902280528100,11.000528076171875,-1.393860936164856,0.8514519929885864,0.4748454689979553
1761475902290505200,11.010505126953126,-1.1687500476837158,1.0704976320266724,0.5495643615722656
1761475902300482000,11.02048193359375,-0.9948448538780212,1.0559968948364258,0.56552654504776
1761475902310459100,11.030459228515625,-0.8092654347419739,0.9689829349517822,0.5414927005767822
1761475902320435500,11.040435546875,-0.43331366777420044,1.0057703256607056,0.46599847078323364
1761475902330412300,11.050412353515625,0.1835932731628418,1.0281790494918823,0.33325061202049255
1761475902340389400,11.060389404296876,0.8317674994468689,0.3984455168247223,0.02057047374546528
1761475902350366500,11.070366455078124,1.184449315071106,-0.4713975191116333,-0.5086570382118225
1761475902360342500,11.080342529296875,1.0425843000411987,-0.4807792901992798,-1.1027265787124634
1761475902370319400,11.0903193359375,0.8289832472801208,0.04749862849712372,-1.4324995279312134
1761475902380296400,11.10029638671875,0.6589406728744507,0.6368947625160217,-1.4889836311340332
1761475902390273300,11.110273193359374,0.5387980937957764,0.9182270765304565,-1.350828766822815
1761475902400250400,11.12025048828125,0.30395177006721497,-0.15845143795013428,-1.49016535282135
1761475902410227500,11.1302275390625,-0.23139913380146027,-1.5901328325271606,-2.212284803390503
1761475902420204300,11.140204345703125,-0.5879159569740295,-2.151031494140625,-3.0261037349700928
1761475902430181400,11.150181396484374,-0.6499748826026917,-1.8110233545303345,-3.56931734085083
1761475902440157400,11.160157470703124,-0.8367828130722046,-0.7050458788871765,-3.7401421070098877
1761475902450134500,11.170134521484375,-0.7603654265403748,1.0775681734085083,-3.40287446975708
1761475902460111400,11.180111328125,-0.4019467830657959,2.461184501647949,-2.7645139694213867
1761475902470088400,11.19008837890625,0.007305430248379707,2.898622512817383,-2.129756212234497
1761475902480065300,11.200065185546874,0.3196955621242523,2.7331390380859375,-1.5585631132125854
1761475902490042400,11.21004248046875,0.42254385352134705,2.3197293281555176,-1.049789547920227
1761475902500019200,11.220019287109375,0.29547804594039917,1.7881178855895996,-0.5779269337654114
1761475902509995500,11.22999560546875,0.01537363138049841,1.1742968559265137,-0.09916483610868454
1761475902519972400,11.239972412109376,-0.1967223733663559,0.5655720829963684,0.35883280634880066
1761475902529949400,11.249949462890624,-0.174425408244133,0.1332620233297348,0.7273364067077637
1761475902539926500,11.259926513671875,-0.015215255320072174,0.059384334832429886,0.9482235312461853
1761475902549903400,11.2699033203125,0.14333340525627136,0.3425023853778839,1.0408141613006592
1761475902559880400,11.27988037109375,0.32833120226860046,0.7100617289543152,1.07350492477417
1761475902569857300,11.289857177734374,0.5271199941635132,0.9293093681335449,1.0830470323562622
1761475902579834400,11.29983447265625,0.5952308177947998,1.0301973819732666,1.1498428583145142
1761475902589810400,11.309810546875,0.47792956233024597,0.6366991400718689,1.2824894189834595
1761475902599787500,11.31978759765625,0.4058955907821655,0.16147881746292114,1.4180691242218018
1761475902609764400,11.329764404296874,0.31025195121765137,-0.338993102312088,1.481982946395874
1761475902619741400,11.339741455078125,0.12227218598127365,-0.5126023888587952,1.4139817953109741
1761475902629718500,11.349718505859375,-0.16614994406700134,-0.4718950390815735,1.2513549327850342
1761475902639695400,11.3596953125,-0.41877099871635437,-0.6941547393798828,1.1626263856887817
1761475902649672400,11.36967236328125,-0.6400874257087708,-1.2060390710830688,1.0206562280654907
1761475902659648500,11.3796484375,-0.8913513422012329,-1.4413602352142334,0.770479142665863
1761475902669625600,11.38962548828125,-0.9568098783493042,-1.0053726434707642,0.5117347836494446
