time,seconds_elapsed,z,y,x
1761476187223268900,0.109268798828125,1.9430951382249593,0.3545905597671866,0.8219985934842378
1761476187233303600,0.119303466796875,2.5283973646342752,0.3856381705902517,0.7007883350465446
1761476187243339500,0.129339599609375,3.124886755490303,0.4225650487102568,0.6326045142017305
1761476187253374500,0.13937451171875,3.9940456710129975,0.4633148461192846,0.5136909883990883
1761476187263409700,0.14940966796875,4.948153152763843,0.5282689643278717,0.3458305494021624
1761476187273444600,0.159444580078125,5.685832637029886,0.5970569616109133,0.2107106792839244
1761476187283480600,0.16948046875,6.3810179644376035,0.6446082557283341,0.2357053832761943
1761476187293515800,0.179515869140625,6.9929305498749015,0.7017237892657519,0.3903397724099457
1761476187303550700,0.18955078125,7.402053787079453,0.7128013558581471,0.4952788046022877
1761476187313586700,0.199586669921875,7.714411763533949,0.7524025677539408,0.5692853767838328
1761476187323621600,0.20962158203125,7.901140203803777,0.7430550398245453,0.6624700025681406
1761476187333656600,0.219656494140625,8.025179840448498,0.6671098642632365,0.6884244549706577
1761476187343689200,0.229689208984375,8.24315798998475,0.6421082556061446,0.6484226994499563
1761476187353724200,0.23972412109375,8.430489656844735,0.7080711124658584,0.5266752653956412
1761476187363759400,0.24975927734375,8.49601572972238,0.8343395310759544,0.32570319571793077
1761476187373794300,0.259794189453125,8.557903738358617,0.9837060628093779,0.09311879400648176
1761476187383830300,0.269830322265625,8.817250255593658,1.2253241772606969,-0.11566124600842595
1761476187393865500,0.279865478515625,8.967615004584193,1.4891265048608182,-0.2580896490417421
1761476187403900400,0.289900390625,9.025427142083645,1.7031790053859353,-0.4397885707117617
1761476187413936400,0.299936279296875,9.103917910474538,1.9091361699998377,-0.5480498426619916
1761476187423971300,0.309971435546875,9.09117767136693,2.120994375351071,-0.5859044300861657
1761476187434006300,0.32000634765625,8.692954598361252,2.39159060087502,-0.6539351792611181
1761476187444042200,0.330042236328125,8.039747879505157,2.615157948720455,-0.8244971323017031
1761476187454077200,0.3400771484375,7.4741171527713535,2.773785791404545,-1.0001761360950767
1761476187464112400,0.3501123046875,6.955504782322048,2.7371117190018293,-1.2082468587968498
1761476187474147300,0.360147216796875,6.459656616866588,2.6094904244780537,-1.3374533036202192
1761476187484183300,0.370183349609375,5.5679117755264045,2.480278938153386,-1.230370646995306
1761476187494218200,0.38021826171875,4.339751205796003,2.14793645055145,-0.9962938878342509
1761476187504253400,0.39025341796875,3.178785518938303,1.5546452712148426,-0.6147242087919265
1761476187514289400,0.400289306640625,1.5087638100057839,0.6058239131733775,-0.3028779081866145
1761476187524324400,0.410324462890625,-0.5788379988312721,-0.6434089629411697,0.14102905762940646
1761476187534359300,0.420359375,-2.4881202993035316,-1.731756865094602,0.8998085400041193
1761476187544394200,0.430394287109375,-4.812490298342705,-2.6268323121622204,1.4619693256050348
1761476187554430200,0.44043017578125,-7.048236257511377,-3.281114843556285,1.963436646116525
1761476187564465400,0.45046533203125,-9.7860029332906,-3.573569557406008,2.3878595976531503
1761476187574500400,0.460500244140625,-13.383811736679077,-3.546407701975107,1.797410656005144
1761476187584536300,0.470536376953125,-16.2893391174078,-3.47058030757457,-0.21800134774874894
1761476187594571300,0.4805712890625,-17.27877568669319,-3.522261102712154,-3.1567490436971184
1761476187604606500,0.4906064453125,-16.889911978185175,-2.9487314394220707,-5.931983572605252
1761476187614642400,0.500642333984375,-16.40483596663475,-1.9749659019991754,-6.990410091486573
1761476187624677400,0.510677490234375,-16.990452081298827,-2.551511990500986,-5.72946602705121
1761476187634712300,0.52071240234375,-17.91250496714115,-4.432807382895052,-3.139341981822252
1761476187644747300,0.530747314453125,-17.960933774745463,-5.3040416433870785,-1.0783496552303433
1761476187654783200,0.540783203125,-16.828590955781937,-4.383401254691183,0.09871470518424175
1761476187664818200,0.550818115234375,-14.941110152751207,-3.072725483359396,0.7742144404590129
1761476187674853400,0.560853271484375,-12.523376810359954,-2.4006948215678334,1.3032025128416715
1761476187684889300,0.570889404296875,-9.720659815764426,-2.189954075939208,1.7866006543077528
1761476187694924300,0.58092431640625,-6.263800282767415,-2.3415458825066686,1.716748973315954
1761476187704959500,0.59095947265625,-2.814745870563388,-2.5356273158878087,1.269227908656001
1761476187714995500,0.600995361328125,-0.09485971938967704,-2.5296482414782044,0.8597460672721267
1761476187725030400,0.611030517578125,2.2599217845261097,-2.4637504126787184,0.22628215976208446
1761476187735065300,0.6210654296875,4.157131369888782,-2.2904557467386124,-0.23823168688341972
1761476187745100300,0.631100341796875,5.138533101278544,-2.0297019930541516,-0.23510829416587947
1761476187755136300,0.64113623046875,5.096178060629963,-1.8023393445789813,0.2951430761508643
1761476187765171200,0.651171142578125,4.787072363969683,-1.35768711335361,0.7644847813442349
1761476187775206400,0.661206298828125,4.6357875775247805,-0.7120816632814705,1.3381282802723347
1761476187785242400,0.671242431640625,4.196260434228182,-0.29037688466235995,1.7693340238168835
1761476187795277300,0.68127734375,4.3424680635392665,-0.07976809485033154,2.131439343128353
1761476187805312500,0.6913125,4.980241066420078,-0.05168722487837076,2.166611340405047
1761476187815348500,0.701348388671875,6.0759893079578875,-0.28105215308666226,1.654200454944372
1761476187825383400,0.711383544921875,7.215699440819025,-0.11767974622398614,1.0704814060732721
1761476187835418000,0.721418212890625,7.763959930557012,0.8165633436277508,1.264267802030593
1761476187845453300,0.731453369140625,8.479583065837621,1.1725219768777488,1.657204166804999
1761476187855489300,0.7414892578125,9.950201561844349,1.2859727072298526,1.8857210998818277
1761476187865524200,0.751524169921875,11.008301917511224,1.5722516550540924,2.412293635555357
1761476187875559400,0.761559326171875,10.649093342554568,1.380367439456284,3.100085783971846
1761476187885595400,0.771595458984375,10.802679976201057,1.439482476247847,3.607058277770877
1761476187895630300,0.78163037109375,11.171076066219806,1.975416276115179,3.3849200859457254
1761476187905665300,0.791665283203125,11.34488598820567,2.6479125095918774,2.67750509930104
1761476187915700200,0.8017001953125,11.219928067672251,2.963658959440887,1.8000329673327504
1761476187925736400,0.811736328125,11.066074892044067,3.0781168210089205,1.2406525331653653
1761476187935771100,0.821771240234375,10.880786129188538,3.1889132374599574,0.9328712169766425
1761476187945806300,0.831806396484375,10.807407589244843,3.4817920219406484,0.8853941571392119
1761476187955842300,0.84184228515625,10.445590877616405,3.677598379418254,1.0797660978995263
1761476187965877200,0.851877197265625,10.18947910451889,3.6421021186232565,1.5547963701233267
1761476187975912400,0.861912353515625,9.933969388967752,3.8262390810951588,1.9678699523888528
1761476187985948400,0.871948486328125,9.587288287150859,4.050192505648732,2.011900817295164
1761476187995983400,0.8819833984375,9.615845104071497,4.094372131375968,1.9159451193623243
1761476188006018300,0.892018310546875,9.91935283459425,3.799874805782735,1.75422018744573
1761476188016053200,0.90205322265625,9.705246558055281,3.3040017981469627,1.1098755510896443
1761476188026089500,0.91208935546875,8.809026032605766,2.98883987018764,0.4278038261465728
1761476188036124200,0.922124267578125,7.732796146008372,2.5886902130335567,0.1729706216175109
1761476188046159400,0.932159423828125,5.882594395536184,1.8493185378968715,0.39187114669568834
1761476188056195300,0.9421953125,3.1185254037648438,0.4218570465713739,1.024594245775789
1761476188066230300,0.952230224609375,0.860163123640418,-1.977018158353865,1.7659303528532384
1761476188076265200,0.96226513671875,-0.8064864785104989,-4.402425104112923,2.1440144548021256
1761476188086301400,0.972301513671875,-3.616505905073881,-5.4961225506007665,1.6398441589422523
1761476188096336400,0.98233642578125,-7.772808422923088,-5.935014318603277,0.2339851353548467
1761476188106371300,0.992371337890625,-12.647113080143928,-5.7810641123414035,-1.9296729082025585
1761476188116406300,1.00240625,-17.37810466045141,-4.076291408023238,-4.826260465019941
1761476188126442500,1.0124423828125,-20.786075367116926,-1.7365644115068017,-7.695203789716959
1761476188136477200,1.022477294921875,-23.771389985787867,-0.20352073124721645,-7.700854947346448
1761476188146512400,1.032512451171875,-26.481380765891075,0.1874241674490273,-5.725594154053926
1761476188156548400,1.04254833984375,-27.926328229546545,0.18178616156205535,-3.24138021453917
1761476188166583300,1.052583251953125,-28.98901708204746,0.005285246926546096,-1.070801943264529
1761476188176618200,1.0626181640625,-28.999592252075672,-0.4117711213648319,-0.02306757185459137
1761476188186654200,1.072654296875,-27.56540466736555,-0.9787475636191666,-0.0747478555355221
1761476188196689400,1.082689453125,-24.862741453671454,-1.3923597828060388,-0.4508133111383766
1761476188206724400,1.092724365234375,-21.04705503851175,-1.703613889671862,-1.232140287016332
1761476188216759300,1.10275927734375,-15.636047058355807,-2.2429585208959875,-2.412580635803193
1761476188226795300,1.112795166015625,-10.78059323207736,-2.5375714356929064,-3.2895208528518673
1761476188236830200,1.122830322265625,-6.7864879398316145,-2.629774503093958,-3.344355143584311
1761476188246865200,1.132865234375,-4.204976240125299,-2.6723008086562157,-2.861761888760328
1761476188256901400,1.1429013671875,-2.814353656375408,-2.470599255660176,-2.0358568624220785
1761476188266936300,1.152936279296875,-1.7010574831873178,-1.881805972264707,-1.0259615886062383
1761476188276971300,1.16297119140625,-0.7195154665440321,-1.2324886620625852,-0.10723287875056266
1761476188287006500,1.17300634765625,0.3268196325272322,-0.7025768989637494,0.5289407261095941
1761476188297042400,1.18304248046875,2.125010040733218,-0.08035393191426991,0.8181966439180076
1761476188307077400,1.193077392578125,4.035971088072658,0.47579205037653444,0.8342844398878514
1761476188317112300,1.2031123046875,5.69610210210979,0.8148632617115974,0.9337054758436978
1761476188327148300,1.213148193359375,7.457420284992456,1.065509462879598,1.0790114801399409
1761476188337184000,1.22318408203125,8.975013298141956,1.4957386164769528,1.0762933072224259
1761476188347219000,1.233218994140625,10.12071594941616,1.9901327837318181,1.1432808309547602
1761476188357254000,1.24325390625,10.788830314546823,2.386550853142142,1.3819833502203225
1761476188367289900,1.253289794921875,10.98208611075878,2.5991645530357954,1.8630995182290673
1761476188377324800,1.26332470703125,11.149530589365959,2.8854169051140546,2.290678303448111
1761476188387359700,1.27335986328125,11.303455076664685,3.2817268379747864,2.5843688427031037
1761476188397396000,1.28339599609375,11.476534346288442,3.5396573509320617,2.794940515375137
1761476188407431000,1.293430908203125,11.78700314799547,3.7016707444012162,2.973374005508423
1761476188417465900,1.3034658203125,12.072248661118746,3.9406951890975233,3.167140089330077
1761476188427501000,1.3135009765625,12.468529952406882,4.076454197369515,3.1826994775116444
1761476188437537000,1.323537109375,12.628759092807769,4.1324414575293655,2.8068177079126237
1761476188447572000,1.333572021484375,12.9223667760849,4.107103018133342,2.303134903308749
1761476188457607000,1.34360693359375,13.106674711209536,4.151155802610516,2.095733385105431
1761476188467643000,1.353642822265625,13.028124321585892,4.225540304726362,2.132517201492935
1761476188477677800,1.363677734375,12.743252902472019,4.282055680413544,2.3993878306224943
1761476188487712800,1.373712646484375,12.221243290799855,4.464936797605454,2.638972539550066
1761476188497748000,1.383748046875,11.734334218603372,4.783352174402773,2.7393089367851613
1761476188507784000,1.393783935546875,11.300337236905097,4.951062902730703,2.81647605535686
1761476188517819000,1.40381884765625,11.153860727524757,5.072842777749896,2.872387327671051
1761476188527854000,1.41385400390625,11.13899049065113,5.086323606091738,2.7437442888841033
1761476188537890000,1.42389013671875,10.839555124133824,5.185221202695369,2.484198741945624
1761476188547925000,1.433925048828125,9.889816943508386,5.263575192964077,2.1043302407979962
1761476188557959700,1.443959716796875,8.887035154959559,5.041831553414464,1.740447098159045
1761476188567995000,1.453994873046875,7.92482093912065,4.528900443471968,1.361667853552848
1761476188578030800,1.46403076171875,6.5085208932787175,4.041771591044962,0.9083705435790121
1761476188588065800,1.474065673828125,5.25922342749536,3.1562808416634796,0.6343054729007184
1761476188598101000,1.48410107421875,3.928157779085636,1.9556904159039257,0.6651303808838128
1761476188608137000,1.494136962890625,2.2246476420491934,0.44377398708611726,0.5437045799992978
1761476188618172000,1.504171875,0.050562897023558616,-1.3644836416259407,0.020550620597600936
1761476188628206800,1.514206787109375,-2.5248703595519064,-3.1091257072567937,-0.7573810868188738
1761476188638242000,1.524241943359375,-6.173973296847939,-4.151632480211556,-1.7326352553643285
1761476188648278000,1.534278076171875,-10.457502264684438,-4.111598283725977,-3.169691235117614
1761476188658312700,1.544312744140625,-14.873828176116943,-3.7714410307198762,-3.81386212234199
1761476188668348000,1.554347900390625,-20.068448490798474,-3.276345729458332,-4.287898853483796
1761476188678382800,1.5643828125,-24.5333329736948,-2.071865018261969,-5.464466014099121
1761476188688418800,1.574418701171875,-27.547787177610395,-0.9612800037287175,-6.727658734244108
1761476188698454000,1.5844541015625,-29.341116701781747,-0.16831695059277116,-7.577900767850876
1761476188708489000,1.594489013671875,-29.78054622992277,0.6721717507626861,-6.949715093004703
1761476188718525000,1.60452490234375,-29.494586431050298,0.5983375760059804,-5.459353785651922
1761476188728559900,1.614559814453125,-28.14583022764921,-1.129146799401194,-4.272585549017787
1761476188738595000,1.624594970703125,-25.378299112725255,-1.9306947985962033,-3.32743177357316
1761476188748629800,1.634629638671875,-21.42039384562969,-2.669541280815005,-2.7180139275610444
1761476188758665700,1.644665771484375,-17.89448766441345,-3.3323321128353474,-1.8924854794502257
1761476188768701000,1.654700927734375,-14.150554818344116,-3.693107498717308,-1.519415698532015
1761476188778735900,1.66473583984375,-10.429362211871146,-3.564629879625141,-1.525743732509762
1761476188788770800,1.674770751953125,-7.528745399537682,-3.106842857016623,-1.2643404288753866
1761476188798806800,1.684806884765625,-5.55749384188652,-2.589021636945009,-1.0945450032278894
1761476188808842000,1.694842041015625,-3.422420087778568,-1.7284648378118872,-1.3314816818647086
1761476188818877000,1.704876953125,-1.595453082421422,-0.43321693723648785,-1.3016878704950212
1761476188828913000,1.714912841796875,-0.568388501009345,0.03801730370521545,-0.9026774465039372
1761476188838948000,1.724947998046875,0.6406716469317675,0.4959323366075754,-0.2868554325379431
1761476188848982800,1.734982666015625,1.976525698661804,1.1865884961530566,0.19245441670119762
1761476188859017700,1.745017822265625,3.373081764113903,1.9689380200117825,0.7397540985830128
1761476188869054000,1.755053955078125,4.517720001026988,2.6258248886853455,1.3245017598494886
1761476188879089000,1.7650888671875,5.7599634566456075,3.0871570365548133,1.7795364150099455
1761476188889123800,1.775123779296875,7.426051333260536,3.398433939774334,2.1750527132749555
1761476188899159000,1.785158935546875,9.093229343199729,3.696954237273335,2.67577988294363
1761476188909195000,1.795195068359375,10.603517001771927,4.0417017406791445,2.9992513740867373
1761476188919230000,1.80522998046875,12.145523156166076,4.5158869403809305,2.830411349467933
1761476188929265000,1.815264892578125,13.168681962311267,4.9627673690497875,2.785091321533918
1761476188939299800,1.8252998046875,13.514220908355712,4.836756140071153,3.143003719200194
1761476188949335800,1.835335693359375,13.971532130146025,4.487254427875578,3.862299113252759
1761476188959370800,1.845370849609375,14.083323110592364,4.187970744788647,4.3158764092117545
1761476188969406000,1.855406005859375,14.086071532517671,4.1433056736320255,4.509128113770485
1761476188979441000,1.86544091796875,14.052936155635118,4.070064204071462,4.608368240201473
1761476188989476900,1.875476806640625,13.646972843766212,4.067930406913161,4.553647054454684
1761476188999512000,1.885511962890625,13.517410059785842,4.237712680818141,4.261224197047949
1761476189009547000,1.895547119140625,13.539094652849435,4.390068895886838,3.82980904853642
1761476189019583000,1.9055830078125,13.244644089007377,4.362795981296896,3.3699013805121183
1761476189029617700,1.91561767578125,12.801258516716956,4.391886758963763,2.917165211552381
1761476189039652900,1.92565283203125,12.444487398040295,4.579038977603614,2.577764329871535
1761476189049687800,1.935687744140625,11.980316227352619,4.634045702293515,2.349357140779495
1761476189059723800,1.945723876953125,11.26748944479227,4.659628764100373,2.362685116647184
1761476189069759000,1.955759033203125,10.35330071645379,4.612128761778772,2.2907965230003
1761476189079794000,1.9657939453125,9.298001974204182,4.614363388963043,2.020205412042886
1761476189089828900,1.975828857421875,8.36235135564208,4.653576916715503,1.70857823408097
1761476189099864800,1.98586474609375,7.540644511646032,4.4113431545838715,1.1179941217459737
1761476189109900000,1.995900146484375,6.717869161635637,4.143557018044591,0.22794410162493586
1761476189119934700,2.005934814453125,6.034829614573717,3.765342129322886,-0.5497830231301486
1761476189129970000,2.015969970703125,5.451291475227475,3.0195412979215384,-0.8544602358236908
1761476189140006000,2.026005859375,4.905694067218899,2.2642840713888406,-0.5444124360077083
1761476189150040800,2.036040771484375,3.466758995720744,1.3364756907597184,-0.0561437658958137
1761476189160075800,2.04607568359375,1.6803788522958754,-0.17107260597646234,0.53312590283975
1761476189170112000,2.056112060546875,-0.6928408101081848,-2.106260916599631,1.3765980039201675
1761476189180147000,2.06614697265625,-3.6230864525079727,-4.115454666893184,1.8489796613313256
1761476189190182000,2.076181884765625,-6.353088924026489,-5.488754067659378,1.3375775145217776
1761476189200217000,2.086217041015625,-8.95734261689484,-5.516781892269849,-0.7501146029472351
1761476189210253000,2.096253173828125,-11.28727667980194,-4.427743377503752,-3.1973277223229406
1761476189220287700,2.106287841796875,-13.543528835904597,-3.376208956223726,-5.022009247091412
1761476189230323000,2.116322998046875,-16.27767907475233,-2.0510455175951123,-5.895047049874067
1761476189240358000,2.12635791015625,-19.338495216870307,-1.1291114358268677,-4.874690733928978
1761476189250393900,2.136393798828125,-22.031097639799118,-1.099205542384833,-3.3194024886354803
1761476189260428800,2.1464287109375,-24.49687283630371,-0.5098887465719133,-1.832577246454358
1761476189270464000,2.156464111328125,-26.49571090453863,-0.056121188737824554,-0.8708264834087341
1761476189280499000,2.1664990234375,-27.149103501355647,-0.14671185250617563,-0.47067857982031996
1761476189290535000,2.176534912109375,-26.188780798351765,-0.49901510505378244,-0.5470870620444417
1761476189300570000,2.186570068359375,-23.514324272966384,-0.7525142845001072,-1.1909396040346474
1761476189310604800,2.196604736328125,-19.8357924120903,-1.0311810768201946,-1.8701915223166345
1761476189320639700,2.2066396484375,-16.196360389459134,-1.7438450700342654,-2.1660407009102403
1761476189330676000,2.216676025390625,-12.699860335469245,-1.925725631881505,-2.0487825410991904
1761476189340711400,2.22671142578125,-9.91036171888709,-1.778779313032329,-1.6531316566690801
1761476189350746000,2.23674609375,-7.643517441621422,-1.6211571402594447,-1.1929138997823
1761476189360782300,2.2467822265625,-5.672710120606422,-1.2337981372259557,-0.7727061547879129
1761476189370817300,2.2568173828125,-4.000650768366456,-0.7305155839860439,-0.35010113939344883
1761476189380852200,2.266852294921875,-2.4222090265005827,-0.2557340258263051,-0.014239683885127304
1761476189390887200,2.27688720703125,-0.4696715216696262,0.28921207866668697,0.11040317934975027
1761476189400923100,2.286923095703125,1.6963830616354942,0.8085241218179464,0.11632511674463748
1761476189410958300,2.296958251953125,4.323317957389355,1.0745093464151023,0.1988797735735774
1761476189420993300,2.3069931640625,6.833876298472285,1.1243867453925311,0.4884732527732849
1761476189431028500,2.317028564453125,8.720863180506228,1.1680837021693586,1.0140471327982843
1761476189441064400,2.327064453125,9.79702526256442,1.3021445282213389,1.5849733355917035
1761476189451099100,2.33709912109375,10.370362910413741,1.5292939723372458,2.0598266438134014
1761476189461134000,2.347134033203125,10.816909577083587,1.8834455561652779,2.2197703914016484
1761476189471169300,2.357169189453125,11.04471412410736,2.219118357233703,2.310408401443064
1761476189481205200,2.367205322265625,11.40976908700466,2.396624211128056,2.387401624752581
1761476189491240200,2.377240234375,11.817276705706119,2.544617847073078,2.4751620335310696
1761476189501275400,2.387275390625,12.289116803586483,2.671965877613425,2.67005390651226
1761476189511310300,2.397310302734375,12.957957144904135,2.717992300251126,2.768248907804489
1761476189521346300,2.40734619140625,13.758304390007257,2.667794144886732,2.7656898709714413
1761476189531381200,2.41738134765625,14.385385318481921,2.62006296415776,2.7137504248976705
1761476189541416200,2.427416259765625,14.842377391320467,2.618701320415735,2.620176361404359
1761476189551452200,2.4374521484375,14.768881946998833,2.5648224307119847,2.4700354842975734
1761476189561487000,2.447487060546875,14.223372217273711,2.5796336308747527,2.380667055800557
1761476189571522300,2.457522216796875,13.545944080352783,2.74621214030236,2.306752070892602
1761476189581557200,2.46755712890625,12.671783411020039,2.962905802986026,2.209050406075269
1761476189591593200,2.47759326171875,11.705048502886294,3.162486710566282,2.0748016562357545
1761476189601628400,2.48762841796875,10.866448976278305,3.2525030815780163,1.9247646778948604
1761476189611663400,2.497663330078125,10.11025066950321,3.4426565278604624,1.6469024068906903
1761476189621698300,2.5076982421875,9.61227835150063,3.6421900891676544,1.2094213824689388
1761476189631734300,2.517734375,9.28017522561252,3.6810862215340134,0.8341689968146383
1761476189641769200,2.527769287109375,8.993470745852589,3.5919369887456294,0.6895828312255442
1761476189651804200,2.53780419921875,8.210191539928317,3.481027759569883,0.5624852683149277
1761476189661839400,2.54783935546875,7.415106160876155,3.323112449069321,0.3480528285615146
1761476189671875300,2.557875244140625,6.388904333773255,2.9463112265378233,0.2732679289512336
1761476189681910300,2.56791015625,4.565327555376291,2.364199028341472,0.25018589017987247
1761476189691945200,2.5779453125,2.6663322556406257,1.7259429181188344,0.19387159002274273
1761476189701980400,2.58798046875,0.5891156472176313,1.073929062309116,-0.3423626540958881
1761476189712016400,2.598016357421875,-0.7775918079376221,0.42174861776083705,-1.1762614556670188
1761476189722051300,2.60805126953125,-2.008020907121897,-0.5299390894971787,-1.6134798836298285
1761476189732086300,2.618086181640625,-4.29635746974945,-1.5865956760965287,-1.6730616611503064
1761476189742121200,2.628121337890625,-6.657749916237592,-2.759818933111429,-1.5542342061959207
1761476189752157200,2.6381572265625,-9.28092107554376,-3.5073099095568057,-1.180682779240608
1761476189762192100,2.648192138671875,-12.534774987208843,-3.484592174053192,-1.4971733254551887
1761476189772227300,2.658227294921875,-15.700786364769934,-2.625262578627467,-3.193559601961076
1761476189782262300,2.66826220703125,-18.77762191379666,-1.33387559126392,-5.365979920905828
1761476189792298200,2.67829833984375,-21.593421677327154,0.08572028125301002,-7.093939439544081
1761476189802333400,2.68833349609375,-24.18865912004709,1.1058636850997805,-7.307713707649707
1761476189812368100,2.6983681640625,-25.832147626841067,1.4558140178456902,-5.90869329791069
1761476189822403000,2.708403076171875,-26.42312731436491,1.2356789825364947,-3.8007930896714326
1761476189832439300,2.718439208984375,-25.533204427754878,0.44714163688831027,-2.1724749717414378
1761476189842474200,2.72847412109375,-23.243241725230217,-0.2482010730382055,-1.4120213456094264
1761476189852509200,2.73850927734375,-20.047749401640893,-1.211110650730133,-1.395530960188061
1761476189862544400,2.74854443359375,-16.66988624846935,-2.0909277383893725,-1.4443570965468884
1761476189872580400,2.758580322265625,-13.586364938068389,-2.422946400864422,-1.6836781861022114
1761476189882615300,2.768615234375,-10.712029983460903,-2.73717572414875,-1.9308913440816102
1761476189892650200,2.778650146484375,-8.046782600447536,-2.7830396497011183,-2.1375879288859663
1761476189902685200,2.788685302734375,-5.97465834672749,-2.305189351620525,-2.019265646974742
1761476189912721200,2.79872119140625,-4.620311775973439,-1.7941564765147864,-1.365019502068311
1761476189922756000,2.808756103515625,-3.6293753235191106,-1.2926071768082679,-0.5977760696657002
1761476189932791300,2.818791259765625,-2.6353379824399945,-0.6848861978419125,0.017572481569647788
1761476189942826200,2.828826171875,-1.5001391895234584,-0.09423998005613685,0.2355202359676361
1761476189952862200,2.8388623046875,0.10792553718984127,0.25172128305360675,0.14311097846999762
1761476189962897400,2.8488974609375,1.7483020494431256,0.5445930532716214,0.043127486325800414
1761476189972932400,2.858932373046875,3.848824130129814,0.7635159363120794,-0.06654796327129006
1761476189982967300,2.86896728515625,6.016178105595707,0.8626007260508834,0.036331834836304186
1761476189993003300,2.879003173828125,7.748581744161248,0.9236835557840763,0.3098093148849904
1761476190003038200,2.8890380859375,9.170874892938137,1.0830411740474402,0.6393984121255576
1761476190013073200,2.8990732421875,10.252252079296111,1.2938045698992908,1.1098083310723303
1761476190023108400,2.9091083984375,10.87242746616602,1.5063947427868842,1.4927202915690838
1761476190033144300,2.919144287109375,11.345436607825755,1.8987559380218386,1.6573755778491497
1761476190043179300,2.92917919921875,11.92417757602334,2.30083890132606,1.7125535674527286
1761476190053214200,2.939214111328125,12.540323268985748,2.5915491095960137,1.721158314190805
1761476190063249400,2.94924951171875,13.307269764268398,2.8015885750874876,1.7232906500443814
1761476190073284400,2.959284423828125,14.01352418270111,2.7809730725601316,1.831870267228782
1761476190083320300,2.9693203125,14.55963480092883,2.873110381248593,1.8593489335238933
1761476190093355300,2.979355224609375,14.805520948088168,2.887926257586479,1.9592261888146398
1761476190103390200,2.98939013671875,14.847613538408279,2.8096660830810665,2.06342422991395
1761476190113425200,2.999425048828125,14.819645335030556,2.8811940267220137,2.127298736192286
1761476190123461000,3.009461181640625,14.34266144452095,3.0780817496955395,1.9723079348362982
1761476190133496300,3.019496337890625,13.560727807986735,3.380287749969959,1.7732850995302198
1761476190143531300,3.02953125,12.489114475274086,3.6433535799890753,1.5467263147838413
1761476190153566500,3.03956640625,11.406121670413016,3.7269068924665447,1.3719633298568428
1761476190163602400,3.0496025390625,10.494845030128955,3.8805405801251527,1.2573572919897735
1761476190173637400,3.059637451171875,9.664172789388894,3.992241251939535,1.0654328905120491
1761476190183672000,3.069672119140625,8.82404941421449,4.036631305547059,0.9157230982989072
1761476190193707300,3.079707275390625,7.955314861583709,3.8042271557733414,0.6611525632940233
1761476190203743200,3.0897431640625,7.175736263743042,3.610416940549016,0.37177996030338106
1761476190213778200,3.099778076171875,6.121275725883245,3.410650155007839,0.04853058747835457
1761476190223813400,3.1098134765625,4.9700540189266205,2.9948472939088937,-0.0176771840531379
1761476190233848300,3.119848388671875,3.848040286275744,2.457322425457835,0.038343393854424354
1761476190243883300,3.12988330078125,2.8112738105386494,1.9079259174272416,-0.0943119493138045
1761476190253919500,3.13991943359375,1.6360358527004717,1.3417241128072142,-0.0437970561504364
1761476190263954200,3.1499541015625,-0.03247778975665569,0.21965923449099062,0.1128052720554173
1761476190273989000,3.159989013671875,-2.289701421239972,-1.7643080123484134,0.7616798799913376
1761476190284024300,3.1700244140625,-4.88514169305563,-3.796913617889583,1.9019065110072493
1761476190294060300,3.180060302734375,-7.192894319292902,-5.279391186255216,2.2512559552505613
1761476190304095200,3.19009521484375,-9.462431488904356,-5.555893420952558,1.419284614610672
1761476190314130400,3.20013037109375,-12.793061181735991,-4.789918108789623,-0.0920146321568638
1761476190324165400,3.210165283203125,-16.60168891055584,-3.4911844119250772,-1.8505321514703332
1761476190334201300,3.220201416015625,-20.388782852959633,-1.4955730506516993,-3.3174306040406227
1761476190344235500,3.230235595703125,-23.095872066402436,-0.3949250543735921,-4.185741670562327
1761476190354270200,3.240270263671875,-24.951329253184795,-0.277986628036201,-3.9251594740524887
1761476190364305200,3.25030517578125,-25.95440622528791,-0.11868921552747487,-2.747726051996648
1761476190374340400,3.26034033203125,-26.03667651221752,-0.18812917391322553,-1.3201629999928175
1761476190384376300,3.270376220703125,-25.31624159274101,-0.7876466073535382,0.052049226591177285
1761476190394411300,3.280411376953125,-23.408710519850253,-1.1724255307659506,0.31494412049017845
1761476190404446500,3.290446533203125,-20.19188080919981,-1.3585127505227923,-0.23636253201067448
1761476190414481400,3.3004814453125,-16.458759280002116,-1.6591786817483603,-0.5524157827865332
1761476190424517400,3.310517333984375,-12.36228374660611,-1.9393929227061568,-0.7183254530418663
1761476190434552300,3.32055224609375,-7.930778386220336,-2.3383926791727543,-0.8300044975463301
1761476190444587300,3.330587158203125,-3.842747440564632,-2.4362185548916457,-0.8433153761487454
1761476190454622200,3.340622314453125,-0.4976958391487598,-2.2584696860216558,-0.8869031003974378
1761476190464657400,3.350657470703125,1.8554484189540146,-1.7672886355943977,-0.7412729787133634
1761476190474693400,3.360693359375,3.472476788845658,-1.2155812202729284,-0.6221234521977603
1761476190484728300,3.370728271484375,4.4050493151366705,-0.6436281586498022,-0.4766935292609036
1761476190494763300,3.38076318359375,4.823673371136188,-0.1499082373946905,-0.03645648412927985
1761476190504798500,3.390798583984375,4.837275780031085,0.49042204875349993,0.3672323069363832
1761476190514834400,3.40083447265625,4.949454883012176,1.0290734370164571,0.5709430808629841
1761476190524869000,3.410869140625,5.972466974163055,1.232625147923827,0.6455493359707295
1761476190534904300,3.420904296875,6.862750510779023,1.4839638614006339,0.7700480414945632
1761476190544939300,3.430939208984375,7.835078124353289,1.7914298280298708,1.0688144957743584
1761476190554974200,3.44097412109375,9.128703392162919,1.9008312829911709,1.3527490724295377
1761476190565010400,3.451010498046875,10.47896707751751,2.0391281391777096,1.5015420420587062
1761476190575045400,3.46104541015625,11.692733795714378,2.1720839265972374,1.5586495384201406
1761476190585080300,3.471080322265625,12.499886044657229,2.2260379273638127,1.5820856513261794
1761476190595115500,3.481115478515625,12.95403383398056,2.3523177441507577,1.615279772658646
1761476190605151500,3.4911513671875,13.154492108917236,2.533897423355281,1.6363902190960942
1761476190615186200,3.501186279296875,13.024591471284626,2.720851781335473,1.63425802937299
1761476190625221400,3.511221435546875,12.796909673857687,2.887805553816259,1.716328848207742
1761476190635256300,3.52125634765625,12.713844437158107,2.987666734755039,1.6334677557781339
1761476190645291300,3.531291259765625,12.028434069311619,3.0100626909583803,1.5940809172853827
1761476190655327200,3.5413271484375,11.46695169442892,2.9890947217315436,1.6527381273068487
1761476190665362400,3.551362548828125,11.064169350683688,3.194199068908393,1.6379682820677757
1761476190675397400,3.5613974609375,10.720465803372859,3.2895223141565917,1.576148077970743
1761476190685432300,3.571432373046875,10.776846446764468,3.1872292298957703,1.5747703598767517
1761476190695467300,3.58146728515625,10.954571496367453,3.086879388657212,1.4484171855926513
1761476190705503200,3.591503173828125,11.08669682431221,2.9785224743127823,1.3681200984321533
1761476190715538200,3.6015380859375,10.841251406657696,2.8364813170313834,1.2608372430600225
1761476190725573400,3.611573486328125,10.399773713815211,2.9102491485536097,1.0633180903151631
1761476190735608300,3.6216083984375,9.738021284931898,3.023114772494137,0.7951113902762532
1761476190745643300,3.631643310546875,8.877378268820047,2.929650014594197,0.6841575913064182
1761476190755679500,3.641679443359375,7.564263287642598,2.7902313147708773,0.5766333283938467
1761476190765714400,3.65171435546875,6.20879034320712,2.597388191013038,0.6596998802676797
1761476190775749000,3.6617490234375,4.967981888827682,2.0316551729485393,0.549992135836184
1761476190785784300,3.671784423828125,3.8913884296149015,1.2077321142077446,0.28638255432918663
1761476190795820300,3.6818203125,2.763955594524741,0.299478913398087,-0.24213965410739183
1761476190805855200,3.691855224609375,1.0967448513597249,-0.7652657025888562,-0.7077215683758259
1761476190815890400,3.701890380859375,-1.2583768442958592,-2.1282021147727965,-0.527523552788049
1761476190825925400,3.71192529296875,-4.307892424720525,-3.4996491656705735,0.37502895216196774
1761476190835960300,3.721960205078125,-8.083708017262817,-4.6772044605404135,0.9635657765783369
1761476190845996300,3.731996337890625,-12.081709732425212,-5.45883589925766,0.821125683107227
1761476190856031500,3.742031494140625,-16.621808153998852,-4.958336693125963,-0.7420603296987712
1761476190866066200,3.752066162109375,-20.593330443036557,-3.543910332201421,-3.5881302899390457
1761476190876101400,3.762101318359375,-24.152509948301315,-1.6159643939219415,-6.5024915499866
1761476190886136300,3.77213623046875,-26.975851213252543,-0.48000250767841934,-7.561396207773685
1761476190896172300,3.78217236328125,-28.607894781446454,-0.39347310199961066,-6.863079012081027
1761476190906207200,3.792207275390625,-28.62666494836807,-0.5541640877585858,-5.34022062574923
1761476190916242400,3.802242431640625,-27.334747653520104,-1.1381881839908659,-3.335074397280812
1761476190926277400,3.81227734375,-25.01353874886036,-1.9020168395139276,-1.9650126632615923
1761476190936312300,3.822312255859375,-21.999346410751343,-2.3797927571840582,-1.3915000972367821
1761476190946348500,3.8323486328125,-19.006634083044528,-2.713427184292674,-1.0643271212272345
1761476190956383200,3.84238330078125,-15.858336056828499,-2.7849732481122014,-1.0787572131179273
1761476190966418200,3.852418212890625,-12.27220541627407,-2.814866866594553,-1.4615893863767384
1761476190976453400,3.862453369140625,-8.715130189812182,-2.816685314193368,-2.0173587904401122
1761476190986488300,3.87248828125,-5.598138571485877,-2.477261343897879,-2.205955508799851
1761476190996524300,3.882524169921875,-3.186808081874251,-1.8812533068180084,-2.1440755373395977
1761476191006559500,3.8925595703125,-1.5713760412633417,-1.1234209691002965,-1.95240014218688
1761476191016594400,3.902594482421875,-0.2165752970010042,-0.267745804528892,-1.5619563248805701
1761476191026629000,3.912629150390625,1.2267267375349997,0.44396030343845483,-1.1390104601591824
1761476191036664300,3.922664306640625,2.9023616101741787,0.9111012837171554,-0.5304838638983667
1761476191046700300,3.9327001953125,4.3609939003109925,1.1877983103342353,0.41963484047725796
1761476191056735200,3.9427353515625,5.620855430206656,1.4316719486273823,1.2839683816701173
1761476191066770400,3.9527705078125,7.205145898100733,1.7347912643544374,1.7634223155550657
1761476191076805400,3.962805419921875,9.03089943601489,2.0931094663426277,2.1919383816242215
1761476191086840300,3.97284033203125,10.438697026449441,2.3702254490241406,2.496275548708439
1761476191096876300,3.982876220703125,11.705768633854388,2.5682000904515383,2.608647251652181
1761476191106911500,3.992911376953125,12.739105135142802,2.8347371037125586,2.6661297188058493
1761476191116946200,4.0029462890625,13.656734359323977,3.1056536472320553,2.7811367386892436
1761476191126981400,4.0129814453125,14.12917300761938,3.1970211405918,2.9568077783718705
1761476191137012200,4.02301220703125,14.435579382193088,3.1983757700711486,3.0893121687620875
1761476191147047200,4.033047119140625,14.604017548012733,3.279327667878568,3.185920485384762
1761476191157083400,4.04308349609375,14.598303262019156,3.354377648165822,3.4158582450449466
1761476191167118300,4.053118408203125,14.435683427089453,3.3433518117606638,3.499890573211014
1761476191177153300,4.0631533203125,14.329459433120489,3.309753493541479,3.3483918517544864
1761476191187188500,4.0731884765625,14.480585229611396,3.473629173751175,3.0055718092799184
1761476191197223400,4.083223388671875,14.194882620370388,3.6800536636158823,2.5117072188571092
1761476191207258000,4.093258056640625,13.434959740114211,3.703396253019571,2.0874035097859798
1761476191217294300,4.10329443359375,12.917639163041114,3.70924527130872,1.7756430608332157
1761476191227329300,4.113329345703125,11.998024902522562,3.883313551969826,1.5627277476444839
1761476191237364200,4.1233642578125,10.847318743872641,4.037946479798853,1.3095488131284714
1761476191247399400,4.1333994140625,10.09809378324151,4.106326480802894,1.0946740364350378
1761476191257434400,4.143434326171875,9.322657692033053,4.1311686611145735,0.8891980794668197
1761476191267470300,4.15347021484375,8.418889235422014,4.092016800421476,0.6923534649826586
1761476191277505300,4.16350537109375,7.600355176243186,4.0335128812655805,0.531547255346179
1761476191287540200,4.173540283203125,6.888482333406806,3.9450592295259237,0.21850392697602508
1761476191297575200,4.1835751953125,6.139802147176861,3.7276232240423557,-0.18603402826488016
1761476191307610400,4.1936103515625,5.106055896043777,3.533383969751,-0.5533158734314143
1761476191317646300,4.203646240234375,3.728131465825438,3.220731102003157,-0.8656006385192274
1761476191327681300,4.213681396484375,2.4721207661390303,2.6339213936403394,-1.0361150260910392
1761476191337716200,4.22371630859375,1.0130980153799056,1.9354469615593553,-1.1791675523720682
1761476191347751400,4.23375146484375,-0.47067982192933555,1.3344798407673835,-1.2945543653532863
1761476191357786400,4.243786376953125,-1.913582043492794,0.33211306276023383,-0.8962618803732096
1761476191367821600,4.253821533203125,-3.53802741164267,-1.2929840472966432,-0.045788010771945116
1761476191377857500,4.263857421875,-5.715146994319558,-2.4225088862299917,0.7047160298842936
1761476191387892500,4.273892578125,-7.516227863270044,-3.290379515507817,0.860690946906805
1761476191397927200,4.28392724609375,-9.645397946292162,-4.0668402735888955,0.4009359852261841
1761476191407962400,4.29396240234375,-13.640193558889626,-3.6723990572094913,-1.1577988933898509
1761476191417997300,4.303997314453125,-17.952811258566378,-2.035841372592002,-3.7637358631700275
1761476191428033300,4.314033203125,-21.2841955691576,-0.3646645022749901,-6.495365643629431
1761476191438068500,4.324068359375,-23.983742112135886,0.8785288014143705,-7.767736526486277
1761476191448103400,4.334103515625,-25.951803933835027,1.1425978171266615,-6.934083224108814
1761476191458138400,4.344138427734375,-26.712451621234415,0.9239047973193227,-4.865431030413508
1761476191468173600,4.354173583984375,-26.25357388077974,0.29110081502273677,-2.6343729368001223
1761476191478209500,4.36420947265625,-24.88460257234573,-0.35823636892363425,-1.2008283992338924
1761476191488244200,4.374244140625,-22.388514070641993,-1.0796022856399417,-0.7717609828922897
1761476191498279400,4.384279541015625,-19.197702598345277,-1.9677242603078484,-0.8389696020293981
1761476191508314400,4.394314453125,-15.894632528090476,-2.433595805172622,-0.9879420929439365
1761476191518349300,4.404349365234375,-12.444866168224811,-2.980740150362253,-1.3388636088095605
1761476191528384500,4.414384521484375,-8.71632904420793,-3.516639755699038,-1.929832482678443
1761476191538420500,4.42442041015625,-5.795645595401525,-3.4736265434026716,-2.4194538825735448
1761476191548455400,4.434455322265625,-3.642724049913883,-3.166302469462156,-2.4109575646460053
1761476191558490600,4.44449072265625,-2.2857412854373456,-2.718777897670865,-2.0798731142811477
1761476191568525300,4.454525390625,-1.489593245589733,-2.0116079718284308,-1.5332238591320813
1761476191578560300,4.464560302734375,-0.7725842089086771,-1.2562781184509395,-0.91758304695189
1761476191588595500,4.474595458984375,0.32678631477952,-0.6232824129745363,-0.34451091817095875
1761476191598631400,4.48463134765625,1.5000854135096073,-0.09699629302695394,0.2804218923591077
1761476191608666400,4.494666259765625,2.43030757728219,0.24934227896258235,0.8521784084968268
1761476191618701600,4.50470166015625,4.0044361321240665,0.6596892127431929,0.9162173115566372
1761476191628736500,4.514736572265625,5.730767172777653,1.0609186279579996,1.0956783911719918
1761476191638771200,4.524771240234375,7.2291942976862185,1.2132577457614242,1.5486255725339053
1761476191648807200,4.53480712890625,8.797313967502117,1.421464588998258,2.0355299685552715
1761476191658842400,4.54484228515625,10.237543170464038,1.6471699717856942,2.4369660122580825
1761476191668877300,4.554877197265625,11.464795977699756,1.8699287797272204,2.7660642572417853
1761476191678912500,4.56491259765625,12.399960858571529,2.1148677091643213,2.980307604163885
1761476191688947500,4.574947509765625,12.876949425256251,2.2575169153414665,3.078964377748966
1761476191698982400,4.584982421875,13.11807873327732,2.4116660051763055,3.151101393198967
1761476191709018400,4.595018310546875,13.200648295414448,2.6546970551654696,3.1804514063239098
1761476191719057400,4.605057373046875,13.24221364699006,2.77324540091753,3.1835996412217615
1761476191729092400,4.61509228515625,13.35713415763378,2.7353677979439497,3.1771208005964753
1761476191739127300,4.625127197265625,13.340490481346844,2.7452862576290964,3.077268679746985
1761476191749162500,4.63516259765625,13.189521336722374,2.859236754196882,3.0133900818154213
1761476191759198500,4.645198486328125,13.006640804052353,2.9557272896587845,2.9207144284665585
1761476191769233400,4.6552333984375,12.737142310637235,3.0576182228595017,2.832629317778349
1761476191779268600,4.6652685546875,12.22643735231161,3.268260038158297,2.770257325017452
1761476191789303300,4.67530322265625,11.621332108801603,3.491968255779147,2.6744910121768712
1761476191799338200,4.685338134765625,11.029487328881025,3.6138264567315574,2.4555238516032696
1761476191809373400,4.69537353515625,10.447239229345321,3.746468794287741,2.111150734467804
1761476191819409400,4.705409423828125,9.889620544153452,3.9304058502733703,1.7662449717603623
1761476191829444400,4.7154443359375,9.254555631187557,3.9450893324032426,1.5103900960333645
1761476191839479600,4.7254794921875,8.579457398518919,3.8173143086224792,1.1791237132303416
1761476191849514500,4.735514404296875,7.812742958426475,3.7300451904922722,0.9165108876757323
1761476191859549200,4.745549072265625,6.760721630412339,3.4288851921394463,0.6685610859848559
1761476191869584400,4.75558447265625,5.518465315312147,2.9194606290131806,0.4169676670946181
1761476191879620400,4.765620361328125,4.275330463811755,2.311009289945662,0.2986719809293747
1761476191889655300,4.7756552734375,2.7876795844614506,1.5834920109927653,0.06784311764836311
1761476191899690500,4.7856904296875,1.5274065511554478,1.017750517360866,-0.23235504993498324
1761476191909725400,4.795725341796875,0.1613455772101879,0.0956979237794876,-0.13176701602637766
1761476191919760400,4.805760498046875,-1.7662971403390169,-1.5981062272787092,0.3241656108871102
1761476191929795600,4.815795654296875,-3.4515415528446436,-3.286350990644097,1.0659504846453667
1761476191939831600,4.82583154296875,-5.147990665453672,-4.976005620807409,2.0561210672937333
1761476191949866200,4.8358662109375,-7.830261663982272,-6.348035147768258,2.3012319922968745
1761476191959901400,4.8459013671875,-11.615838772082329,-5.749637877464294,0.9413960303463041
1761476191969936400,4.855936279296875,-15.171513484096526,-3.8738825835406776,-2.064269156305492
1761476191979971300,4.865971435546875,-17.987951545530557,-1.7997594110883772,-5.202034974852204
1761476191990006500,4.876006591796875,-20.13391260435581,-0.3989294677093625,-6.944398281896114
1761476192000042500,4.88604248046875,-22.126140899062154,0.19117066050097345,-6.76875880639553
1761476192010077400,4.896077392578125,-23.479484430253503,0.30070166012607513,-5.250273228320479
1761476192020112600,4.906112548828125,-24.40591655409336,0.03610752456113696,-3.2707498091474174
1761476192030147300,4.916147216796875,-24.307917952156064,-0.6149765030525625,-1.542080827065557
1761476192040182300,4.926182373046875,-22.98323236017227,-0.9652782795846462,-1.030198349393159
1761476192050217500,4.936217529296875,-20.45137345690727,-1.328084002250433,-1.4537471484437583
1761476192060253400,4.94625341796875,-17.385165684878825,-1.4406398295894265,-1.9362851659491658
1761476192070288400,4.956288330078125,-13.578223717188834,-1.7940733282759784,-2.6303753915965555
1761476192080323600,4.966323486328125,-8.908862371364235,-2.2286849347412585,-3.4053631545156238
1761476192090358500,4.976358642578125,-4.79125637165606,-2.293795266424864,-3.690850075179338
1761476192100393200,4.986393310546875,-1.431598737260699,-2.3022066825479266,-3.2204894022017716
1761476192110428400,4.996428466796875,0.9153110103666782,-2.2637052485875784,-2.331564732848853
1761476192120464400,5.00646435546875,2.0947528496354817,-1.9930441411338746,-1.386820999509841
1761476192130499300,5.016499267578125,2.923195139366388,-1.3256800098486243,-0.6761592860288917
1761476192140534500,5.026534423828125,3.3947909070968625,-0.6474379261963069,-0.17159940632954238
1761476192150569500,5.036569580078125,3.733749305707216,-0.17361498393565417,0.1548445247530937
1761476192160604400,5.0466044921875,4.571213690805435,0.35876010053679347,0.439203318169713
1761476192170639600,5.0566396484375,5.337044918322563,0.7721462558828294,0.8082726312749088
1761476192180674300,5.06667431640625,5.994936580124497,0.9858245162680744,1.1980185294449328
1761476192190710300,5.076710205078125,6.957388696372509,1.2380509723648427,1.614573816346377
1761476192200745500,5.086745361328125,7.922525521659851,1.5446118068479,2.012708042024821
1761476192210780400,5.096780517578125,8.819514693394304,1.818266981551051,2.4212414966426787
1761476192220815400,5.1068154296875,9.745845694947242,1.9869778268322347,2.7975997977122664
1761476192230850600,5.1168505859375,10.504911666113138,2.1389503032803536,3.1768004826009273
1761476192240885500,5.126885498046875,11.208857223081589,2.3022115048535166,3.5604780206426976
1761476192250921500,5.13692138671875,11.62193416634798,2.3680481049850584,3.789725167690217
1761476192260956200,5.1469560546875,12.000371173387766,2.437275078207254,3.90236662748605
1761476192270991400,5.156991455078125,12.29031390441656,2.520413672403991,3.8691742597192524
1761476192281026300,5.1670263671875,12.383725178563594,2.6722134226337073,3.689274204164743
1761476192291061500,5.1770615234375,12.471747160887718,2.790506332319975,3.44175665641129
1761476192301096400,5.187096435546875,12.475301053977011,2.8627038457855583,3.203406457714736
1761476192311132400,5.19713232421875,12.380103480935096,2.911068940503895,3.0882343103975054
1761476192321167400,5.20716748046875,12.328466817200184,3.006341040086746,3.015814970874786
1761476192331202600,5.21720263671875,12.065053196656704,3.1534274980589747,3.0137352419912813
1761476192341237000,5.227237060546875,11.578770731925964,3.2849873010754584,3.089887922823429
1761476192351272200,5.237272216796875,11.039988849151134,3.3894591906800864,3.0135967103034256
1761476192361307100,5.24730712890625,10.429362211871146,3.4108681816726922,2.8175246876269577
1761476192371342000,5.257342041015625,9.966923564064501,3.3507360767930745,2.523013333508372
1761476192381378000,5.2673779296875,9.610759179109335,3.3083944801479577,2.1094345781996844
1761476192391413200,5.277413330078125,8.658537364974617,3.1625153521388767,1.55754581496194
1761476192401448200,5.2874482421875,7.538629080170392,2.796865345957875,1.143228077854216
1761476192411483100,5.297483154296875,6.080863051474094,2.4080036832764744,1.0232711804784833
1761476192421518000,5.30751806640625,3.841141758933663,2.0057026933074,1.0258366470523177
1761476192431553000,5.317552978515625,1.479412043315172,1.461982623478025,0.9769804078161716
1761476192441588200,5.327588134765625,-0.8583142809033394,0.7700245875537395,0.8772425609961152
1761476192451624200,5.337624267578125,-2.6387679568886755,-0.36277035909146066,0.5870945166535675
1761476192461659100,5.3476591796875,-4.102531764695048,-1.9329682964861392,0.4584907869637012
1761476192471694300,5.3576943359375,-6.112454121524095,-3.437864325147867,0.713902741228789
1761476192481729000,5.36772900390625,-8.776399189767242,-4.137742194285988,0.6254835762806237
1761476192491764000,5.377763916015625,-12.678429424905776,-3.641825055247545,-0.4393884654782712
1761476192501799200,5.387799072265625,-17.20257507506609,-2.697565013772249,-2.8957024445459245
1761476192511834000,5.397834228515625,-20.65264538631439,-1.4087645357705652,-6.236780758416653
1761476192521870000,5.4078701171875,-22.350464033710956,0.11627221751362085,-9.442031090432405
1761476192531905300,5.4179052734375,-23.11057396097183,0.17034619139805435,-10.130369912946223
1761476192541940200,5.427940185546875,-23.4453600423336,-0.49738297380730506,-8.439336980167031
1761476192551975200,5.43797509765625,-23.440171826040743,-0.7351496004622429,-6.10448124294877
1761476192562010000,5.448010009765625,-23.262456128787992,-0.9110309949599206,-4.034365990963578
1761476192572045000,5.458045166015625,-22.412325154340266,-1.2679574503287672,-2.841019837243855
1761476192582081000,5.4680810546875,-20.446201607227323,-1.5157877172932028,-2.476016020011902
1761476192592116200,5.4781162109375,-17.453269499289988,-1.6289476480051874,-2.5837334674090147
1761476192602151200,5.488151123046875,-13.837880031025408,-1.9655626983597874,-2.686602597992122
1761476192612186000,5.49818603515625,-9.511617252355814,-2.654896961651742,-2.809592141062021
1761476192622221300,5.50822119140625,-5.269595183905959,-2.9941952597409487,-3.0497084726482626
1761476192632256000,5.518256103515625,-2.1767010650038716,-2.7396681254863737,-2.954283228330314
1761476192642291000,5.528291015625,-0.09904372707605362,-2.3290537729412315,-2.549291099581122
1761476192652326100,5.538326171875,0.8318985676646232,-1.8751945913009345,-1.8604577715486288
1761476192662362000,5.548362060546875,0.930837665322423,-1.343524147966504,-0.951413274230808
1761476192672397000,5.55839697265625,1.2648217826515435,-0.7623198583953082,0.03572583176717162
1761476192682432300,5.568432373046875,1.7164087815761566,-0.2825916376136243,0.9215645178034901
1761476192692467200,5.57846728515625,2.596998607173562,-0.046285950356721874,1.4589672211796045
1761476192702502100,5.588502197265625,3.865329274728894,0.09165931591317057,1.6958781808532772
1761476192712537000,5.598537109375,5.136143575793504,0.3299623144671321,1.7594097189128397
1761476192722572000,5.608572021484375,6.492300410839915,0.6075483988784254,1.6550515188157557
1761476192732608000,5.61860791015625,8.058816737112403,0.8499499187923968,1.6188101387418805
1761476192742643200,5.628643310546875,9.283879340827465,0.9528177342012524,1.7658749694041906
1761476192752678100,5.63867822265625,10.295247171413898,1.0083766859464347,2.079053906852752
1761476192762713000,5.648713134765625,11.11908868935108,1.1412272594258188,2.4265523164018985
1761476192772748300,5.658748291015625,11.541513306677341,1.3692194379761815,2.792476755610108
1761476192782783000,5.668782958984375,11.633262200570107,1.543977892858535,3.1628800937980412
1761476192792818200,5.678818115234375,11.565962688279152,1.609329485952109,3.4038919129192826
1761476192802854100,5.688854248046875,11.623549784851074,1.7589269038319586,3.488561077684164
1761476192812889000,5.69888916015625,11.75919744170308,1.8712823862932622,3.3971406850934027
1761476192822924000,5.708924072265625,11.857198381727933,1.9379839326910673,3.388896588361263
1761476192832959200,5.718959228515625,12.019991235136985,1.986525991411507,3.367600117832422
1761476192842994200,5.728994140625,12.190765150427817,2.058018133086711,3.2913071517467496
1761476192853029400,5.739029296875,12.280716054987908,2.1712465989902614,3.1612916555628177
1761476192863064000,5.74906396484375,12.199853296768664,2.255486140166223,2.942177195473015
1761476192873100000,5.75910009765625,12.022263856244086,2.3508359811604023,2.751859498539567
1761476192883135000,5.769135009765625,11.60503680756092,2.4325877971738574,2.5460212841302154
1761476192893170200,5.779170166015625,11.034281577420234,2.6017721051856872,2.33961257635653
1761476192903205000,5.789205078125,10.238035337895154,2.6679630717128515,2.246908865956962
1761476192913240300,5.799240234375,9.250023248454928,2.651673031169176,2.025488467012346
1761476192923275300,5.809275146484375,8.237047398149967,2.6241514025151726,1.693517881462723
1761476192933310000,5.81931005859375,6.917838776272535,2.4322939287938175,1.2750567609399557
1761476192943346200,5.82934619140625,5.044323370230198,2.1779773685500023,0.8301594689123332
1761476192953381000,5.839381103515625,3.371589479729533,1.9408755624793468,0.32924642128273846
1761476192963416000,5.849416015625,1.5281144071638584,1.5834420343711972,-0.170775814986974
1761476192973451300,5.859451171875,-0.466016506293416,1.3577766913332043,-1.0566863972157239
1761476192983486200,5.869486328125,-2.016930774286389,0.9208182294808328,-1.686128355733305
1761476192993521200,5.879521240234375,-3.3629116677552457,-0.0660764002367854,-1.2303051805436611
1761476193003556400,5.889556396484375,-4.624267235600948,-1.2688470926448703,-0.16839914898350833
1761476193013591000,5.899591064453125,-5.844677045074105,-2.41661865914762,0.7749708117842674
1761476193023627000,5.909626953125,-7.492172449421882,-3.186699945324659,0.9578658113710582
1761476193033662200,5.919662109375,-9.965600206506252,-3.0474264991909266,0.09230945038497447
1761476193043697200,5.929697265625,-13.39480659342408,-2.0586383108116686,-1.7590309487283229
1761476193053732000,5.939732177734375,-17.552100460398197,-0.5603916570365428,-4.252970747965574
1761476193063767300,5.949767333984375,-20.03688197066784,0.6458309293910861,-6.599307664141058
1761476193073802200,5.95980224609375,-21.349727487254142,1.3129992458432913,-7.5264803772151465
1761476193083837000,5.9698369140625,-21.507871053552627,1.4023599294252693,-6.781345316246152
1761476193093873200,5.979873046875,-20.82445273630619,0.9047351827513426,-4.669980646766722
1761476193103908000,5.989908203125,-20.036007525920866,0.14909531357660888,-2.530156191000342
1761476193113943000,5.999943115234375,-18.82831749728918,-0.4430418734192848,-1.1726480144102125
1761476193123978200,6.009978271484375,-17.207765629446506,-1.1835283048648386,-0.5458363313309847
1761476193134013200,6.02001318359375,-15.383032082229851,-1.6181719869688151,-0.2786151351980865
1761476193144048000,6.030048095703125,-13.316722652268409,-1.6789038113072514,-0.36762934342995285
1761476193154083300,6.040083251953125,-10.640344218909739,-2.1087971570789814,-0.7070859008207917
1761476193164118000,6.050117919921875,-7.376352944111823,-2.456478960371017,-1.2612051995895803
1761476193174154000,6.060154052734375,-4.868298110282421,-2.3407778207436203,-1.6454717895656823
1761476193184189200,6.070189208984375,-3.2067092986524104,-2.062783593922853,-1.7236213433034717
1761476193194224000,6.08022412109375,-2.0595546950042247,-1.6021617862798272,-1.6367353792719541
1761476193204259000,6.090259033203125,-1.359549984616041,-1.010028544806689,-1.500535933756083
1761476193214294300,6.100294189453125,-0.5803735378354787,-0.38678485640734434,-1.2356459570497274
1761476193224329200,6.1103291015625,0.5122036724507808,0.04963438400179147,-0.7715683098644017
1761476193234364200,6.1203642578125,1.8946312593072652,0.2892430583268404,-0.1258709437251091
1761476193244399000,6.130399169921875,3.4059903465032577,0.49646001374348997,0.5961981528244912
1761476193254435000,6.14043505859375,4.991647426575422,0.6532508502587676,1.2489550820864737
1761476193264470000,6.150469970703125,6.607209231045842,0.7040070778973401,1.6782625907942652
1761476193274505200,6.160505126953125,8.329298396345973,0.7603269310124218,1.9013101525492966
1761476193284540200,6.1705400390625,9.909909298944473,0.9509932952530682,2.1270560134775933
1761476193294575000,6.1805751953125,11.180516094738245,1.1142854764863848,2.391583586612344
1761476193304610300,6.1906103515625,12.072757195162772,1.29015978365615,2.6924706132426857
1761476193314645000,6.20064501953125,12.471812627339363,1.3795923634305596,2.9582267052590847
1761476193324680200,6.21068017578125,12.40167233866453,1.363561850605905,3.1027056110814213
1761476193334716200,6.220716064453125,12.477851907503604,1.4139149042710661,3.2299244622841474
1761476193344756700,6.2307568359375,12.474031472432612,1.5545429798841475,3.238215613028407
1761476193354792000,6.2407919921875,12.33024376374483,1.7917817102074622,3.2910914631694554
1761476193364827000,6.250826904296875,12.125997786962985,1.9643445547416805,3.3568297174930573
1761476193374862000,6.260862060546875,11.906806754505634,2.1093957074940204,3.3784985284656286
1761476193384897000,6.27089697265625,11.868345214164256,2.2796967445760963,3.4090661006867884
1761476193394932000,6.280931884765625,12.082656657886504,2.4164815887644884,3.318009865233302
1761476193404967000,6.290966796875,12.309481546223163,2.577180684764683,2.946851324763894
1761476193415003000,6.3010029296875,12.507842556619643,2.7794956934839488,2.515003045532107
1761476193425037800,6.311037841796875,12.526437366974353,2.8980615748926994,2.2889776370100674
1761476193435073000,6.321072998046875,12.293014395546912,2.969398672136664,2.2162996465511617
1761476193445108000,6.33110791015625,11.57318270266056,3.1206460491806265,2.2400975785069166
1761476193455143000,6.341142822265625,10.320597885769605,3.2615792452201244,2.2944344411112367
1761476193465178000,6.35117822265625,9.050115008616446,3.3723318225294348,2.3197804792918264
1761476193475213000,6.361213134765625,7.874086777183413,3.526588318261504,2.0885903814829883
1761476193485247700,6.371247802734375,6.648764061227441,3.45745983697772,1.6379000391371548
1761476193495284000,6.381283935546875,5.746794762992859,3.1057951015293597,1.1690412951551377
1761476193505319000,6.39131884765625,5.116372122874855,2.78298967307955,0.4276965663798153
1761476193515353900,6.401353759765625,4.124733075109124,2.6169045001268385,-0.2735601898960769
1761476193525389000,6.41138916015625,2.5717618745863438,2.2716084229275584,-0.582509526950866
1761476193535424000,6.421424072265625,1.0737439150005579,1.0527676163367927,-0.261638865955919
1761476193545459000,6.431458984375,-0.8768974008202552,-0.5004648654706776,0.26762378558441996
1761476193555494000,6.441493896484375,-4.3271857387334105,-1.6457319018065928,0.5562754538893699
1761476193565528800,6.45152880859375,-8.023295341876148,-2.6579233237355946,0.04067380956336856
1761476193575564800,6.461564697265625,-11.302747805178164,-3.039896395947039,-1.7680375542655586
1761476193585600000,6.47160009765625,-14.767330625903606,-2.468348846384883,-4.624796812433004
1761476193595635000,6.481635009765625,-18.8163067414999,-1.6598912139318882,-7.977720754659176
1761476193605670000,6.491669921875,-22.309395525741575,-1.0086180934868751,-10.355329007411003
1761476193615705000,6.501705078125,-25.17618313370943,-0.7379243989378214,-11.133243471431731
1761476193625740000,6.511739990234375,-26.650417482125757,-0.3552970275361091,-10.499619404923916
1761476193635775000,6.52177490234375,-27.648965578627585,-0.16038809382226318,-8.480079909443855
1761476193645810000,6.531809814453125,-28.0277918772459,-0.37711817952618,-5.579382433089614
1761476193655844900,6.541844970703125,-27.446683595395086,-0.67702510907799,-3.221162186896801
1761476193665880800,6.551880859375,-25.594195779812335,-0.964376800700277,-2.0420915190279483
1761476193675916000,6.561916015625,-22.61413016771078,-1.1221529949910938,-1.515633549644798
1761476193685951000,6.571950927734375,-19.08702688566446,-1.431298585270345,-1.2933036346398292
1761476193695986000,6.58198583984375,-14.752032519006729,-2.2352944160088897,-1.693132535406947
1761476193706020900,6.592020751953125,-9.750665662449597,-2.6883941575840113,-2.075976837494969
1761476193716055800,6.602055908203125,-5.4643263133674855,-2.6689164269149304,-2.023529734160006
1761476193726091000,6.612091064453125,-2.2111948707580567,-2.5796616879254577,-1.431039349812269
1761476193736126000,6.6221259765625,-0.01563186889588833,-2.4924784945130347,-0.6341036667183041
1761476193746162000,6.632161865234375,1.3679355356454848,-2.022082750222087,-0.1388368082821369
1761476193756196900,6.64219677734375,2.5640672284305093,-1.176331890554726,0.22300357648283242
1761476193766232000,6.652232177734375,3.574625496199727,-0.3835390063539147,0.6735553871408104
1761476193776267000,6.66226708984375,4.727679679280519,0.2747727805562317,1.1900754614859819
1761476193786302000,6.672302001953125,6.196625858160853,0.9285193053774535,1.8523004763171076
1761476193796337000,6.6823369140625,7.539013111051917,1.4555258485540747,2.5489003466978666
1761476193806371800,6.692371826171875,8.675408420276641,1.8666883365012705,3.0157141408488153
1761476193816407000,6.702406982421875,10.011937594789266,2.2481904302000997,3.20214973565191
1761476193826442000,6.71244189453125,11.167056893706322,2.789386972901225,3.3829742125749585
1761476193836478000,6.72247802734375,11.996526188397407,3.312624957324564,3.6695284702092406
1761476193846513200,6.73251318359375,12.670571112620829,3.4738463236331936,3.8994834732651706
1761476193856547800,6.7425478515625,13.187484862458705,3.451478716741502,4.086951918247342
1761476193866582800,6.752582763671875,13.640657669270038,3.3900483887448907,4.273149028119445
1761476193876618000,6.762617919921875,13.797756110429763,3.3133541483819484,4.411817201836407
1761476193886653000,6.77265283203125,13.89065768148899,3.364372095696628,4.45419240849018
1761476193896687900,6.78268798828125,13.921999745213984,3.46101285328418,4.481294934949279
1761476193906723000,6.79272314453125,13.848013302505015,3.5026536081835626,4.524734263703227
1761476193916757800,6.8027578125,13.820007689726351,3.5648216028049586,4.539464215323329
1761476193926794000,6.8127939453125,13.818532356476783,3.7217113696500657,4.477512786062062
1761476193936829000,6.822828857421875,13.805057957875729,3.9344299912229177,4.362258221158385
1761476193946863900,6.83286376953125,13.59367613786459,4.0819291216492655,4.105735529172421
1761476193956898800,6.84289892578125,13.209248950499296,3.985741660787165,3.8319817164003847
1761476193966934000,6.85293408203125,12.791245656746625,3.7846170308962463,3.6390561750560995
1761476193976969000,6.862968994140625,12.387608741998672,3.7161350308224557,3.433912664912641
1761476193987004200,6.873004150390625,11.517386581158638,3.6967952473193404,3.1439553208366036
1761476193997038800,6.883038818359375,10.603538044559954,3.5357112436547875,2.943052517002821
1761476194007074800,6.89307470703125,9.550966096925736,3.255830472435057,2.7550831367611885
1761476194017109800,6.90310986328125,8.11079885328412,3.0390380255520344,2.3253898436062035
1761476194027145000,6.91314501953125,6.6774763609707355,2.746490080460906,1.8126295601859688
1761476194037180000,6.923179931640625,5.1671851952672005,2.112565277440846,0.9407613857045769
1761476194047215000,6.933215087890625,3.687310795137286,1.8564311463810503,-0.13396014215648175
1761476194057250000,6.94325,1.9017238479167222,1.4868420471854507,-0.9793570738196372
1761476194067284700,6.95328466796875,-0.1004302129983902,0.48453737462908025,-1.3228713821686804
1761476194077320000,6.96331982421875,-2.2342805627912283,-0.7517629546761513,-0.9181842277154326
1761476194087355000,6.97335498046875,-4.9073722295641895,-1.675860498088598,0.08238003091439604
1761476194097390800,6.983390869140625,-8.564992235314845,-2.533556354832649,0.9052714085198938
1761476194107426000,6.993426025390625,-12.147860074681043,-3.4601948148995634,1.1706420083500444
1761476194117461000,7.0034609375,-15.691815122807025,-3.6530341392651198,0.006930822176486253
1761476194127496000,7.013495849609375,-18.828064983832835,-2.639424959492683,-3.15560864149034
1761476194137531100,7.02353125,-20.91893251646757,-0.9736696758329868,-6.993219888210296
1761476194147565800,7.03356591796875,-22.593328202700615,-0.13136252687871455,-9.621285249298811
1761476194157600800,7.043600830078125,-23.675792599773406,0.1313595312040299,-10.152958176851271
1761476194167637000,7.053636962890625,-23.827985733234883,0.6207958568558096,-8.83179491377473
1761476194177672000,7.063671875,-24.074957922065256,0.4807946809694171,-6.234368436577916
1761476194187707000,7.073706787109375,-24.35440380899906,0.4014793348552659,-3.397112043520808
1761476194197742000,7.0837421875,-24.149388601410386,0.5563111097246408,-1.712617864860594
1761476194207777000,7.093777099609375,-22.81516127409935,0.5701106851594522,-0.909254632937163
1761476194217811700,7.103811767578125,-20.18458831410408,0.33750695769302547,-0.6752280695933848
1761476194227847000,7.113846923828125,-16.443434285098313,-0.126145742078498,-0.7224255087718368
1761476194237881900,7.1238818359375,-11.632010154682398,-1.0522827554292977,-1.0887984223999083
1761476194247917800,7.133917724609375,-6.58481385936439,-1.8683365420997142,-1.6464913418717682
1761476194257953000,7.143953125,-2.628364051774144,-2.1681243753165007,-2.0712229209661484
1761476194267988000,7.153988037109375,-0.49622576659619805,-2.0353364918097854,-1.8101884506441652
1761476194278023000,7.16402294921875,-0.0540881485402584,-1.7755628352038562,-1.1137842489659786
1761476194288058000,7.17405810546875,-0.3706365624219179,-1.1863069027327,-0.1509431334003806
1761476194298092800,7.1840927734375,-0.4562649276077747,-0.5620439542882144,0.49685748862847684
1761476194308128000,7.1941279296875,0.486960510122776,0.12225129192322493,0.8259471119143068
1761476194318163000,7.204162841796875,2.5265765789479016,0.7409056067056954,0.5941159397229552
1761476194328199000,7.214198974609375,4.875994510003924,1.0711313944146037,0.21337562417685985
1761476194338233900,7.22423388671875,7.122889639696479,1.1757476609259843,0.07941577428132295
1761476194348267500,7.234267578125,9.136753427627681,1.1927182310797273,0.36883842695876956
1761476194358302700,7.244302734375,10.655298626935481,1.154529077938944,1.0122405217677355
1761476194368337700,7.254337646484375,11.433208414781094,1.1327381018914282,1.908128454262018
1761476194378372400,7.264372314453125,11.594846252936124,1.086595213267207,2.5935011204466223
1761476194388407600,7.274407470703125,11.894043134522438,1.0849671736739575,2.829355995196104
1761476194398442500,7.2844423828125,12.277021876645087,1.200067863190174,2.8804318101778623
1761476194408478500,7.294478515625,12.372760716956853,1.3263703302003442,2.8103017506361008
1761476194418513700,7.304513671875,12.477353894853591,1.3412677473418413,2.6344839959591626
1761476194428548600,7.314548583984375,12.835726603507995,1.4163652200326322,2.3805913602158424
1761476194438583600,7.32458349609375,13.27151105314493,1.5518912963315843,2.1955133175015447
1761476194448618500,7.334618408203125,13.520139777010678,1.5366820367619394,2.0346946867749094
1761476194458653400,7.3446533203125,13.732797023785114,1.559605816231668,2.0372652679152785
1761476194468688400,7.3546884765625,13.68037710071802,1.6290514006406067,2.050270441569388
1761476194478724400,7.364724365234375,13.230813132053614,1.7383593320995567,2.028568605110049
1761476194488759600,7.374759521484375,12.580032179039716,1.7910691780239343,2.0298115909084675
1761476194498794500,7.38479443359375,11.822661321353912,1.9540061160787938,1.9740441109791398
1761476194508829700,7.39482958984375,10.827491761374473,2.202485348471254,1.7216414215326308
1761476194518864600,7.40486474609375,10.019370375138521,2.3564859697461125,1.5405254143171012
1761476194528899300,7.4148994140625,9.303419323077797,2.423356296839565,1.4816326419740915
1761476194538934500,7.4249345703125,8.646798411864042,2.512244978995621,1.3433774329721926
1761476194548970500,7.434970458984375,8.196860349190235,2.5439590909034013,1.2260549757532775
1761476194559005400,7.44500537109375,7.803237463456392,2.462800564607978,1.1528082454957067
1761476194569040600,7.45504052734375,7.09705494121611,2.36592351404652,1.0445645822674035
1761476194579075600,7.46507568359375,5.759826678523421,2.222669035452604,0.6894575974106788
1761476194589110500,7.475110595703125,4.22461091492176,1.9469563436977564,0.29134689873829483
1761476194599145500,7.4851455078125,3.0750521727412936,1.5290085795246064,-0.229222304867208
1761476194609180400,7.495180419921875,1.3284686176538467,0.976448931287974,-0.7639310929842292
1761476194619216400,7.50521630859375,-1.1042571266859769,0.6660413582488894,-1.0836851710394024
1761476194629251600,7.51525146484375,-3.3179221869498488,-0.007339256846904754,-0.8591989547833799
1761476194639286500,7.52528662109375,-5.47875348264873,-1.090346090233326,-0.1733838055282831
1761476194649321500,7.535321533203125,-7.556125573894381,-1.878094842787087,0.17521891200095413
1761476194659356700,7.545356689453125,-9.653649641808867,-2.3680491278983653,0.10569514778926968
1761476194669391600,7.5553916015625,-12.101917823195457,-2.3728512674830853,-0.7463416602797805
1761476194679426300,7.56542626953125,-15.005374827390908,-1.9180346389874814,-2.266678419179469
1761476194689462500,7.575462646484375,-18.31625995531082,-1.4358603402279317,-4.307984779179096
1761476194699497500,7.58549755859375,-20.793592318618295,-1.0146775396563112,-6.486402000451087
1761476194709532400,7.595532470703125,-21.777756500458715,-0.7887099988013505,-7.546901818475127
1761476194719567600,7.605567626953125,-22.31112571053505,-0.6960683938525617,-6.9649383810997
1761476194729602600,7.6156025390625,-22.196007631492613,-0.7931096950650215,-5.352321397909522
1761476194739637500,7.625637451171875,-21.52955447757244,-0.8765008027181029,-3.5368069299370046
1761476194749672400,7.63567236328125,-20.496984869003295,-1.1602961170330643,-1.9906686441741883
1761476194759708400,7.64570849609375,-18.902406815850732,-1.5667131640188394,-0.96237115996629
1761476194769743400,7.655743408203125,-16.956865453517437,-1.9304362937904893,-0.4644363974951207
1761476194779778600,7.665778564453125,-14.80458571306467,-2.2841434948518873,-0.49379269423037764
1761476194789813500,7.6758134765625,-12.348227164202928,-2.524848732241988,-0.985341262795776
1761476194799848400,7.685848388671875,-9.768092013546823,-2.5570547193199396,-1.532833544640243
1761476194809883600,7.695883544921875,-7.769308890369534,-2.4039568921037016,-1.752517182920128
1761476194819919600,7.705919677734375,-6.011347032177448,-1.9599642938308417,-1.7623720758497714
1761476194829954600,7.71595458984375,-4.500786986404657,-1.406033503371477,-1.5052604780599474
1761476194839989500,7.725989501953125,-2.8493419676482676,-0.8480242114268243,-1.2636036390334366
1761476194850024400,7.7360244140625,-0.849814163583517,-0.28480697557553647,-1.0122107111513614
1761476194860059400,7.746059326171875,1.27943132276237,0.2187834745697677,-0.7156874326884746
1761476194870094600,7.756094482421875,3.4761820731043813,0.6870385535702109,-0.4526248175397515
1761476194880130600,7.766130615234375,5.6364487206578255,1.1220990728467701,-0.06037526598572731
1761476194890165500,7.77616552734375,7.518206469866633,1.5631372052282093,0.4277330989979207
1761476194900200700,7.78620068359375,9.228319366168975,1.8909164765678346,0.8339527237154543
1761476194910235400,7.7962353515625,10.836322718083858,2.2043018963739276,1.3017653196454047
1761476194920270300,7.806270263671875,11.949992400759458,2.367852290152013,1.8013192077510058
1761476194930305500,7.816305419921875,12.772421713811159,2.4773951994106174,2.1477105328410864
1761476194940340500,7.826340576171875,13.486009543871878,2.6029820654973386,2.2630599364213646
1761476194950376400,7.83637646484375,13.901359108245371,2.62718653242737,2.3949483868703245
1761476194960411600,7.84641162109375,14.207197327542303,2.556728848366439,2.478274320332706
1761476194970446600,7.856446533203125,14.326542668890951,2.4661130501568316,2.488913787768781
1761476194980481500,7.8664814453125,14.24262169214487,2.3999951488658784,2.4598592504590746
1761476194990516500,7.8765166015625,14.030274241971968,2.336986319506168,2.3487013072192666
1761476195000551400,7.886551513671875,13.746002542316912,2.2907953539565202,2.084146261555701
1761476195010587400,7.89658740234375,13.367587747108935,2.4691747758150098,1.8137585642158984
1761476195020622600,7.90662255859375,12.972276762157678,2.562148827588558,1.701581214800477
1761476195030657500,7.916657470703125,12.55126551876068,2.5279203947722912,1.7742140509434043
1761476195040692500,7.9266923828125,12.002290743273496,2.417913375133276,1.8831214387774466
1761476195050727700,7.936727783203125,11.400956834995746,2.4188565012022853,1.928414578704536
1761476195060762400,7.946762451171875,10.804868426156043,2.4529034399718044,1.974206023542583
1761476195070798600,7.956798583984375,10.128090277576446,2.4384163571968673,1.9888706548415123
1761476195080833500,7.96683349609375,9.230983032420276,2.3799743973612784,1.6846483463086186
1761476195090868500,7.976868408203125,8.447479954612255,2.4336697471916673,1.2361468923091887
1761476195100903400,7.9869033203125,7.592032169055939,2.42548731751889,0.9313257411003112
1761476195110938600,7.996938720703125,6.519405859908461,2.2037106524825094,0.5349726266849786
1761476195120973600,8.0069736328125,5.443447191467881,2.0108201824516057,-0.055896659266948694
1761476195131009500,8.017009521484376,4.256854311400652,1.6999112357616424,-0.3501300001617521
1761476195141040600,8.02704052734375,2.7976947825193403,1.3912079824224113,-0.27544322716370223
1761476195151075600,8.03707568359375,1.2357260365486145,1.262249301815033,0.003033668607473373
1761476195161110500,8.047110595703124,-1.0514525882154702,0.5237283982887864,0.48685463859550654
1761476195171145500,8.0571455078125,-3.1203286537945267,-0.8046566327348351,1.019672206138447
1761476195181180400,8.067180419921876,-4.843031567078828,-1.8894255073577164,1.057165412904322
1761476195191215600,8.077215576171875,-6.433074899411201,-2.7350711530849336,0.6341020592831075
1761476195201251600,8.08725146484375,-8.625570914918184,-3.373939257726073,0.11204524746835232
1761476195211286500,8.09728662109375,-11.409971331578493,-3.6409286909297105,-0.5342550530001521
1761476195221321500,8.107321533203125,-14.296359127551316,-3.1785686613172293,-1.8963310489624738
1761476195231356700,8.117356689453125,-16.928128019332885,-2.181872330161929,-4.034411583670973
1761476195241391400,8.127391357421875,-18.751270497965812,-1.3460282397419214,-6.084297702097892
1761476195251426600,8.137426513671874,-20.330426525580883,-0.901706994036585,-6.839339240053295
1761476195261462500,8.147462646484374,-21.6031107121706,-0.5513398971833289,-5.985677753391862
1761476195271497500,8.15749755859375,-22.15768637640476,-0.386153280505538,-4.3058311082765455
1761476195281532400,8.167532470703126,-22.107662993085384,-0.5877640864782036,-2.2766750586673616
1761476195291567600,8.177567626953126,-21.277141558992863,-1.1213752886168658,-0.9781854727569967
1761476195301602600,8.1876025390625,-18.92305914325714,-1.3818420420534907,-0.8001620977945625
1761476195311638500,8.197638427734375,-15.705647248804569,-1.7102854763902722,-1.0950867819543928
1761476195321673700,8.207673828125,-12.333056483078002,-2.106704130322486,-1.3794339579984545
1761476195331708400,8.21770849609375,-8.293101293805242,-2.620976864132285,-1.768728751400113
1761476195341743400,8.227743408203125,-4.445472510939836,-2.8582535883784295,-1.9263988549679516
1761476195351775200,8.237775146484376,-1.6978765150636435,-2.7455712120503186,-1.6612262619279323
1761476195361810200,8.24781005859375,0.5137818815529346,-2.4341614762313664,-1.2678351391233502
1761476195371846100,8.25784619140625,2.2951813139557835,-1.780537116485089,-0.7809779432445764
1761476195381881300,8.26788134765625,3.137725194275379,-1.0311012895822524,-0.003675035250931978
1761476195391916300,8.277916259765625,3.4426603272527454,-0.5840817447036505,0.7314350369185209
1761476195401951000,8.287950927734375,3.903750483059883,-0.21511618423387407,1.115983366445452
1761476195411986200,8.297986083984375,4.66648666717112,0.23744725850746035,1.1810860993444918
1761476195422022100,8.308022216796875,5.379981558251381,0.6382458810895681,1.41040134319216
1761476195432057000,8.31805712890625,5.96330050188899,0.894579041852802,1.5958159243844448
1761476195442092300,8.32809228515625,6.632870326524973,1.1802061016395686,1.5600870238773523
1761476195452127200,8.338127197265624,7.639697591072321,1.4348708907991647,1.4492562667652964
1761476195462162200,8.348162109375,8.547404556176065,1.5696164842449127,1.3776289544031024
1761476195472197400,8.358197265625,9.357487013351916,1.7270112780027091,1.5081825029864906
1761476195482233300,8.3682333984375,10.079136569315194,1.739261833897233,1.8188627554871142
1761476195492268000,8.37826806640625,10.70498766373396,1.5202493728771804,2.2169483197182416
1761476195502303200,8.38830322265625,11.199247683215141,1.2402883760280907,2.648088742941618
1761476195512338200,8.398338134765625,11.256161410570144,1.1079171104982495,2.73659821652174
1761476195522373000,8.408373046875,11.263304268062114,1.2749274354718625,2.542325936743617
1761476195532409000,8.4184091796875,11.500712509733438,1.4362901099473238,2.3114884517647325
1761476195542444300,8.4284443359375,11.589366944742203,1.3208682256527244,2.099220934960246
1761476195552479200,8.438479248046875,11.494954969120025,1.0927113580599426,1.9098881574109197
1761476195562514400,8.448514404296875,11.205106930637358,1.0843858666546642,1.7001410989947616
1761476195572549000,8.458549072265624,10.636028109276294,1.207939181087166,1.6104285332351922
1761476195582584000,8.468583984375,10.258730919921398,1.3937469993807374,1.9043021739721298
1761476195592620000,8.4786201171875,10.085333670389652,1.3472807240210474,1.9296493811964988
1761476195602655200,8.4886552734375,9.608252164724469,1.226441636983305,1.6961477915748953
1761476195612690200,8.498690185546875,8.859294915118813,1.3534032985545694,1.4578056300543247
1761476195622725400,8.508725341796875,8.398523908263444,1.514847513833642,1.125715802039206
1761476195632760300,8.51876025390625,7.997958656045794,1.6551187388330697,0.897893646293506
1761476195642796300,8.52879638671875,7.326390351068973,1.6818493632398546,0.7640698438677936
1761476195652831000,8.5388310546875,6.520314791446924,1.3905512720793485,0.6935682475998998
1761476195662866200,8.5488662109375,5.614000157484412,1.1385922347471118,0.3563813156414777
1761476195672901000,8.558901123046875,4.693925293716788,1.159020251878351,0.027014336718991398
1761476195682936000,8.56893603515625,3.407380339556932,0.9328408218383788,0.11163725118935107
1761476195692971300,8.57897119140625,2.252438735294342,0.23199936836510895,0.2738989933963865
1761476195703007200,8.58900732421875,-0.03151157507300377,-0.7013400506451726,0.034992329860851164
1761476195713042200,8.599042236328126,-2.593189862540364,-0.9963019250102341,0.21140344732105731
1761476195723077400,8.609077392578126,-5.334146274271607,-1.2574828180655837,0.6340821124736219
1761476195733112000,8.619112060546875,-8.467901980394124,-1.7099137204684316,0.7929119074705988
1761476195743149300,8.6291494140625,-11.72445229153633,-1.5398089366108179,-0.2295391157314181
1761476195753184000,8.63918408203125,-14.95829743439555,-0.7858673227213323,-2.2147161767520007
1761476195763219200,8.64921923828125,-17.451511257445812,-0.38909050300121306,-4.5540591423869135
1761476195773254100,8.659254150390625,-19.6759607465744,-0.3023318186111748,-6.220536895102262
1761476195783290000,8.6692900390625,-22.06070250446796,-0.03436462641656399,-6.73371496554315
1761476195793325300,8.6793251953125,-23.454784873282907,0.3225850636973977,-6.253614988839626
1761476195803360300,8.6893603515625,-23.840941076397893,0.29810324113070963,-4.638682714444399
1761476195813395200,8.699395263671875,-22.967244517445565,-0.08186682069525122,-3.267567087458074
1761476195823430400,8.709430419921874,-21.248301248955727,-0.40164442575648424,-2.3992227031886575
1761476195833465000,8.719465087890624,-18.73234367917776,-0.7824776802830398,-1.6684095975607633
1761476195843501000,8.7295009765625,-15.802964298218487,-1.893500355581194,-0.9212365279581397
1761476195853536300,8.739536376953126,-12.95571258084774,-2.792350791142881,-0.2256524104911834
1761476195863571200,8.7495712890625,-10.316196435940265,-3.266328193312883,-0.05285056956931948
1761476195873606100,8.759606201171875,-7.878431528389453,-3.6544393298879263,-0.40910687059164047
1761476195883641300,8.769641357421875,-5.681825154954194,-3.4125559886291623,-0.876213217948377
1761476195893677300,8.77967724609375,-3.9741970612049102,-2.7657874861270186,-1.2051799455069006
1761476195903712300,8.789712158203125,-2.837172221904993,-2.2244338531680405,-1.159310028605163
1761476195913747200,8.799747314453125,-2.0445956108033654,-1.629348776151985,-0.8097538097433745
1761476195923782100,8.8097822265625,-1.0773089140057563,-0.8153821710191667,-0.5705991627961396
1761476195933817000,8.819817138671874,0.48658992324471473,-0.004577537048608064,-0.6418741545893252
1761476195943852300,8.829852294921874,2.2458336379408834,0.6537994240522385,-0.8163722049698233
1761476195953888300,8.83988818359375,3.4946658243000503,1.0733170678906143,-0.5937810086801648
1761476195963923200,8.849923095703126,4.698008763638138,1.4660359905220568,-0.1053530563533306
1761476195973958100,8.859958251953126,6.147111593407392,1.7572123549990355,0.3224865717589855
1761476195983993300,8.869993408203126,7.445298470044135,1.9567497156985103,0.8793408484496176
1761476195994028000,8.880028076171875,8.74124721236527,2.1874667891681194,1.4389368250638246
1761476196004064000,8.89006396484375,9.947917250299453,2.3913620528161523,1.8399680873580275
1761476196014099200,8.90009912109375,10.834477967000007,2.578830790059268,2.1012864891879257
1761476196024134100,8.910134033203125,11.597219411808252,2.7977053039133546,2.299128882537782
1761476196034169000,8.920169189453125,12.324191624099015,2.9089181922107934,2.3949571546986697
1761476196044204300,8.930204345703125,12.826128754079342,2.917250259487331,2.45145674829483
1761476196054239200,8.9402392578125,13.193320729005336,2.896481319963932,2.60716578092277
1761476196064275200,8.950275146484374,13.493880715638399,2.8358006412908434,2.7698709560483694
1761476196074310400,8.960310302734374,13.523898252761363,2.6602505976393815,2.865230441653728
1761476196084345000,8.970344970703126,13.714612547796964,2.6020354322969914,2.9469992088019845
1761476196094380000,8.980380126953126,13.765190057867764,2.5119980184972284,3.115179308207333
1761476196104415200,8.990415283203125,13.622156382417678,2.4564035570472478,3.0845494844049215
1761476196114450200,9.0004501953125,13.210087154889106,2.6454355980843305,2.6914839402928945
1761476196124486100,9.010486083984375,12.743973033440112,3.051514937548339,2.2649892970487473
1761476196134521300,9.020521240234375,12.228724001944064,3.2469352183178066,1.9657652351945638
1761476196144556300,9.030556396484375,11.654057151317597,3.188104551425576,1.8212914439387617
1761476196154591000,9.040591064453125,11.031415082073211,3.04654270209372,1.6800648179106414
1761476196164626200,9.050626220703125,10.28092170894146,3.060435910628736,1.4529828860729932
1761476196174662100,9.060662109375,9.610855040699242,3.1408558935165405,1.1584852682188154
1761476196184697000,9.070697021484374,8.694853125458955,3.1011607197269795,0.7918129332527518
1761476196194732300,9.080732177734374,7.397890822181105,2.8230343909591435,0.5415042934760451
1761476196204767200,9.090767333984376,5.980692366194725,2.3925158990263937,0.3951310983397066
1761476196214802200,9.10080224609375,4.5432133387237785,2.056918209020793,0.13425313375368714
1761476196224837400,9.11083740234375,3.1099130582422014,1.6378543002992867,-0.02451294835731387
1761476196234873300,9.120873291015625,1.6434873377501964,1.0921244980826974,0.014335545475035905
1761476196244908000,9.130907958984375,0.30179215877652166,0.5138564080938697,0.23367636166661976
1761476196254943200,9.140943115234375,-1.106950019031763,-1.5480363744691013,0.2021364372819662
1761476196264978200,9.150978271484375,-3.195497584286332,-2.9829210015326737,0.7314702543623745
1761476196275013000,9.16101318359375,-6.020100247475504,-3.768842830920219,0.4152855592265725
1761476196285048300,9.17104833984375,-9.525849775847792,-4.575984558469057,-0.3341796399012208
1761476196295084300,9.181084228515624,-13.01660573322773,-5.268686252367496,-1.079205249146372
1761476196305119200,9.191119140625,-16.28426546740532,-4.959006555211544,-3.0262767436563967
1761476196315154200,9.201154296875,-18.07246756556034,-4.042395860423148,-6.267758665004372
1761476196325189000,9.211189208984376,-18.612245473635195,-2.9901702420085665,-8.801763932648301
1761476196335224000,9.22122412109375,-19.102683889001607,-2.3704503438211977,-8.983225246170162
1761476196345259300,9.23125927734375,-19.666101031339167,-2.0794062274217606,-7.165763735783099
1761476196355297800,9.2412978515625,-19.91156749178171,-1.9208036653093992,-4.814093641886115
1761476196365332700,9.251332763671876,-20.420108550071713,-1.885342037436366,-2.6350252632290125
1761476196375368000,9.261367919921875,-19.970697726142404,-1.7614007465995847,-1.4157358360879122
1761476196385402600,9.271402587890625,-18.39246407406926,-1.6315508162409067,-1.4186315575294195
1761476196395437800,9.281437744140625,-15.928816537243128,-1.5268006942167878,-1.848068683966249
1761476196405472800,9.29147265625,-12.746995011609792,-1.6229145053207874,-2.013555744895339
1761476196415508700,9.3015087890625,-8.885738100886345,-1.949510412094742,-1.8520510316006837
1761476196425543700,9.311543701171875,-4.599558910802006,-2.0812558008112014,-1.7184293276183307
1761476196435579000,9.321578857421875,-1.7699971639007328,-1.811506401374936,-1.139647296757996
1761476196445613800,9.33161376953125,1.1162351492494345,-1.7154359910212456,-0.7002509402342141
1761476196455648800,9.341648681640624,3.285976312112808,-1.488965615210682,-0.5383731558434665
1761476196465683700,9.35168359375,3.962172861412167,-1.1063849324949084,-0.2912695957183838
1761476196475718700,9.36171875,4.280000793710351,-0.9160849173486232,-0.06550415330678225
1761476196485754600,9.371754638671876,4.759083117803931,-0.5981012099668384,0.2556877024665475
1761476196495789800,9.381789794921875,4.417374543702602,0.09968392467573285,0.8854780360303819
1761476196505824800,9.39182470703125,3.427052423754334,0.6966270506486296,1.4969919775389133
1761476196515860000,9.40185986328125,2.9733021093159913,1.3082641801454127,2.211670525445789
1761476196525895000,9.41189501953125,3.634993747922778,1.1644262025751173,2.4533161124259233
1761476196535929600,9.4219296875,4.592312592935562,0.8001147515214979,2.181733360082656
1761476196545965600,9.431965576171875,5.517147802972794,0.8938128797858953,2.300991753800213
1761476196556000800,9.442000732421874,6.372568116000294,0.648108226673305,2.1359216031089425
1761476196566035700,9.45203564453125,7.463672331124544,0.5579717364132404,2.0871486582420764
1761476196576071000,9.46207080078125,8.63727245862782,0.8373696925520896,2.2686147940695283
1761476196586105900,9.47210595703125,9.233112445664405,1.092274427947402,2.3545357124611734
1761476196596140800,9.482140869140625,9.297239173138141,1.3315141228295861,2.548658062374592
1761476196606176800,9.4921767578125,9.199321235221625,1.341740625550598,2.6918849223092196
1761476196616212000,9.5022119140625,9.427651851946115,1.039627125865221,2.7478409105479717
1761476196626246700,9.51224658203125,10.031391652321815,0.5750454746805131,2.6602833308652043
1761476196636281900,9.52228173828125,10.465438902902603,0.27538609014898535,2.7379472930431366
1761476196646316800,9.53231689453125,10.38703815088272,-0.00789732912108302,2.87373172801733
1761476196656351700,9.542351806640625,9.792956405690312,-0.1920775462128222,2.852534041687846
1761476196666387000,9.552386962890624,9.217526169475912,-0.04072553975060582,2.6854882070094344
1761476196676423000,9.5624228515625,9.068603435987233,0.3449339658886194,2.3133494233310223
1761476196686457900,9.572457763671874,8.871024515879153,0.7028709134742617,1.8125524032965301
1761476196696492500,9.582492431640626,8.363125847145914,0.9983888142868876,1.4101672421753406
1761476196706527700,9.59252783203125,7.998371913021803,1.0625855382569134,1.1402551995232701
1761476196716562700,9.602562744140625,7.564919705724716,0.9669237087041139,0.943329482626915
1761476196726598000,9.612597900390625,6.971060078850388,0.9547788051411509,0.8087078078217804
1761476196736633900,9.6226337890625,6.460881190225481,0.8540342654965818,0.675398676919937
1761476196746668800,9.632668701171875,5.557258864086866,0.7097614036403596,0.43911797797381874
1761476196756703700,9.642703857421875,4.105067420652508,0.23170900711640713,-0.4863420128982514
1761476196766738700,9.65273876953125,1.985580527254939,-0.3335061245538294,-1.3966538267381488
1761476196776773600,9.662773681640624,-0.22208850746452807,-0.44474926185905933,-0.9991715621624141
1761476196786808800,9.672808837890624,-2.4304449399262666,-0.7767875058174133,0.1035761828739196
1761476196796843800,9.68284375,-4.791264554962516,-1.7477727648720145,0.8860438532195984
1761476196806879700,9.692879638671876,-7.218630233573913,-2.53576438627094,1.3180620821908116
1761476196816914700,9.702914794921876,-10.12931543545723,-2.5450308117881417,1.3988305862553416
1761476196826950000,9.712949951171876,-12.697162182426451,-2.005541657526791,0.4694001573823392
1761476196836984800,9.72298486328125,-14.84201381870508,-1.0632052775904535,-1.5556722761750221
1761476196847019800,9.733019775390625,-17.065298940229415,-0.264683494348824,-3.666958327460289
1761476196857054700,9.7430546875,-18.1839966802001,0.0628298195309937,-5.40109331986308
1761476196867089700,9.753089599609375,-19.17020668865442,0.5223911583356559,-5.603313343775272
1761476196877125600,9.763125732421875,-19.948226366615295,0.4379072870098054,-4.45057655608058
1761476196887160800,9.773160888671875,-20.633440335106847,0.0892649681225419,-2.6331384265691042
1761476196897195800,9.78319580078125,-20.71358997662067,-0.061929509690403936,-0.9282102394282817
1761476196907231000,9.79323095703125,-19.845123719537256,-0.4161449525348842,0.03371642817351967
1761476196917265700,9.803265625,-17.524707426559925,-1.1909718258038162,0.008396803075820207
1761476196927300600,9.813300537109376,-14.63906548051834,-1.509557152340561,-0.44180075078438963
1761476196937335800,9.823335693359375,-12.01382803633213,-1.520845292943716,-0.8596532013569027
1761476196947371800,9.833371826171875,-9.2908824975878,-1.7597776754423975,-1.3668448177993298
1761476196957406700,9.84340673828125,-6.446168774262071,-1.877745883218944,-1.493508080945909
1761476196967442000,9.85344189453125,-4.160443855437636,-1.5409047690235078,-1.0167557341698557
1761476196977476900,9.863476806640625,-2.139581586921215,-1.2546997632183134,-0.39687757668085394
1761476196987511800,9.87351171875,-0.5381178659081459,-0.9959363065682351,0.12840645355209707
1761476196997546800,9.883546630859374,0.851906751948595,-0.6401965767659247,0.4580404859129339
1761476197007581700,9.893581787109374,2.1188509335815904,-0.34128435733988877,0.3513241053171456
1761476197017617700,9.90361767578125,3.4152029960066077,-0.019082740002125502,-0.1689679618474096
1761476197027652900,9.91365283203125,5.012955587542057,0.3731051444925368,-0.6308404271386563
1761476197037687800,9.923687744140626,5.997723580494522,1.0119561518684028,-0.7765710865877569
1761476197047722800,9.93372265625,6.693485246485471,1.4810146562062203,-0.5907375493310392
1761476197057758000,9.943758056640625,7.833002487123012,1.3656100153073667,-0.06323204365633428
1761476197067792600,9.953792724609375,8.902015866470336,1.181538811548054,0.7158755026064813
1761476197077827600,9.96382763671875,9.759671975725889,1.1198546549208461,1.3558999376758931
1761476197087863800,9.97386376953125,10.457448488670586,0.9695011579766869,1.8768959883913396
1761476197097898800,9.983898681640625,11.123407137072086,0.7998799198523163,2.2732547288298606
1761476197107933700,9.99393359375,11.767587668907641,0.9563236964955926,2.528492933963239
1761476197117969000,10.003968994140624,12.296361367887258,1.384274676027894,2.397707914711535
1761476197128003800,10.01400390625,12.707952456510066,1.8686068834736942,1.9934256877973675
1761476197138038800,10.024038818359376,12.786583510154484,2.191782898801565,1.6327867877766489
1761476197148073700,10.03407373046875,12.699601976794003,2.144475204181671,1.4891810115270316
1761476197158108700,10.044108642578125,12.661334497720002,1.951165631955862,1.3650688941679894
1761476197168144600,10.05414453125,12.26840134781599,1.8094281337961553,1.367272249431163
1761476197178179800,10.064179931640625,11.581679312849044,1.629910647818446,1.3454587692908941
1761476197188214800,10.07421484375,10.638934352111816,1.7517209179759023,1.262950143560767
1761476197198249700,10.084249755859375,9.716622523072362,2.1187539029479026,1.1940375700499861
1761476197208285000,10.094284912109375,8.813981609186529,2.438845688524842,1.1044423470597713
1761476197218319600,10.104319580078124,8.222516768494248,2.4481810876250267,1.143466124393791
1761476197228354800,10.114354736328124,7.847580463051796,2.221550552816689,1.13190698482953
1761476197238389800,10.1243896484375,7.670273931121826,1.8704402363806962,0.6869421805236489
1761476197248425700,10.13442578125,7.774963555130362,1.6146394289284944,-0.04521802886426449
1761476197258460700,10.144460693359376,7.8705954279363155,1.4645143339127302,-0.7439273656796663
1761476197268496000,10.154495849609376,7.151068855476379,1.5287985900357364,-1.0831234455034136
1761476197278530800,10.16453076171875,6.4791837396353475,1.3718643995270132,-0.6466970447011292
1761476197288565800,10.174565673828125,5.12253765976727,0.665309244582057,0.1505637056287378
1761476197298600700,10.1846005859375,3.2454882343798874,-0.11886252626776694,0.895126300472021
1761476197308635600,10.1946357421875,1.1298100856155155,-0.848918968309462,0.9999632239967584
1761476197318671600,10.204671630859375,-1.1695698490738868,-1.766049010796845,0.44923334847055374
1761476197328706800,10.214706787109375,-3.0504163286566732,-2.3774694288030265,-0.06082878190688788
1761476197338741800,10.22474169921875,-3.5588556801378726,-2.430511575421691,-0.2896749652043916
1761476197348776700,10.234776611328124,-4.64059994624257,-2.5609265923172235,-0.12625208852980285
1761476197358809000,10.24480908203125,-7.174540916478634,-2.912100621639192,0.4671417839962989
1761476197368843800,10.25484375,-8.855192155975104,-3.02120747756809,0.8233965506486595
1761476197378878700,10.264878662109375,-10.94909803339243,-2.6169062536925076,-0.20935542875006793
1761476197388914000,10.274913818359375,-12.781821994841097,-1.466322698508948,-2.4161466577216983
1761476197398950000,10.284949951171875,-13.309585639995335,0.28205972269400953,-4.279814623488486
1761476197408984800,10.29498486328125,-13.638694844764471,1.8220090906888244,-4.346642718875408
1761476197419020000,10.30502001953125,-14.724007032483815,1.5136911834053695,-2.6425644265621897
1761476197429055000,10.315054931640624,-15.948604941296576,0.1968213797390461,-0.47832251870222386
1761476197439090000,10.32508984375,-15.879040991204976,-0.23745251920446753,0.6381321185167879
1761476197449124900,10.335124755859376,-14.97271525132656,-0.1036572122208774,0.9695706430163233
1761476197459159800,10.345159912109375,-13.197685938477516,-0.6581492898248136,0.7421813257299363
1761476197469195000,10.355195068359375,-11.01651445006132,-1.4661463190287352,0.0036721491741016506
1761476197479231000,10.36523095703125,-8.948267914557457,-1.7724851813241838,-0.6066017291454598
1761476197489266000,10.375265869140625,-7.378513921537995,-1.8052217681474982,-0.6631992666907608
1761476197499300900,10.38530078125,-5.96496171309948,-2.020270001711696,-0.32657533890996127
1761476197509336000,10.395336181640625,-4.752473344275355,-2.124966932243854,0.10109243976678699
1761476197519370800,10.405370849609374,-4.105899195301532,-1.723053041896224,0.6388798681441694
1761476197529406000,10.415406005859374,-3.682169340595603,-1.274707509110868,0.9668504973374307
1761476197539441000,10.42544091796875,-3.0070623400986194,-1.0417926333360374,0.8551577165685593
1761476197549475800,10.435475830078126,-1.9628630840122698,-0.6667917382247746,0.5091911927618086
1761476197559511000,10.445510986328125,-0.5948603283494711,-0.21204013778939843,-0.015275127880088984
1761476197569547000,10.455547119140626,0.8671013984709978,0.1661190752223134,-0.37562194961905476
1761476197579582000,10.46558203125,1.9936644649893045,0.3503589135468006,-0.44926381667405363
1761476197589617000,10.475616943359375,2.7601836747705937,0.31305253458991644,-0.0872154151815921
1761476197599651800,10.48565185546875,3.572762040415406,0.38206688797473903,0.2569774500161409
1761476197609686800,10.495686767578125,3.714554775893688,0.6410827119506896,0.20406685735527424
1761476197619722000,10.505721923828125,3.87997739328444,0.9374963925592601,0.3427150111975148
1761476197629757000,10.5157568359375,4.218126229077577,1.2263460676543414,0.3144470576882362
1761476197639791900,10.5257919921875,4.728056695899367,1.591760365383327,0.16474077260643244
1761476197649827000,10.5358271484375,5.338720158058405,2.088472746452689,0.19009371545184403
1761476197659863000,10.545863037109376,5.850810433262586,2.2388054928697643,0.39037805859372016
1761476197669897700,10.555897705078126,6.262623055681586,1.9646565433003007,0.7144285917337984
1761476197679933000,10.565932861328125,6.658591043236851,1.7015264158733188,0.9797970726720988
1761476197689967900,10.5759677734375,7.03194913957715,1.6303369104065,1.0794487755786626
1761476197700002800,10.5860029296875,7.48398972748816,1.7302175266981124,1.0087921348795295
1761476197710038000,10.5960380859375,7.893971627348661,1.6878239076048134,0.7013269719678908
1761476197720073000,10.606072998046875,8.205249991872906,1.6320494134128092,0.45043059543110425
1761476197730108000,10.61610791015625,8.34140735181272,1.8108827165186403,0.37764691610801965
1761476197740144000,10.62614404296875,8.44429898648858,1.9178245033681391,0.25052611845228817
1761476197750178800,10.6361787109375,8.453955288106203,1.8262468743890523,0.12436983671346678
1761476197760213800,10.6462138671875,8.169176223450899,1.5823282279103994,-0.006184570386447012
1761476197770249000,10.6562490234375,7.463451966372132,1.3357573133572935,-0.1182634278634563
1761476197780284000,10.666283935546875,6.81624244210422,1.1199942095220088,-0.2983900952480733
1761476197790318800,10.67631884765625,6.333221024996042,1.0763988134235143,-0.6435527553260326
1761476197800354000,10.68635400390625,5.248565255358815,1.2956634956389665,-0.7471146174136549
1761476197810388700,10.696388671875,4.172515986025333,1.2073115507081151,-0.2755990753125399
1761476197820424000,10.706423828125,2.9604309373050928,0.7582762820929289,0.5313152732212096
1761476197830459000,10.716458984375,0.7228940030664205,-0.037626258561015126,1.3091457852855324
1761476197840494800,10.726494873046875,0.3218710702091455,-1.0147241552770137,1.5536504149585961
1761476197850529800,10.73652978515625,0.10813128889501095,-1.770837998639047,1.7624191298618912
1761476197860565000,10.74656494140625,-0.20159341644644735,-2.4216101838245985,1.813651304449141
1761476197870600000,10.756599853515626,-1.2149667416363954,-2.786296897931397,1.2466589339733123
1761476197880635000,10.766634765625,-2.947588406866789,-2.5598238917723295,0.3184258981913328
1761476197890669800,10.776669921875,-4.399464793002605,-1.92421069727391,-0.6515301639460027
1761476197900704800,10.786704833984375,-5.543692111027241,-1.0408388397425412,-1.4776526324272155
