time,seconds_elapsed,z,y,x
1761476150696860000,0.11385986328125,0.1348261535167694,-0.02892269752919674,0.22089238464832306
1761476150706897000,0.12389697265625,0.04393112659454346,-0.22398699820041656,0.3123099207878113
1761476150716932900,0.133932861328125,-0.04232969135046005,-0.43362200260162354,0.38598182797431946
1761476150726968800,0.14396875,-0.11046400666236877,-0.549557089805603,0.4569462835788727
1761476150737004800,0.1540048828125,-0.1329406499862671,-0.5577613711357117,0.5074530839920044
1761476150747040800,0.164040771484375,-0.18303550779819489,-0.6791312098503113,0.49052873253822327
1761476150757078000,0.174078125,-0.2358802706003189,-0.8323606848716736,0.427102655172348
1761476150767114000,0.184114013671875,-0.23122772574424744,-0.864087700843811,0.3978736698627472
1761476150777150000,0.19414990234375,-0.17160938680171967,-0.9764136075973511,0.35900959372520447
1761476150787186000,0.20418603515625,-0.20216089487075806,-1.186590552330017,0.24587690830230713
1761476150797223000,0.214222900390625,-0.252990186214447,-1.257528305053711,0.1327974498271942
1761476150807259000,0.2242587890625,-0.2566474974155426,-1.1087638139724731,0.08885421603918076
1761476150817294800,0.234294921875,-0.12906745076179504,-0.8634034991264343,0.10126832127571106
1761476150827330800,0.244330810546875,0.09447722136974335,-0.573140025138855,0.11334095895290375
1761476150837366800,0.25436669921875,0.36517542600631714,-0.3531075119972229,0.06748636066913605
1761476150847403800,0.26440380859375,0.6224178671836853,-0.22768381237983704,-0.05116545781493187
1761476150857439700,0.274439697265625,0.7756307721138,-0.04470476880669594,-0.17227032780647278
1761476150867475700,0.284475830078125,0.776692807674408,0.26176249980926514,-0.2750379741191864
1761476150877511700,0.29451171875,0.6359837651252747,0.5720474123954773,-0.4050861597061157
1761476150887549000,0.304548828125,0.39740583300590515,0.6398320198059082,-0.5955658555030823
1761476150897585000,0.3145849609375,0.13923493027687073,0.494732528924942,-0.7736881971359253
1761476150907620900,0.324620849609375,-0.0316915288567543,0.2700805068016052,-0.8935240507125854
1761476150917656800,0.33465673828125,-0.046852804720401764,-0.058383382856845856,-0.9275693893432617
1761476150927693800,0.34469384765625,-0.033853381872177124,-0.2780448794364929,-0.9149463176727295
1761476150937729800,0.354729736328125,-0.05911111831665039,-0.3778512179851532,-0.8467310667037964
1761476150947765800,0.364765869140625,-0.11359965801239014,-0.3522217571735382,-0.735890805721283
1761476150957801700,0.3748017578125,-0.15329480171203613,-0.17978216707706451,-0.609539270401001
1761476150967837700,0.384837646484375,-0.19695253670215607,0.10091794282197952,-0.5036735534667969
1761476150977874700,0.394874755859375,-0.22004593908786774,0.5158907175064087,-0.4672292470932007
1761476150987910700,0.40491064453125,-0.18271295726299286,0.9742804169654846,-0.5367324352264404
1761476150997946600,0.414946533203125,-0.13094562292099,1.206451654434204,-0.4395533502101898
1761476151007982800,0.42498291015625,-0.04876793548464775,1.2547502517700195,-0.34540316462516785
1761476151018019800,0.435019775390625,0.06226089969277382,1.1041291952133179,-0.24359340965747833
1761476151028055800,0.445055908203125,0.22971193492412567,0.7855767607688904,-0.11043374985456467
1761476151038091800,0.455091796875,0.4004748463630676,0.45493629574775696,0.08489623665809631
1761476151048128000,0.4651279296875,0.47450271248817444,0.20152853429317474,0.2789685130119324
1761476151058164000,0.4751640625,0.44644713401794434,0.10117058455944061,0.42143702507019043
1761476151068200700,0.48520068359375,0.35808664560317993,0.11983082443475723,0.49123236536979675
1761476151078237000,0.49523681640625,0.26898354291915894,0.25337380170822144,0.521284282207489
1761476151088273000,0.50527294921875,0.2887924015522003,0.37116512656211853,0.5203210115432739
1761476151098308900,0.515308837890625,0.3781608045101166,0.37017950415611267,0.5075026750564575
1761476151108345900,0.525345947265625,0.431400328874588,0.24545887112617493,0.4496023952960968
1761476151118381800,0.5353818359375,0.4313768446445465,0.03069988451898098,0.29050973057746887
1761476151128417800,0.545417724609375,0.4158591628074646,-0.22138269245624542,0.044207263737916946
1761476151138453800,0.555453857421875,0.4139845669269562,-0.35898953676223755,-0.2073119580745697
1761476151148491000,0.565490966796875,0.40157848596572876,-0.4960600435733795,-0.3654094338417053
1761476151158527000,0.57552685546875,0.34687912464141846,-0.6313464641571045,-0.36749857664108276
1761476151168563000,0.58556298828125,0.2519371509552002,-0.6849353909492493,-0.22290916740894318
1761476151178599000,0.595598876953125,0.15511316061019897,-0.7016469836235046,-0.07147137075662613
1761476151188635000,0.605634765625,0.05006423965096474,-0.7303294539451599,-0.06468057632446289
1761476151198672000,0.615671875,-0.09948599338531494,-0.6986305117607117,-0.1889101266860962
1761476151208707800,0.625707763671875,-0.24973434209823608,-0.6332480311393738,-0.4299357831478119
1761476151218743800,0.635743896484375,-0.3531041443347931,-0.500809907913208,-0.6908191442489624
1761476151228779800,0.64577978515625,-0.37017953395843506,-0.2560448944568634,-0.850307822227478
1761476151238816800,0.655816650390625,-0.30050384998321533,0.003285215003415942,-0.8827646970748901
1761476151248852700,0.665852783203125,-0.2246362715959549,0.2292400598526001,-0.8500099182128906
1761476151258888700,0.675888671875,-0.17541185021400452,0.36900120973587036,-0.7791532874107361
1761476151268925000,0.685925048828125,-0.16589930653572083,0.34024709463119507,-0.6975439190864563
1761476151278961000,0.6959609375,-0.19310788810253143,0.12530317902565002,-0.5948523283004761
1761476151288998000,0.705997802734375,-0.21105200052261353,-0.17055723071098328,-0.5246050357818604
1761476151299033600,0.71603369140625,-0.20561203360557556,-0.3884565234184265,-0.4610515236854553
1761476151309069600,0.726069580078125,-0.20587168633937836,-0.5093441009521484,-0.44328397512435913
1761476151319105500,0.73610546875,-0.20188657939434052,-0.5305410027503967,-0.4869163930416107
1761476151329142500,0.746142578125,-0.20986407995224,-0.4130644202232361,-0.5307168960571289
1761476151339178500,0.756178466796875,-0.2548730671405792,-0.23320019245147705,-0.5666958093643188
1761476151349214500,0.76621435546875,-0.31478649377822876,-0.03343595564365387,-0.6117333173751831
1761476151359250700,0.776250732421875,-0.3518170118331909,0.04633796960115433,-0.6284942030906677
1761476151369287700,0.78628759765625,-0.3686937093734741,-0.018241291865706444,-0.5957788825035095
1761476151379323600,0.79632373046875,-0.39408695697784424,-0.3399122655391693,-0.534847617149353
1761476151389359600,0.806359619140625,-0.3775268793106079,-0.7769562005996704,-0.38090619444847107
1761476151399395600,0.8163955078125,-0.3227171301841736,-1.0408471822738647,-0.12055732309818268
1761476151409431800,0.826431884765625,-0.2623392939567566,-1.119438648223877,0.1386212557554245
1761476151419468500,0.836468505859375,-0.2235693633556366,-1.1201165914535522,0.3722279965877533
1761476151429504500,0.84650439453125,-0.20168404281139374,-0.940066933631897,0.6095070838928223
1761476151439540700,0.856540771484375,-0.21350523829460144,-0.6903254985809326,0.8348822593688965
1761476151449576700,0.86657666015625,-0.32045087218284607,-0.46321406960487366,0.9702781438827515
1761476151459613400,0.876613525390625,-0.43041563034057617,-0.26288238167762756,1.0146838426589966
1761476151469649700,0.886649658203125,-0.49521565437316895,-0.066456139087677,1.0022248029708862
1761476151479686000,0.896685791015625,-0.48531246185302734,0.12160182744264603,0.9617273807525635
1761476151489721900,0.906721923828125,-0.4102126359939575,0.2544887661933899,0.9163761734962463
1761476151499757800,0.9167578125,-0.29292169213294983,0.368499755859375,0.9139215350151062
1761476151509794800,0.926794921875,-0.14962606132030487,0.4313029646873474,0.946229100227356
1761476151519830800,0.936830810546875,-0.001579434610903263,0.4513815939426422,0.9796640872955322
1761476151529866800,0.94686669921875,0.10777714848518372,0.44498947262763977,0.9945687055587769
1761476151539902700,0.95690283203125,0.1714615374803543,0.41683605313301086,0.9986015558242798
1761476151549939700,0.966939697265625,0.15138022601604462,0.33355608582496643,0.9782775640487671
1761476151559975700,0.9769755859375,0.02653682418167591,0.2418372482061386,0.9341570734977722
1761476151570011600,0.98701171875,-0.13739511370658875,0.17058837413787842,0.8375037312507629
1761476151580047600,0.997047607421875,-0.27664512395858765,0.13737431168556213,0.6989505887031555
1761476151590083600,1.00708349609375,-0.3581138849258423,0.10651759058237076,0.5370871424674988
1761476151600120800,1.017120849609375,-0.3607921898365021,0.08863739669322968,0.35027119517326355
1761476151610156800,1.02715673828125,-0.3092227280139923,0.08584533631801605,0.16963937878608704
1761476151620192800,1.03719287109375,-0.21278171241283417,0.14955143630504608,0.03422362357378006
1761476151630228700,1.047228759765625,-0.14245668053627014,0.22246506810188293,-0.06957600265741348
1761476151640265700,1.057265625,-0.10819336771965027,0.34167712926864624,-0.1012079045176506
1761476151650301700,1.0673017578125,-0.06982014328241348,0.4832960367202759,0.0048109395429492
1761476151660337700,1.077337646484375,-0.09490315616130829,0.5158403515815735,0.11820527911186218
1761476151670373600,1.08737353515625,-0.16699306666851044,0.5751627683639526,0.2557029724121094
1761476151680409600,1.09740966796875,-0.17412075400352478,0.5302237868309021,0.43817076086997986
1761476151690446600,1.107446533203125,-0.13413259387016296,0.4268433153629303,0.6199637055397034
1761476151700482600,1.117482666015625,-0.047557342797517776,0.26568886637687683,0.7459779381752014
1761476151710518500,1.1275185546875,0.04453210160136223,0.0450449138879776,0.7315247058868408
1761476151720554500,1.137554443359375,0.07432421296834946,-0.14423711597919464,0.5571237802505493
1761476151730591700,1.147591796875,0.04701695591211319,-0.3212941884994507,0.1841353476047516
1761476151740627700,1.157627685546875,-0.025897610932588577,-0.5821864008903503,-0.4087989032268524
1761476151750663700,1.16766357421875,-0.1363532692193985,-0.7945032119750977,-1.0721713304519653
1761476151760699600,1.17769970703125,-0.24409165978431702,-0.8081744909286499,-1.5468175411224365
1761476151770735600,1.187735595703125,-0.30323326587677,-0.5507722496986389,-1.6865248680114746
1761476151780772600,1.197772705078125,-0.2858183979988098,-0.007549856323748827,-1.5323692560195923
1761476151790808600,1.20780859375,-0.24961087107658386,0.6155850887298584,-1.2676995992660522
1761476151800844500,1.217844482421875,-0.2104787826538086,1.0641226768493652,-1.0533417463302612
1761476151810880800,1.227880859375,-0.16351553797721863,1.2410303354263306,-0.8823689222335815
1761476151820916700,1.237916748046875,-0.08499808609485626,1.1228289604187012,-0.6742101907730103
1761476151830953500,1.247953369140625,0.03441007062792778,0.7767124772071838,-0.4264661371707916
1761476151840989700,1.25798974609375,0.11756741255521774,0.28856268525123596,-0.22488397359848022
1761476151851025700,1.268025634765625,0.16248883306980133,-0.24169878661632538,-0.1531708985567093
1761476151861061600,1.2780615234375,0.19861526787281036,-0.6936753988265991,-0.20365311205387115
1761476151871099000,1.288098876953125,0.22399279475212097,-0.9973492622375488,-0.2934812605381012
1761476151881134800,1.298134765625,0.2232019007205963,-1.1158158779144287,-0.3676797151565552
1761476151891170800,1.3081708984375,0.19660332798957825,-0.97248375415802,-0.3623832166194916
1761476151901206800,1.318206787109375,0.1355833113193512,-0.6130804419517517,-0.25845518708229065
1761476151911242800,1.32824267578125,0.03778831288218498,-0.24600253999233246,-0.13264480233192444
1761476151921279700,1.33827978515625,-0.10994154959917068,-0.026377229019999504,-0.08062100410461426
1761476151931315700,1.348315673828125,-0.2466578483581543,0.030837591737508774,-0.1671135574579239
1761476151941351700,1.3583515625,-0.33975648880004883,-0.04570327326655388,-0.343509703874588
1761476151951387600,1.3683876953125,-0.37113839387893677,-0.1556825041770935,-0.4791160225868225
1761476151961423600,1.378423583984375,-0.36631983518600464,-0.2697349488735199,-0.49000102281570435
1761476151971460600,1.388460693359375,-0.3467557430267334,-0.36178258061408997,-0.3776787519454956
1761476151981496600,1.39849658203125,-0.3064222037792206,-0.38781434297561646,-0.2042393833398819
1761476151991532500,1.408532470703125,-0.27642756700515747,-0.3688845932483673,-0.03767303749918938
1761476152001568500,1.418568603515625,-0.279652863740921,-0.33751192688941956,0.10058712959289551
1761476152011604700,1.428604736328125,-0.3100443482398987,-0.2910674810409546,0.19858026504516602
1761476152021641700,1.438641845703125,-0.33033713698387146,-0.20423643290996552,0.27103015780448914
1761476152031677700,1.448677734375,-0.31685224175453186,-0.08272650092840195,0.35684624314308167
1761476152041713700,1.458713623046875,-0.29339122772216797,0.03182065859436989,0.47487127780914307
1761476152051749600,1.46874951171875,-0.2451680302619934,0.15501102805137634,0.5909278392791748
1761476152061785600,1.47878564453125,-0.1808459758758545,0.26141345500946045,0.6896421313285828
1761476152071822600,1.488822509765625,-0.10969830304384232,0.3492053747177124,0.7618614435195923
1761476152081858600,1.498858642578125,-0.01662839762866497,0.3995073437690735,0.8164216876029968
1761476152091894500,1.50889453125,0.08823809027671814,0.43705764412879944,0.882307767868042
1761476152101930500,1.518930419921875,0.17672628164291382,0.44695454835891724,0.9160211682319641
1761476152111966700,1.528966796875,0.19323867559432983,0.40812674164772034,0.9079645872116089
1761476152122002700,1.539002685546875,0.16068100929260254,0.34187954664230347,0.8463192582130432
1761476152132039700,1.549039794921875,0.0992317646741867,0.24949075281620026,0.7274836897850037
1761476152142076000,1.559075927734375,0.03165917471051216,0.19436059892177582,0.5746833682060242
1761476152152111900,1.56911181640625,-0.029075011610984802,0.18231245875358582,0.41223612427711487
1761476152162147800,1.57914794921875,-0.04150093346834183,0.2006678432226181,0.30796292424201965
1761476152172183800,1.589183837890625,-0.012938528321683407,0.2191256731748581,0.2765296399593353
1761476152182220800,1.599220703125,0.009304827079176903,0.26038435101509094,0.27506616711616516
1761476152192256800,1.6092568359375,0.012364532798528671,0.30777186155319214,0.2598635256290436
1761476152202292700,1.619292724609375,-0.018675534054636955,0.356522798538208,0.21429157257080078
1761476152212328700,1.62932861328125,-0.07374437898397446,0.3773396611213684,0.16296207904815674
1761476152222364700,1.63936474609375,-0.12771771848201752,0.40143123269081116,0.13086311519145966
1761476152232401700,1.649401611328125,-0.16108126938343048,0.44698354601860046,0.1575373411178589
1761476152242437600,1.659437744140625,-0.12537260353565216,0.5053024888038635,0.27333876490592957
1761476152252473600,1.6694736328125,-0.030223984271287918,0.5130389928817749,0.42432695627212524
1761476152262509600,1.679509521484375,0.0913754403591156,0.40315142273902893,0.572274923324585
1761476152272545500,1.689545654296875,0.21309761703014374,0.30793994665145874,0.6928455233573914
1761476152282581500,1.69958154296875,0.2992790639400482,0.3235267698764801,0.7015789747238159
1761476152292618800,1.70961865234375,0.33166494965553284,0.4525079131126404,0.6260043382644653
1761476152302658000,1.719657958984375,0.3099476099014282,0.5214216709136963,0.4998537302017212
1761476152312694000,1.729694091796875,0.22901201248168945,0.34854254126548767,0.2984103560447693
1761476152322730000,1.73972998046875,0.11690839380025864,-0.05753520131111145,0.028452269732952118
1761476152332766000,1.749765869140625,-0.03469071537256241,-0.5459765195846558,-0.300697386264801
1761476152342802200,1.75980224609375,-0.18647994101047516,-0.9776781797409058,-0.6622093319892883
1761476152352839200,1.769839111328125,-0.24643702805042267,-1.1747145652770996,-0.8759341239929199
1761476152362875100,1.779875244140625,-0.19626042246818542,-1.039962649345398,-0.8407266736030579
1761476152372911000,1.7899111328125,-0.0639021173119545,-0.5364915728569031,-0.6217519640922546
1761476152382947300,1.799947265625,0.08972273766994476,0.11503446102142334,-0.32675546407699585
1761476152392983300,1.8099833984375,0.17860788106918335,0.5723322629928589,-0.12116821855306625
1761476152403020000,1.82002001953125,0.22977454960346222,0.8086195588111877,-0.1134304329752922
1761476152413056300,1.83005615234375,0.2627716660499573,0.7428192496299744,-0.26080337166786194
1761476152423092200,1.84009228515625,0.26978370547294617,0.4555267095565796,-0.48107245564460754
1761476152433128200,1.850128173828125,0.29486748576164246,-0.04422399401664734,-0.7114116549491882
1761476152443164200,1.8601640625,0.32593509554862976,-0.48171859979629517,-0.8250738382339478
1761476152453200100,1.8702001953125,0.30380529165267944,-0.6191059947013855,-0.8065946698188782
1761476152463237400,1.8802373046875,0.20770205557346344,-0.44773709774017334,-0.7131211757659912
1761476152473273300,1.8902734375,0.0399111807346344,-0.2342706322669983,-0.6494439244270325
1761476152483309300,1.900309326171875,-0.1102994754910469,-0.09560167044401169,-0.5628234148025513
1761476152493345300,1.91034521484375,-0.19039936363697052,-0.07341807335615158,-0.41206908226013184
1761476152503381200,1.92038134765625,-0.22144722938537598,-0.20592579245567322,-0.24562016129493713
1761476152513417200,1.930417236328125,-0.23543760180473328,-0.43122708797454834,-0.11712609976530075
1761476152523454200,1.9404541015625,-0.24446535110473633,-0.655072808265686,-0.04651888087391853
1761476152533490200,1.950490234375,-0.2609598934650421,-0.8428501486778259,-0.01960897073149681
1761476152543526100,1.960526123046875,-0.3277014195919037,-0.9368243217468262,-0.059818293899297714
1761476152553562000,1.97056201171875,-0.4423356056213379,-0.8920605778694153,-0.17068514227867126
1761476152563598000,1.98059814453125,-0.5567716956138611,-0.6928077340126038,-0.3273562788963318
1761476152573634000,1.990634033203125,-0.6259195804595947,-0.42513421177864075,-0.47137925028800964
1761476152583671000,2.000671142578125,-0.6156801581382751,-0.11295437812805176,-0.5048811435699463
1761476152593707000,2.01070703125,-0.5414621233940125,0.21345993876457214,-0.4034551978111267
1761476152603743000,2.020742919921875,-0.466672420501709,0.46702632308006287,-0.2223462164402008
1761476152613779000,2.030779052734375,-0.38278576731681824,0.5423173904418945,-0.02614341862499714
1761476152623815200,2.040815185546875,-0.2740493714809418,0.4309435486793518,0.19591841101646423
1761476152633851100,2.05085107421875,-0.18910466134548187,0.22529610991477966,0.3998292088508606
1761476152643888000,2.06088818359375,-0.13939130306243896,0.03460850939154625,0.5657773613929749
1761476152653924400,2.07092431640625,-0.10340029001235962,-0.04796093329787254,0.6733840107917786
1761476152663960300,2.080960205078125,-0.06923039257526398,-0.02465731091797352,0.7451226711273193
1761476152673996300,2.090996337890625,-0.038037583231925964,0.06101631745696068,0.7970210313796997
1761476152684032300,2.1010322265625,0.006304660812020302,0.18491464853286743,0.8320459723472595
1761476152694068200,2.111068115234375,0.04234069213271141,0.3031829595565796,0.8321256041526794
1761476152704105200,2.121105224609375,0.05869212746620178,0.38662371039390564,0.8031216263771057
1761476152714141200,2.13114111328125,0.04299146682024002,0.39367416501045227,0.7222757935523987
1761476152724177200,2.14117724609375,0.0034579383209347725,0.2933264970779419,0.5976295471191406
1761476152734213000,2.151213134765625,-0.054874878376722336,0.14918583631515503,0.4632198214530945
1761476152744249000,2.1612490234375,-0.10927117615938187,0.03407225012779236,0.35803744196891785
1761476152754285000,2.17128515625,-0.14287520945072174,0.0016924734227359295,0.3181435465812683
1761476152764322300,2.181322265625,-0.16435809433460236,0.011694354936480522,0.3495113253593445
1761476152774358300,2.191358154296875,-0.15154190361499786,0.0627807080745697,0.44152727723121643
1761476152784394200,2.201394287109375,-0.10685323178768158,0.14658930897712708,0.5667014122009277
1761476152794430200,2.21143017578125,-0.06824378669261932,0.2614535987377167,0.6904392838478088
1761476152804466200,2.221466064453125,-0.028050029650330544,0.3582749366760254,0.7892100811004639
1761476152814502100,2.231502197265625,0.011270212009549141,0.34708860516548157,0.7986491322517395
1761476152824538000,2.2415380859375,0.03728189319372177,0.26306235790252686,0.708200991153717
1761476152834575000,2.2515751953125,0.035935934633016586,0.15535107254981995,0.557725727558136
1761476152844611000,2.261611083984375,0.00928924884647131,0.022240635007619858,0.3995399475097656
1761476152854647000,2.27164697265625,0.00989378709346056,-0.09034449607133865,0.31379976868629456
1761476152864683300,2.281683349609375,0.06029714643955231,-0.2546525299549103,0.2446805238723755
1761476152874719200,2.29171923828125,0.15454669296741486,-0.47007378935813904,0.03462744504213333
1761476152884755200,2.301755126953125,0.24779854714870453,-0.6371302008628845,-0.3755464255809784
1761476152894791200,2.311791259765625,0.1876523792743683,-0.6729076504707336,-0.9292887449264526
1761476152904828200,2.321828125,-0.041126150637865067,-0.478230357170105,-1.4731223583221436
1761476152914864000,2.331864013671875,-0.2285759299993515,0.0012054834514856339,-1.7298589944839478
1761476152924900000,2.341900146484375,-0.25286442041397095,0.4800308644771576,-1.6758023500442505
1761476152934936300,2.351936279296875,-0.12804365158081055,0.8232609033584595,-1.4695039987564087
1761476152944972300,2.36197216796875,0.04673131927847862,0.9042009711265564,-1.2764569520950317
1761476152955008300,2.37200830078125,0.18956489861011505,0.7217501997947693,-1.1068965196609497
1761476152965044200,2.382044189453125,0.2852221429347992,0.36686813831329346,-0.9624074697494507
1761476152975081200,2.392081298828125,0.3299858868122101,-0.11977662146091461,-0.8505456447601318
1761476152985117200,2.4021171875,0.35565656423568726,-0.5609297156333923,-0.6778135299682617
1761476152995153200,2.412153076171875,0.34962502121925354,-0.8890284895896912,-0.4580146074295044
1761476153005189000,2.422189208984375,0.2625461518764496,-1.085705280303955,-0.22055193781852722
1761476153015225000,2.43222509765625,0.14845578372478485,-1.114697813987732,0.010965176858007908
1761476153025261000,2.442260986328125,0.03377877175807953,-0.9918148517608643,0.19177252054214478
1761476153035297300,2.45229736328125,-0.049344342201948166,-0.7976352572441101,0.33771267533302307
1761476153045334000,2.462333984375,-0.08354007452726364,-0.6256479620933533,0.4224533140659332
1761476153055370000,2.472369873046875,-0.07351647317409515,-0.5228142738342285,0.39232736825942993
1761476153065406200,2.48240625,-0.05545520782470703,-0.4598419666290283,0.22037461400032043
1761476153075442200,2.492442138671875,-0.04119344800710678,-0.38025471568107605,-0.0798424705862999
1761476153085478100,2.50247802734375,-0.045808758586645126,-0.2439439594745636,-0.4210437536239624
1761476153095514000,2.51251416015625,-0.0733727365732193,-0.04714036360383034,-0.7345252633094788
1761476153105550000,2.522550048828125,-0.08990409970283508,0.18925288319587708,-0.9406341314315796
1761476153115587300,2.53258740234375,-0.09607198089361191,0.39327365159988403,-1.000461459159851
1761476153125623300,2.542623291015625,-0.09224656224250793,0.4770626723766327,-0.9110880494117737
1761476153135659300,2.5526591796875,-0.06420613825321198,0.5001320242881775,-0.6642470955848694
1761476153145695200,2.5626953125,-0.046668265014886856,0.44843414425849915,-0.30488505959510803
1761476153155731200,2.572731201171875,-0.07458751648664474,0.32084235548973083,0.11235398799180984
1761476153165767200,2.58276708984375,-0.09495438635349274,0.14004120230674744,0.5050179958343506
1761476153175803100,2.59280322265625,-0.09751208126544952,-0.06944012641906738,0.8069557547569275
1761476153185840000,2.602840087890625,-0.0921950563788414,-0.2285323143005371,0.9975687861442566
1761476153195876000,2.6128759765625,-0.07103145122528076,-0.25875547528266907,1.079230546951294
1761476153205912000,2.622912109375,-0.020139984786510468,-0.19101665914058685,1.0628927946090698
1761476153215948000,2.632947998046875,0.03519011661410332,-0.0397629551589489,0.9580930471420288
1761476153225984000,2.64298388671875,0.08688995242118835,0.1680997610092163,0.7820931673049927
1761476153236020000,2.65302001953125,0.13752782344818115,0.32812777161598206,0.5591671466827393
1761476153246056200,2.66305615234375,0.18356022238731384,0.42832377552986145,0.3360728621482849
1761476153256093200,2.67309326171875,0.19642142951488495,0.4819593131542206,0.14310021698474884
1761476153266129200,2.683129150390625,0.17607234418392181,0.468200147151947,0.024949466809630394
1761476153276165000,2.6931650390625,0.1465967446565628,0.4037071764469147,-0.026011716574430466
1761476153286201300,2.703201416015625,0.12777850031852722,0.3213847875595093,-0.01596452295780182
1761476153296237300,2.7132373046875,0.11520598083734512,0.2617228031158447,0.046398188918828964
1761476153306272500,2.7232724609375,0.11014603078365326,0.1941373199224472,0.119667187333107
1761476153316308500,2.73330859375,0.13435976207256317,0.13158099353313446,0.18502861261367798
1761476153326345500,2.743345458984375,0.16744621098041534,0.1211947426199913,0.2275155782699585
1761476153336381400,2.75338134765625,0.19154489040374756,0.16178983449935913,0.258106529712677
1761476153346417400,2.76341748046875,0.20667093992233276,0.27990058064460754,0.2854330539703369
1761476153356453400,2.773453369140625,0.21221192181110382,0.4374212324619293,0.33519500494003296
1761476153366489300,2.7834892578125,0.21351191401481628,0.5745800733566284,0.436355322599411
1761476153376525300,2.793525390625,0.24245382845401764,0.6183363795280457,0.5680331587791443
1761476153386561300,2.803561279296875,0.28761255741119385,0.48880353569984436,0.7077312469482422
1761476153396598500,2.8135986328125,0.3297991454601288,0.2604672908782959,0.8550102114677429
1761476153406634500,2.823634521484375,0.3041771352291107,0.004246163181960583,0.9603251218795776
1761476153416670500,2.83367041015625,0.22667275369167328,-0.20725490152835846,0.9333576560020447
1761476153426706400,2.84370654296875,0.1534465253353119,-0.4406699240207672,0.6229292154312134
1761476153436742700,2.85374267578125,0.11137843132019043,-0.6567583084106445,0.07135100662708282
1761476153446778600,2.863778564453125,0.09632798284292221,-0.7743991017341614,-0.5221068263053894
1761476153456814600,2.873814697265625,0.09680682420730591,-0.6608970165252686,-0.9836212396621704
1761476153466851600,2.8838515625,0.1135491356253624,-0.10059183090925217,-1.203951120376587
1761476153476887600,2.893887451171875,0.11160369217395782,0.8413613438606262,-1.1418215036392212
1761476153486923500,2.903923583984375,0.09756128489971161,1.663082242012024,-0.862641453742981
1761476153496959500,2.91395947265625,0.11772461235523224,2.0380160808563232,-0.5217509865760803
1761476153506995500,2.923995361328125,0.16792531311511993,1.762037992477417,-0.3390909433364868
1761476153517031400,2.934031494140625,0.23725752532482147,0.9655199646949768,-0.32407522201538086
1761476153527067400,2.9440673828125,0.29063254594802856,-0.09143215417861938,-0.44282016158103943
1761476153537104400,2.9541044921875,0.34785428643226624,-1.013922929763794,-0.6444957852363586
1761476153547140400,2.964140380859375,0.3875785768032074,-1.6036725044250488,-0.822348415851593
1761476153557176300,2.97417626953125,0.3795611262321472,-1.8016940355300903,-0.9173596501350403
1761476153567212300,2.98421240234375,0.31525054574012756,-1.572771668434143,-0.9121986031532288
1761476153577248500,2.99424853515625,0.2411869466304779,-1.047065258026123,-0.8565060496330261
1761476153587284500,3.004284423828125,0.18507401645183563,-0.5009785294532776,-0.7622362375259399
1761476153597320400,3.014320556640625,0.1575412005186081,-0.16816841065883636,-0.6075278520584106
1761476153607357400,3.024357421875,0.1621345579624176,-0.05275310203433037,-0.40785855054855347
1761476153617393400,3.034393310546875,0.18126697838306427,-0.09321371465921402,-0.19515745341777802
1761476153627429400,3.044429443359375,0.1619872897863388,-0.18013061583042145,-0.0013326872140169144
1761476153637465600,3.054465576171875,0.12585538625717163,-0.27386486530303955,0.1549226939678192
1761476153647501600,3.06450146484375,0.1032315343618393,-0.32485225796699524,0.2717028260231018
1761476153657537500,3.07453759765625,0.1105847880244255,-0.3085057735443115,0.3332977592945099
1761476153667573500,3.084573486328125,0.13589757680892944,-0.19962041079998016,0.3399435877799988
1761476153677610500,3.094610595703125,0.13991789519786835,-0.008089599199593067,0.3265763819217682
1761476153687646500,3.104646484375,0.10424569249153137,0.19971509277820587,0.31554707884788513
1761476153697682400,3.114682373046875,0.024789486080408096,0.36133381724357605,0.30390825867652893
1761476153707718400,3.124718505859375,-0.05707007646560669,0.4756602346897125,0.2923290729522705
1761476153717754400,3.13475439453125,-0.11777656525373459,0.5510526895523071,0.3133895993232727
1761476153727790300,3.144790283203125,-0.15176476538181305,0.5880416631698608,0.38312143087387085
1761476153737826300,3.154826416015625,-0.14781369268894196,0.5913493037223816,0.5094769597053528
1761476153747863600,3.164863525390625,-0.12671364843845367,0.5429260730743408,0.6619346737861633
1761476153757899500,3.1748994140625,-0.09081476926803589,0.4853019416332245,0.8180616497993469
1761476153767935500,3.184935546875,-0.037910595536231995,0.44685083627700806,0.9201611280441284
1761476153777971500,3.194971435546875,-0.014106729067862034,0.4093673825263977,0.9573636054992676
1761476153788007400,3.20500732421875,-0.03976790979504585,0.37770015001296997,0.9499145150184631
1761476153798043400,3.21504345703125,-0.09494780749082565,0.3520379364490509,0.8934818506240845
1761476153808079400,3.225079345703125,-0.13984671235084534,0.31079748272895813,0.7824960350990295
1761476153818116400,3.235116455078125,-0.17095856368541718,0.2674305737018585,0.6302462816238403
1761476153828152300,3.24515234375,-0.17959123849868774,0.2698443531990051,0.48352769017219543
1761476153838188300,3.255188232421875,-0.13927018642425537,0.3086226284503937,0.3788614571094513
1761476153848224500,3.265224609375,-0.0699402242898941,0.33812758326530457,0.31571972370147705
1761476153858260500,3.275260498046875,-0.00792745128273964,0.3721337616443634,0.29645097255706787
1761476153868296400,3.28529638671875,0.02157403714954853,0.40744271874427795,0.30300119519233704
1761476153878332400,3.29533251953125,0.01584664173424244,0.4191981554031372,0.30328136682510376
1761476153888368400,3.305368408203125,-0.018435269594192505,0.45094338059425354,0.2883700430393219
1761476153898405600,3.315405517578125,-0.0513700507581234,0.49848026037216187,0.26947784423828125
1761476153908441600,3.325441650390625,-0.04660515487194061,0.5134188532829285,0.218966543674469
1761476153918477600,3.3354775390625,0.014505337923765182,0.4237627685070038,0.1547209769487381
1761476153928513500,3.345513427734375,0.10818839818239212,0.2536088824272156,0.14026771485805511
1761476153938549500,3.355549560546875,0.1922191083431244,0.09147404134273529,0.17370396852493286
1761476153948585500,3.36558544921875,0.22885766625404358,-0.10790051519870758,0.21662290394306183
1761476153958622500,3.37562255859375,0.275075763463974,-0.3990825414657593,0.19185496866703033
1761476153968658400,3.385658447265625,0.32536908984184265,-0.7914945483207703,0.03094901517033577
1761476153978694400,3.3956943359375,0.33451730012893677,-0.982874870300293,-0.25442227721214294
1761476153988730400,3.40573046875,0.30523881316185,-1.0013846158981323,-0.6777693033218384
1761476153998766300,3.415766357421875,0.2354181855916977,-0.8313020467758179,-1.2115436792373657
1761476154008802300,3.42580224609375,0.17599943280220032,-0.29021063446998596,-1.6228177547454834
1761476154018838500,3.435838623046875,0.14945410192012787,0.386125773191452,-1.779799222946167
1761476154028875300,3.445875244140625,0.16482168436050415,0.9029161334037781,-1.6346207857131958
1761476154038911200,3.4559111328125,0.19829122722148895,1.1401550769805908,-1.2319947481155396
1761476154048947500,3.465947509765625,0.22012007236480713,1.0521787405014038,-0.7522398829460144
1761476154058983700,3.475983642578125,0.22127802670001984,0.5892752408981323,-0.3909229636192322
1761476154069019600,3.48601953125,0.2268194556236267,-0.07804548740386963,-0.18034125864505768
1761476154079055600,3.4960556640625,0.25183242559432983,-0.6469254493713379,-0.08764328062534332
1761476154089091600,3.506091552734375,0.2810046970844269,-0.9661898612976074,-0.07649599015712738
1761476154099128600,3.516128662109375,0.27987152338027954,-1.0242410898208618,-0.12473037838935852
1761476154109164500,3.52616455078125,0.2633522152900696,-0.8854258060455322,-0.22191300988197327
1761476154119200500,3.536200439453125,0.20966796576976776,-0.673250675201416,-0.3513841927051544
1761476154129236500,3.546236572265625,0.11251361668109894,-0.4736214280128479,-0.5018538236618042
1761476154139272400,3.5562724609375,-0.01849447190761566,-0.32307854294776917,-0.676721453666687
1761476154149308400,3.566308349609375,-0.1634974181652069,-0.2502421736717224,-0.8407604098320007
1761476154159344400,3.576344482421875,-0.30062755942344666,-0.23845981061458588,-0.9841734766960144
1761476154169381400,3.58638134765625,-0.4244917929172516,-0.27401790022850037,-1.0984982252120972
1761476154179417300,3.596417236328125,-0.5482851266860962,-0.3500942885875702,-1.1634143590927124
1761476154189453300,3.606453369140625,-0.6418287754058838,-0.3900759816169739,-1.096331000328064
1761476154199489300,3.6164892578125,-0.6810709834098816,-0.3509805202484131,-0.8689244985580444
1761476154209525200,3.626525146484375,-0.6744710803031921,-0.247719407081604,-0.5052922964096069
1761476154219561500,3.6365615234375,-0.649452805519104,-0.10445893555879593,-0.09538441896438599
1761476154229597700,3.64659765625,-0.6277498006820679,0.034504085779190063,0.27591824531555176
1761476154239634400,3.656634521484375,-0.6168966293334961,0.13082155585289001,0.5828283429145813
1761476154249670400,3.66667041015625,-0.608178973197937,0.17539939284324646,0.8205279111862183
1761476154259706600,3.67670654296875,-0.5864757895469666,0.1785975843667984,1.0052993297576904
1761476154269742600,3.68674267578125,-0.5656780004501343,0.11171995848417282,1.1340577602386475
1761476154279778600,3.696778564453125,-0.5539973378181458,-0.00892016850411892,1.1973413228988647
1761476154289814500,3.706814453125,-0.5338166356086731,-0.11768397688865662,1.1910735368728638
1761476154299850500,3.7168505859375,-0.4841878116130829,-0.13699349761009216,1.1134247779846191
1761476154309888000,3.726887939453125,-0.39934229850769043,-0.02797786518931389,1.013131022453308
1761476154319924200,3.73692431640625,-0.2975195348262787,0.17517419159412384,0.9207456111907959
1761476154329960200,3.746960205078125,-0.2147626131772995,0.41079485416412354,0.8536251187324524
1761476154339996200,3.75699609375,-0.15275277197360992,0.6108691096305847,0.794169008731842
1761476154350032100,3.7670322265625,-0.11530178785324097,0.7288813591003418,0.7288480997085571
1761476154360068000,3.777068115234375,-0.10086638480424881,0.7594538927078247,0.6754128336906433
1761476154370104000,3.78710400390625,-0.09761577099561691,0.6699649095535278,0.6409427523612976
1761476154380141300,3.797141357421875,-0.09486259520053864,0.5224931240081787,0.6533682942390442
1761476154390177300,3.80717724609375,-0.098735511302948,0.38921067118644714,0.7190729975700378
1761476154400213200,3.817213134765625,-0.10502883046865463,0.2751847505569458,0.8109294176101685
1761476154410249200,3.827249267578125,-0.08597803860902786,0.15979711711406708,0.8886027932167053
1761476154420285200,3.83728515625,-0.05231941491365433,0.06690020114183426,0.9363452792167664
1761476154430321200,3.847321044921875,-0.007621024269610643,0.05700194835662842,0.9552693963050842
1761476154440357000,3.857357177734375,0.04692397639155388,0.11864214390516281,0.94863361120224
1761476154450394000,3.86739404296875,0.10292769223451614,0.12935158610343933,0.878620982170105
1761476154460430000,3.87743017578125,0.16519373655319214,0.10243421792984009,0.7487983107566833
1761476154470466000,3.887466064453125,0.24712075293064117,0.09331467002630234,0.5833255648612976
1761476154480502000,3.897501953125,0.3557593524456024,0.06991134583950043,0.39277639985084534
1761476154490538200,3.907538330078125,0.49409499764442444,0.04692273959517479,0.21504206955432892
1761476154500574200,3.91757421875,0.6595790386199951,-0.05749048665165901,-0.013033448718488216
1761476154510610200,3.927610107421875,0.7304596900939941,-0.3771585524082184,-0.3917497396469116
1761476154520647200,3.937647216796875,0.5967034697532654,-0.8293047547340393,-0.8875563144683838
1761476154530683400,3.947683349609375,0.3446294963359833,-1.1871793270111084,-1.3592733144760132
1761476154540719400,3.95771923828125,0.09626070410013199,-1.217093586921692,-1.6933684349060059
1761476154550755300,3.96775537109375,-0.08422323316335678,-0.9086301922798157,-1.9264687299728394
1761476154560791300,3.977791259765625,-0.15182438492774963,-0.2539660930633545,-2.029423952102661
1761476154570827300,3.9878271484375,-0.11405175179243088,0.501579225063324,-1.9523721933364868
1761476154580864300,3.9978642578125,-0.007699215319007635,0.9035972356796265,-1.7827045917510986
1761476154590900200,4.007900146484375,0.15815582871437073,0.9485794901847839,-1.488317608833313
1761476154600936200,4.017936279296875,0.3068752586841583,0.6460068225860596,-1.1575924158096313
1761476154610967000,4.027967041015625,0.3854988217353821,0.06938153505325317,-0.9192340970039368
1761476154621004000,4.038004150390625,0.4119373559951782,-0.5319234728813171,-0.8022336959838867
1761476154631040000,4.0480400390625,0.3815669119358063,-0.9589887857437134,-0.7825974225997925
1761476154641076000,4.058075927734375,0.2449462115764618,-1.1474809646606445,-0.8399658799171448
1761476154651112200,4.0681123046875,0.07037313282489777,-1.0801128149032593,-0.9349295496940613
1761476154661148200,4.078148193359375,-0.113095223903656,-0.824067234992981,-1.0205457210540771
1761476154671184100,4.08818408203125,-0.24641041457653046,-0.3599598705768585,-1.0636413097381592
1761476154681220000,4.09822021484375,-0.32463887333869934,0.16731777787208557,-1.041982889175415
1761476154691257300,4.10825732421875,-0.33712008595466614,0.5922486186027527,-0.948313295841217
1761476154701293300,4.118293212890625,-0.2875376343727112,0.7905750274658203,-0.8281352519989014
1761476154711329300,4.128329345703125,-0.21027828752994537,0.7250000238418579,-0.6738050580024719
1761476154721365200,4.138365234375,-0.17908123135566711,0.4394201636314392,-0.4621058404445648
1761476154731401200,4.148401123046875,-0.20517778396606445,0.07756583392620087,-0.19678789377212524
1761476154741437200,4.158437255859375,-0.24558565020561218,-0.21333923935890198,0.0754777193069458
1761476154751474200,4.16847412109375,-0.26847413182258606,-0.39322277903556824,0.3082816004753113
1761476154761510100,4.17851025390625,-0.2905104458332062,-0.46880409121513367,0.4834190607070923
1761476154771546000,4.188546142578125,-0.3126950263977051,-0.48405975103378296,0.5975027680397034
1761476154781582000,4.19858203125,-0.3227953314781189,-0.4241599440574646,0.6629462242126465
1761476154791618000,4.2086181640625,-0.3451777696609497,-0.2820732891559601,0.6953935027122498
1761476154801654000,4.218654052734375,-0.3584160804748535,-0.07683838158845901,0.7173912525177002
1761476154811690000,4.22868994140625,-0.35169094800949097,0.13479575514793396,0.7459044456481934
1761476154821727200,4.238727294921875,-0.3368440866470337,0.30870047211647034,0.7620093822479248
1761476154831763200,4.24876318359375,-0.3006688058376312,0.41675981879234314,0.782600998878479
1761476154841799200,4.258799072265625,-0.24884448945522308,0.4159499406814575,0.7673983573913574
1761476154851835100,4.268835205078125,-0.19458436965942383,0.32133084535598755,0.7191160917282104
1761476154861871400,4.278871337890625,-0.12407796829938889,0.22700250148773193,0.6869688034057617
1761476154871907300,4.2889072265625,-0.062451839447021484,0.18764761090278625,0.6745408177375793
1761476154881944000,4.298944091796875,-0.027962040156126022,0.16232575476169586,0.6533987522125244
1761476154891980300,4.308980224609375,-0.012796238996088505,0.13494902849197388,0.621585488319397
1761476154902016300,4.319016357421875,0.008369232527911663,0.13494770228862762,0.5815544128417969
1761476154912052200,4.32905224609375,0.020517604425549507,0.18329615890979767,0.531980037689209
1761476154922088200,4.339088134765625,0.03258092701435089,0.2224464863538742,0.4984990656375885
1761476154932124200,4.349124267578125,0.06645532697439194,0.20608705282211304,0.5007193088531494
1761476154942160100,4.35916015625,0.10915804654359818,0.09550701081752777,0.5489184856414795
1761476154952197000,4.369197021484375,0.14012889564037323,-0.04920709878206253,0.5524869561195374
1761476154962233000,4.379233154296875,0.15902774035930634,-0.19264867901802063,0.4922822117805481
1761476154972269000,4.38926904296875,0.17258507013320923,-0.2995964288711548,0.3976212441921234
1761476154982305300,4.39930517578125,0.1875280737876892,-0.32014429569244385,0.31822842359542847
1761476154992341200,4.40934130859375,0.18993376195430756,-0.22799056768417358,0.22450798749923706
1761476155002377200,4.419377197265625,0.2099229246377945,-0.03686828166246414,0.1296355426311493
1761476155012413200,4.4294130859375,0.2784211039543152,0.15077532827854156,0.032701484858989716
1761476155022450200,4.4394501953125,0.3817048966884613,0.25812628865242004,-0.042155176401138306
1761476155032486100,4.449486083984375,0.48710036277770996,0.34317365288734436,-0.07504802942276001
1761476155042522000,4.459522216796875,0.5880493521690369,0.38420549035072327,-0.021776018664240837
1761476155052558000,4.46955810546875,0.656915009021759,0.35194405913352966,0.10212082415819168
1761476155062594000,4.479593994140625,0.6714590787887573,0.09290396422147751,0.17344745993614197
1761476155072630300,4.48963037109375,0.6184755563735962,-0.5547524690628052,-0.06088537350296974
1761476155082667000,4.4996669921875,0.4376661479473114,-1.3407871723175049,-0.6188362836837769
1761476155092703200,4.509703125,0.15119002759456635,-1.861727237701416,-1.2275135517120361
1761476155102739200,4.5197392578125,-0.1362265646457672,-1.86862051486969,-1.7468162775039673
1761476155112775200,4.529775146484375,-0.2922097146511078,-1.0327874422073364,-2.039874792098999
1761476155122811100,4.53981103515625,-0.24501824378967285,0.3701404631137848,-2.00620174407959
1761476155132847000,4.54984716796875,-0.04469689726829529,1.5055193901062012,-1.760477900505066
1761476155142884400,4.55988427734375,0.21772326529026031,1.9712481498718262,-1.4384546279907227
1761476155152920300,4.56992041015625,0.40176770091056824,1.6708744764328003,-1.1554176807403564
1761476155162956300,4.579956298828125,0.4744624197483063,0.823488175868988,-0.8862505555152893
1761476155172992300,4.5899921875,0.47718727588653564,-0.20969609916210175,-0.6673501133918762
1761476155183028200,4.6000283203125,0.4676307737827301,-1.0568487644195557,-0.5363494753837585
1761476155193069300,4.6100693359375,0.4403373897075653,-1.5436023473739624,-0.4574306309223175
1761476155203105300,4.620105224609375,0.4288274645805359,-1.6574828624725342,-0.3820250928401947
1761476155213141200,4.630141357421875,0.3994341492652893,-1.4658725261688232,-0.3172928988933563
1761476155223177200,4.64017724609375,0.3287051320075989,-1.0873521566390991,-0.2039135992527008
1761476155233213200,4.650213134765625,0.24301184713840485,-0.6117532849311829,-0.042653053998947144
1761476155243250200,4.660250244140625,0.12533552944660187,-0.19709189236164093,0.03932596743106842
1761476155253286100,4.6702861328125,-0.022139787673950195,0.009005147032439709,-0.043350666761398315
1761476155263322000,4.680322021484375,-0.16942989826202393,0.0668141171336174,-0.26322656869888306
1761476155273358000,4.690358154296875,-0.27160829305648804,0.017513176426291466,-0.5147339105606079
1761476155283394000,4.70039404296875,-0.3064061999320984,-0.06207672134041786,-0.7470345497131348
1761476155293430000,4.710429931640625,-0.2918693423271179,-0.06907802820205688,-0.9051686525344849
1761476155303463400,4.72046337890625,-0.26920533180236816,0.020506981760263443,-0.9799597859382629
1761476155313499400,4.73049951171875,-0.2993275821208954,0.17267470061779022,-0.9703850150108337
1761476155323535400,4.740535400390625,-0.36060744524002075,0.3508385717868805,-0.8862791657447815
1761476155333571300,4.7505712890625,-0.4029768109321594,0.502379834651947,-0.7004876136779785
1761476155343607600,4.760607666015625,-0.42409273982048035,0.5599576234817505,-0.4027661681175232
1761476155353643800,4.770643798828125,-0.4432332217693329,0.5256714820861816,-0.036556411534547806
1761476155363680500,4.780680419921875,-0.44244465231895447,0.43152791261672974,0.36587730050086975
1761476155373716500,4.790716552734375,-0.39553695917129517,0.2633872926235199,0.7435699105262756
1761476155383752700,4.800752685546875,-0.3194645643234253,0.04481501132249832,1.0750418901443481
1761476155393788700,4.81078857421875,-0.24640095233917236,-0.13300132751464844,1.309139609336853
1761476155403824600,4.82082470703125,-0.17006196081638336,-0.20745185017585754,1.4422649145126343
1761476155413860600,4.830860595703125,-0.08643417805433273,-0.1613958328962326,1.507642149925232
1761476155423896600,4.840896484375,-0.003560866229236126,-0.025051569566130638,1.5086396932601929
1761476155433933600,4.85093359375,0.06385791301727295,0.18547925353050232,1.426389455795288
1761476155443969500,4.860969482421875,0.10271583497524261,0.41052836179733276,1.2496907711029053
1761476155454005500,4.871005615234375,0.09819011390209198,0.5965272784233093,0.9787105321884155
1761476155464041500,4.88104150390625,0.07259606570005417,0.6714507937431335,0.6836661100387573
1761476155474077400,4.891077392578125,0.030890602618455887,0.642402708530426,0.43043720722198486
1761476155484113400,4.901113525390625,-0.002917429432272911,0.5472631454467773,0.2590545415878296
1761476155494150700,4.911150634765625,-0.008868401870131493,0.44324031472206116,0.19235128164291382
1761476155504186600,4.9211865234375,0.024229897186160088,0.34318241477012634,0.2337687611579895
1761476155514222600,4.93122265625,0.0665985494852066,0.28245577216148376,0.3555382192134857
1761476155524258600,4.941258544921875,0.11740712821483612,0.288714200258255,0.5032464265823364
1761476155534294500,4.95129443359375,0.1437075138092041,0.34716537594795227,0.6263376474380493
1761476155544330500,4.96133056640625,0.14697867631912231,0.4506206512451172,0.6961154341697693
1761476155554367500,4.971367431640625,0.11396278440952301,0.5273042917251587,0.6979321837425232
1761476155564403500,4.981403564453125,0.09035546332597733,0.49466753005981445,0.6480420827865601
1761476155574439400,4.991439453125,0.1190524622797966,0.4220128357410431,0.6530507206916809
1761476155584475400,5.001475341796875,0.1944822371006012,0.34482136368751526,0.742780864238739
1761476155594511600,5.01151171875,0.24366708099842072,0.24101097881793976,0.8322723507881165
1761476155604547600,5.021547607421875,0.23264957964420319,0.1115637868642807,0.8550487756729126
1761476155614584300,5.031584228515625,0.19142520427703857,-0.07846889644861221,0.7293047308921814
1761476155624620500,5.04162060546875,0.1300201714038849,-0.25678858160972595,0.46141520142555237
1761476155634656500,5.051656494140625,0.0006536338478326797,-0.31029558181762695,0.06902449578046799
1761476155644692700,5.061692626953125,-0.15845292806625366,-0.17324025928974152,-0.3379722833633423
1761476155654728700,5.071728759765625,-0.2516733705997467,0.034756582230329514,-0.6137737035751343
1761476155664764700,5.0817646484375,-0.24318215250968933,0.23623031377792358,-0.7275233864784241
1761476155674800600,5.091800537109375,-0.15420828759670258,0.36696115136146545,-0.7542593479156494
1761476155684837600,5.101837646484375,-0.06645394116640091,0.385490357875824,-0.7600056529045105
1761476155694873600,5.11187353515625,-0.047370705753564835,0.3380572497844696,-0.7992473244667053
1761476155704909600,5.12190966796875,-0.0927823930978775,0.245595782995224,-0.9183947443962097
1761476155714945500,5.131945556640625,-0.1468600183725357,0.16065813601016998,-1.0689609050750732
1761476155724981500,5.1419814453125,-0.18754594027996063,0.11241017282009125,-1.184188961982727
1761476155735018500,5.1520185546875,-0.17388784885406494,0.07628302276134491,-1.2142595052719116
1761476155745054500,5.162054443359375,-0.08538701385259628,-0.018112195655703545,-1.1428090333938599
1761476155755090400,5.17209033203125,0.014623580500483513,-0.10932094603776932,-0.9511206746101379
1761476155765126400,5.18212646484375,0.06597945094108582,-0.18473421037197113,-0.6436405777931213
1761476155775162400,5.192162353515625,0.04433916509151459,-0.27896633744239807,-0.33373650908470154
1761476155785198300,5.2021982421875,-0.03303737938404083,-0.42810362577438354,-0.12704990804195404
1761476155795234600,5.212234619140625,-0.1264858841896057,-0.581995964050293,-0.055843472480773926
1761476155805271600,5.222271484375,-0.19360420107841492,-0.6965938806533813,-0.09941758960485458
1761476155815307500,5.2323076171875,-0.22668635845184326,-0.7392737865447998,-0.20704181492328644
1761476155825343500,5.242343505859375,-0.23649558424949646,-0.7063632607460022,-0.30464375019073486
1761476155835379700,5.252379638671875,-0.24096375703811646,-0.595342755317688,-0.3545258641242981
1761476155845415700,5.262415771484375,-0.2556318938732147,-0.41008904576301575,-0.37048405408859253
1761476155855451600,5.27245166015625,-0.27052170038223267,-0.20622949302196503,-0.3951006233692169
1761476155865488600,5.282488525390625,-0.2905542552471161,-0.03759148344397545,-0.4317324161529541
1761476155875524600,5.292524658203125,-0.3068395256996155,0.09222126752138138,-0.4480981230735779
1761476155885560600,5.302560546875,-0.3148082196712494,0.16687260568141937,-0.3827606439590454
1761476155895596500,5.312596435546875,-0.3094242513179779,0.19235485792160034,-0.18934454023838043
1761476155905632500,5.322632568359375,-0.2974488139152527,0.1916363388299942,0.10124147683382034
1761476155915668500,5.33266845703125,-0.27399054169654846,0.1312083899974823,0.4053356945514679
1761476155925705500,5.34270556640625,-0.23212218284606934,0.04272592440247536,0.680016815662384
1761476155935741700,5.35274169921875,-0.17196941375732422,-0.03268013149499893,0.9300936460494995
1761476155945777700,5.362777587890625,-0.09969654679298401,-0.0844557136297226,1.1449596881866455
1761476155955813600,5.372813720703125,-0.0225684717297554,-0.09783463180065155,1.290709376335144
1761476155965849600,5.382849609375,0.04387686401605606,-0.07460867613554001,1.348540186882019
1761476155975885600,5.392885498046875,0.08519454300403595,-0.03286953270435333,1.3093984127044678
1761476155985922600,5.402922607421875,0.08690588921308517,0.013201819732785225,1.183118462562561
1761476155995958500,5.41295849609375,0.08853334933519363,0.0734046995639801,1.0132790803909302
1761476156005994500,5.422994384765625,0.11449437588453293,0.14370471239089966,0.8482259511947632
1761476156016030500,5.433030517578125,0.15355761349201202,0.21657651662826538,0.7240861654281616
1761476156026066400,5.44306640625,0.1819583624601364,0.29632246494293213,0.6774070858955383
1761476156036102700,5.4531025390625,0.2044600248336792,0.38312870264053345,0.7067495584487915
1761476156046139400,5.463139404296875,0.23335717618465424,0.5032191872596741,0.7544081807136536
1761476156056175400,5.47317529296875,0.29698488116264343,0.5962715148925781,0.7599301338195801
1761476156066211600,5.483211669921875,0.3435624837875366,0.5195074677467346,0.7880163192749023
1761476156076247600,5.49324755859375,0.3529056906700134,0.28749459981918335,0.9290364384651184
1761476156086283500,5.503283447265625,0.2927613854408264,0.07639700919389725,1.1329442262649536
1761476156096319500,5.513319580078125,0.186500683426857,-0.15684156119823456,1.2753607034683228
1761476156106356700,5.523356689453125,0.08311810344457626,-0.33296093344688416,1.2909729480743408
1761476156116392700,5.533392822265625,-0.044220712035894394,-0.420736700296402,1.1187050342559814
1761476156126428700,5.5434287109375,-0.1949569582939148,-0.5464746952056885,0.789294421672821
1761476156136464600,5.553464599609375,-0.28259941935539246,-0.6208048462867737,0.372521311044693
1761476156146500600,5.56350048828125,-0.2888788878917694,-0.9235673546791077,-0.06881027668714523
1761476156156536600,5.57353662109375,-0.3219207227230072,-1.293544054031372,-0.4589443802833557
1761476156166573600,5.583573486328125,-0.3747359812259674,-1.4993568658828735,-0.7841416597366333
1761476156176609500,5.593609619140625,-0.43495532870292664,-1.3328592777252197,-1.0330370664596558
1761476156186645500,5.6036455078125,-0.4965169429779053,-0.8048378229141235,-1.2673494815826416
1761476156196681500,5.613681396484375,-0.4651995003223419,-0.16716372966766357,-1.47545325756073
1761476156206717400,5.623717529296875,-0.27490493655204773,0.3254726231098175,-1.5842945575714111
1761476156216753400,5.63375341796875,-0.0013312678784132004,0.5294417142868042,-1.5517419576644897
1761476156226790400,5.643790283203125,0.23950530588626862,0.48584631085395813,-1.390201210975647
1761476156236826600,5.65382666015625,0.35370486974716187,0.14210905134677887,-1.1463383436203003
1761476156246862600,5.663862548828125,0.3433331847190857,-0.40176838636398315,-0.888505220413208
1761476156256898600,5.673898681640625,0.4429159164428711,-0.45607826113700867,-1.189774751663208
1761476156266934500,5.6839345703125,0.2227281630039215,-0.6376866698265076,-1.1715075969696045
1761476156276970800,5.693970703125,0.10061468183994293,-0.9379565119743347,-1.0679415464401245
1761476156287007500,5.704007568359375,0.05024018883705139,-1.2880353927612305,-0.5549032092094421
1761476156297043500,5.71404345703125,0.1750311255455017,-1.2067750692367554,-0.05154111981391907
1761476156307080000,5.724079833984375,0.33680033683776855,-0.7399234771728516,0.17196014523506165
1761476156317116000,5.734115966796875,0.3472382426261902,-0.31371602416038513,0.2560420632362366
1761476156327152000,5.744152099609375,0.29988324642181396,-0.24709120392799377,0.3075942099094391
1761476156337188000,5.75418798828125,0.2374512255191803,-0.3647352159023285,0.32718729972839355
1761476156347224800,5.764224853515625,0.1941082775592804,-0.41965094208717346,0.20200249552726746
1761476156357261000,5.774260986328125,0.20121538639068604,-0.3799680769443512,-0.11091159284114838
1761476156367297000,5.784297119140625,0.25595319271087646,-0.19324292242527008,-0.47519874572753906
1761476156377333000,5.7943330078125,0.3298778533935547,0.057383909821510315,-0.8273522853851318
1761476156387369200,5.804369140625,0.3329801559448242,0.32151171565055847,-1.0705186128616333
1761476156397405200,5.8144052734375,0.27942556142807007,0.685198187828064,-1.0906668901443481
1761476156407442200,5.824442138671875,0.20893941819667816,0.9770643711090088,-0.9103711247444153
1761476156417478100,5.83447802734375,0.1575865000486374,1.1261277198791504,-0.5555697679519653
1761476156427514000,5.84451416015625,0.1615319848060608,1.2235145568847656,-0.07509957998991013
1761476156437550000,5.854550048828125,0.19609180092811584,1.1961792707443237,0.39119505882263184
1761476156447586000,5.8645859375,0.23218056559562683,1.0756570100784302,0.7551184296607971
1761476156457622000,5.8746220703125,0.20020326972007751,0.9865258932113647,0.9668225646018982
1761476156467659000,5.884658935546875,0.10137122869491577,0.9863418340682983,1.023782730102539
1761476156477695000,5.894695068359375,0.03996450453996658,0.9744837284088135,1.001351237297058
1761476156487731000,5.90473095703125,0.0744875892996788,1.0205895900726318,0.9656329154968262
1761476156497767000,5.914766845703125,0.15408451855182648,1.023829698562622,0.9269713759422302
1761476156507803000,5.924802978515625,0.2245674729347229,0.816648542881012,0.8691754341125488
1761476156517838800,5.9348388671875,0.3025403618812561,0.5865731835365295,0.8356384038925171
1761476156527876000,5.9448759765625,0.41961053013801575,0.45428913831710815,0.8655909895896912
1761476156537912000,5.954912109375,0.5209206938743591,0.450001984834671,0.9402539134025574
1761476156547948000,5.964947998046875,0.5582813620567322,0.5183394551277161,1.0372390747070312
1761476156557984000,5.97498388671875,0.5446189045906067,0.6340869069099426,1.098151683807373
1761476156568020200,5.985020263671875,0.5265634655952454,0.783788800239563,1.0982840061187744
1761476156578056200,5.99505615234375,0.5098438858985901,0.886083722114563,1.0686780214309692
1761476156588093000,6.005093017578125,0.4871060848236084,0.853502094745636,1.0034286975860596
1761476156598129200,6.015129150390625,0.47435206174850464,0.6857713460922241,0.9102122783660889
1761476156608165000,6.0251650390625,0.48235031962394714,0.58021080493927,0.8130905628204346
1761476156618201000,6.035201171875,0.49908724427223206,0.43001455068588257,0.7226545214653015
1761476156628237000,6.045237060546875,0.5195499062538147,0.27443161606788635,0.6462526917457581
1761476156638273000,6.05527294921875,0.5631436109542847,0.3099666237831116,0.5852185487747192
1761476156648310000,6.06531005859375,0.6260389685630798,0.5708887577056885,0.508132815361023
1761476156658346000,6.075345947265625,0.7148846387863159,0.8279091119766235,0.37642064690589905
1761476156668382000,6.0853818359375,0.7073857188224792,0.7462872266769409,0.20858371257781982
1761476156678418200,6.095418212890625,0.5640964508056641,0.2559409439563751,0.03332507982850075
1761476156688454100,6.1054541015625,0.3827882409095764,-0.403316855430603,-0.16130033135414124
1761476156698490000,6.115489990234375,0.284888356924057,-0.859638512134552,-0.42224040627479553
1761476156708527000,6.125527099609375,0.22749082744121552,-0.8790015578269958,-0.7598005533218384
1761476156718563000,6.13556298828125,0.12406269460916519,-0.6021395921707153,-1.1027626991271973
1761476156728599000,6.14559912109375,0.07735536992549896,-0.2595084607601166,-1.3540167808532715
1761476156738635000,6.155635009765625,0.11332575976848602,0.10189443826675415,-1.5038233995437622
1761476156748671000,6.1656708984375,0.14895325899124146,0.22126664221286774,-1.5491586923599243
1761476156758707000,6.17570703125,0.13728466629981995,0.27729925513267517,-1.41066575050354
1761476156768744000,6.185743896484375,0.0027122097089886665,0.4310571253299713,-1.2205331325531006
1761476156778780000,6.19577978515625,-0.10724616050720215,0.5539308190345764,-1.0068695545196533
1761476156788816000,6.20581591796875,-0.15594898164272308,0.5829760432243347,-0.8793444037437439
1761476156798851800,6.215851806640625,-0.1936446577310562,0.5016354918479919,-0.9398428201675415
1761476156808888000,6.22588818359375,-0.1551595777273178,0.3409256935119629,-1.0580161809921265
1761476156818924000,6.235924072265625,-0.09523330628871918,0.15250888466835022,-1.1354923248291016
1761476156828961000,6.2459609375,-0.0613136887550354,-0.10257800668478012,-1.1220526695251465
1761476156838997200,6.255997314453125,-0.08334749191999435,-0.35401126742362976,-1.0311862230300903
1761476156849033200,6.266033203125,-0.11873797327280045,-0.6182053685188293,-0.9939828515052795
1761476156859069200,6.276069091796875,-0.09174469858407974,-0.8565613627433777,-1.0330963134765625
1761476156869105200,6.286105224609375,-0.007041791453957558,-0.9799591898918152,-1.1276947259902954
1761476156879141000,6.29614111328125,0.08314356952905655,-0.9719633460044861,-1.1768282651901245
1761476156889178000,6.30617822265625,0.0954311266541481,-0.8075366020202637,-1.175979733467102
1761476156899214000,6.316214111328125,0.07511789351701736,-0.6040746569633484,-1.1502386331558228
1761476156909250000,6.32625,0.03032858669757843,-0.3021278977394104,-1.0201141834259033
1761476156919286000,6.3362861328125,-0.021936830133199692,-0.05342148616909981,-0.8256572484970093
1761476156929322000,6.346322021484375,-0.07961663603782654,0.15106214582920074,-0.6243627667427063
1761476156939358000,6.35635791015625,-0.10107337683439255,0.28462323546409607,-0.426903635263443
1761476156949394000,6.366393798828125,-0.116683229804039,0.3110348880290985,-0.22094887495040894
1761476156959431000,6.376430908203125,-0.14928443729877472,0.2443336546421051,0.006692158989608288
1761476156969467100,6.386467041015625,-0.18255743384361267,0.07965895533561707,0.28627559542655945
1761476156979503000,6.396503173828125,-0.16016122698783875,-0.07725559175014496,0.642844021320343
1761476156989539000,6.4065390625,-0.11914028972387314,-0.21785637736320496,1.0373181104660034
1761476156999575000,6.416574951171875,-0.11919358372688293,-0.3092671036720276,1.3723384141921997
1761476157009611000,6.426611083984375,-0.12685389816761017,-0.22351866960525513,1.6317343711853027
1761476157019648000,6.43664794921875,-0.13354608416557312,0.0023707523941993713,1.7740497589111328
1761476157029684000,6.44668408203125,-0.16729126870632172,0.2442142814397812,1.8203445672988892
1761476157039720000,6.456719970703125,-0.24595236778259277,0.339683473110199,1.8162553310394287
1761476157049756200,6.466756103515625,-0.2717117965221405,0.39372992515563965,1.7539381980895996
1761476157059792100,6.476792236328125,-0.22308549284934998,0.46134868264198303,1.5870705842971802
1761476157069828000,6.486828125,-0.19649462401866913,0.4329279661178589,1.3537065982818604
1761476157079865000,6.496864990234375,-0.20532533526420593,0.2688308656215668,1.13996160030365
1761476157089901000,6.506901123046875,-0.23589521646499634,0.08849650621414185,0.9470900893211365
1761476157099937000,6.51693701171875,-0.2321271300315857,0.0626545324921608,0.8331479430198669
1761476157109973000,6.526972900390625,-0.1480143815279007,0.23116739094257355,0.782867968082428
1761476157120009000,6.537009033203125,-0.0387498177587986,0.4476739168167114,0.7893058657646179
1761476157130045000,6.547044921875,0.047497984021902084,0.6368201971054077,0.8207558989524841
1761476157140082200,6.557082275390625,0.07939375936985016,0.6647334694862366,0.8539724349975586
1761476157150118100,6.5671181640625,0.021964289247989655,0.5080661177635193,0.8467182517051697
1761476157160154000,6.577154052734375,-0.07323238253593445,0.30558547377586365,0.7772303223609924
1761476157170190000,6.587190185546875,-0.15788549184799194,0.12499625980854034,0.7172679305076599
1761476157180226000,6.59722607421875,-0.16665680706501007,0.0031096062157303095,0.6346326470375061
1761476157190262000,6.607261962890625,-0.1285773366689682,-0.05063484609127045,0.5375947952270508
1761476157200298000,6.617298095703125,-0.15983304381370544,-0.33059990406036377,0.41235023736953735
1761476157210335000,6.6273349609375,-0.2783413231372833,-0.7150719165802002,0.10723667591810226
1761476157220371000,6.637370849609375,-0.42951899766921997,-0.983450174331665,-0.39598986506462097
1761476157230407000,6.647406982421875,-0.5661109089851379,-1.1603569984436035,-0.9961236119270325
1761476157240443000,6.65744287109375,-0.6418585181236267,-0.8666104674339294,-1.4167219400405884
1761476157250479000,6.66747900390625,-0.5601319670677185,-0.19022563099861145,-1.3963298797607422
1761476157260515000,6.67751513671875,-0.40350085496902466,0.5525060296058655,-1.0138156414031982
1761476157270552000,6.687552001953125,-0.2528652548789978,0.9358827471733093,-0.5227386951446533
1761476157280588000,6.697588134765625,-0.11750105768442154,0.8201149702072144,-0.1552683711051941
1761476157290624300,6.707624267578125,-0.042810309678316116,0.4181648790836334,0.011040449142456055
1761476157300660200,6.71766015625,-0.04874294996261597,-0.08202289044857025,-0.004337497055530548
1761476157310695700,6.72769580078125,-0.18159979581832886,-0.4329542815685272,-0.1907625049352646
1761476157320731600,6.737731689453125,-0.32744523882865906,-0.444746196269989,-0.43819940090179443
1761476157330767600,6.747767578125,-0.40838855504989624,-0.2299177497625351,-0.7223408222198486
1761476157340804600,6.7578046875,-0.4253736138343811,-0.01200583390891552,-1.0498138666152954
1761476157350840600,6.767840576171875,-0.36590149998664856,0.23436053097248077,-1.269128680229187
1761476157360876500,6.77787646484375,-0.28709492087364197,0.3267577588558197,-1.3382800817489624
1761476157370912500,6.78791259765625,-0.22974079847335815,0.20028875768184662,-1.3503860235214233
1761476157380948700,6.79794873046875,-0.19952745735645294,-0.003246153239160776,-1.3063642978668213
1761476157390984700,6.807984619140625,-0.1915246546268463,-0.1979474574327469,-1.1158534288406372
1761476157401020700,6.818020751953125,-0.19712190330028534,-0.37137845158576965,-0.8063925504684448
1761476157411057700,6.8280576171875,-0.21387185156345367,-0.5662521123886108,-0.4708866775035858
1761476157421093600,6.83809375,-0.20547251403331757,-0.8029437065124512,-0.16935020685195923
1761476157431129600,6.848129638671875,-0.19643640518188477,-1.0028430223464966,0.0033145174384117126
1761476157441165600,6.85816552734375,-0.19443491101264954,-1.028196930885315,0.007184041664004326
1761476157451201800,6.868201904296875,-0.18225307762622833,-0.8151345252990723,-0.12143278867006302
1761476157461237800,6.87823779296875,-0.14891625940799713,-0.4635753929615021,-0.30710458755493164
1761476157471274500,6.8882744140625,-0.0860118642449379,-0.13010287284851074,-0.464427649974823
1761476157481310700,6.898310791015625,-0.005476486869156361,0.07386180758476257,-0.5218289494514465
1761476157491346700,6.9083466796875,0.04812921583652496,0.11985859274864197,-0.4527020752429962
1761476157501382700,6.918382568359375,0.04250776022672653,0.08284027874469757,-0.29144173860549927
1761476157511418600,6.928418701171875,-0.024635322391986847,0.013098221272230148,-0.047009892761707306
1761476157521454600,6.93845458984375,-0.0940454751253128,-0.040146008133888245,0.2902081310749054
1761476157531490600,6.948490478515625,-0.1345207393169403,-0.014016667380928993,0.6652336716651917
1761476157541527800,6.95852783203125,-0.14710716903209686,0.10116922855377197,0.9677753448486328
1761476157551563800,6.968563720703125,-0.12993484735488892,0.26901066303253174,1.1898037195205688
1761476157561599700,6.978599853515625,-0.11604153364896774,0.3877202272415161,1.3464473485946655
1761476157571635700,6.9886357421875,-0.12332314997911453,0.40881219506263733,1.4358874559402466
1761476157581671700,6.998671630859375,-0.13541828095912933,0.34022441506385803,1.4530062675476074
1761476157591707600,7.008707763671875,-0.1481015831232071,0.2674601972103119,1.3899918794631958
1761476157601743600,7.01874365234375,-0.13883228600025177,0.24777309596538544,1.2718071937561035
1761476157611780600,7.028780517578125,-0.11102941632270813,0.2573951184749603,1.1314154863357544
1761476157621816600,7.038816650390625,-0.09162990748882294,0.26079556345939636,0.9595049023628235
1761476157631852500,7.0488525390625,-0.0897369310259819,0.2514531910419464,0.7938187122344971
1761476157641888500,7.058888427734375,-0.09218405187129974,0.2202831208705902,0.6973733901977539
1761476157651924700,7.0689248046875,-0.08960078656673431,0.2127184122800827,0.6850940585136414
1761476157661960700,7.078960693359375,-0.09360530972480774,0.22026896476745605,0.7073915600776672
1761476157671997700,7.088997802734375,-0.07966472208499908,0.22213824093341827,0.7316609621047974
1761476157682033700,7.09903369140625,-0.03961677476763725,0.29045066237449646,0.7223395109176636
1761476157692070000,7.10906982421875,0.006331276148557663,0.3835776746273041,0.7100343704223633
1761476157702105900,7.11910595703125,0.04059401527047157,0.4968072175979614,0.7459336519241333
1761476157712141800,7.129141845703125,0.04900747537612915,0.5588546395301819,0.807072103023529
1761476157722177800,7.139177734375,0.0559225007891655,0.5581554770469666,0.8103368878364563
1761476157732213800,7.1492138671875,0.03794137388467789,0.49280497431755066,0.6831123232841492
1761476157742250800,7.159250732421875,-0.03520999103784561,0.39907416701316833,0.4175141751766205
1761476157752286700,7.16928662109375,-0.13823837041854858,0.24783217906951904,0.07762344926595688
1761476157762322700,7.17932275390625,-0.22561761736869812,0.045681022107601166,-0.2655338644981384
1761476157772358700,7.189358642578125,-0.2881145477294922,-0.1864779144525528,-0.5987376570701599
1761476157782394600,7.19939453125,-0.3288934528827667,-0.37389543652534485,-0.8659489154815674
1761476157792430600,7.2094306640625,-0.33738628029823303,-0.4429330825805664,-1.0770106315612793
1761476157802466600,7.219466552734375,-0.26540735363960266,-0.29924893379211426,-1.2512755393981934
1761476157812502500,7.22950244140625,-0.1042909249663353,-0.019074808806180954,-1.3865572214126587
1761476157822539500,7.23953955078125,0.09090466797351837,0.2978300452232361,-1.4148430824279785
1761476157832575500,7.249575439453125,0.24801760911941528,0.3804838955402374,-1.345165491104126
1761476157842611500,7.259611572265625,0.3373635411262512,0.20526635646820068,-1.1884162425994873
1761476157852647700,7.269647705078125,0.3316694498062134,-0.1430647224187851,-0.9830690622329712
1761476157862683600,7.27968359375,0.2627236545085907,-0.46899208426475525,-0.8247157335281372
1761476157872720000,7.289719970703125,0.20002272725105286,-0.5576274394989014,-0.8103452920913696
1761476157882755800,7.299755859375,0.15438754856586456,-0.4936598837375641,-0.981574296951294
1761476157892792600,7.30979248046875,0.14167681336402893,-0.3231206238269806,-1.2605812549591064
1761476157902828800,7.319828857421875,0.18315629661083221,-0.0767945647239685,-1.461980938911438
1761476157912864800,7.32986474609375,0.20090600848197937,0.16621248424053192,-1.4760797023773193
1761476157922900700,7.339900634765625,0.15214738249778748,0.28167763352394104,-1.282546043395996
1761476157932936700,7.349936767578125,0.09045498818159103,0.1630798876285553,-0.9522658586502075
1761476157942972700,7.35997265625,0.0003591645509004593,-0.064061239361763,-0.6931723952293396
1761476157953008600,7.370008544921875,-0.08975154906511307,-0.26397302746772766,-0.5982834100723267
1761476157963044600,7.380044677734375,-0.13721399009227753,-0.33686476945877075,-0.7030966281890869
1761476157973081600,7.39008154296875,-0.1534443497657776,-0.23038946092128754,-0.9477178454399109
1761476157983117600,7.40011767578125,-0.17058123648166656,-0.10579027980566025,-1.1993703842163086
1761476157993153500,7.410153564453125,-0.19171182811260223,-0.056244298815727234,-1.3335894346237183
1761476158003189500,7.420189453125,-0.21424461901187897,-0.14445175230503082,-1.3012933731079102
1761476158013225500,7.4302255859375,-0.1710721254348755,-0.3281012177467346,-1.0650537014007568
1761476158023261700,7.44026171875,-0.09319072961807251,-0.5148919224739075,-0.6630381941795349
1761476158033297700,7.450297607421875,0.00015279557555913925,-0.5726329684257507,-0.17579904198646545
1761476158043334700,7.460334716796875,0.03197401389479637,-0.47388190031051636,0.2633536756038666
1761476158053370600,7.47037060546875,0.0035258587449789047,-0.3248969316482544,0.6174169778823853
1761476158063406600,7.480406494140625,-0.03958740085363388,-0.17168226838111877,0.8334207534790039
1761476158073442800,7.49044287109375,-0.061750493943691254,-0.062013037502765656,0.9465507864952087
1761476158083478800,7.500478759765625,-0.030699102208018303,-0.0004950794391334057,1.0013501644134521
1761476158093514800,7.5105146484375,0.024592649191617966,0.04560743272304535,1.0214534997940063
1761476158103550700,7.52055078125,0.09758980572223663,0.12154525518417358,1.009732723236084
1761476158113586700,7.530586669921875,0.18282853066921234,0.22473342716693878,1.0011743307113647
1761476158123623700,7.540623779296875,0.24667926132678986,0.2952123284339905,1.0009198188781738
1761476158133659600,7.55065966796875,0.25707945227622986,0.33280709385871887,1.0012657642364502
1761476158143695600,7.560695556640625,0.2172521948814392,0.3066801130771637,1.0232864618301392
1761476158153731600,7.570731689453125,0.12868958711624146,0.21149395406246185,1.0762077569961548
1761476158163767600,7.580767578125,0.025083336979150772,0.10891177505254745,1.129041314125061
1761476158173803500,7.590803466796875,-0.03432885929942131,0.09101692587137222,1.1648567914962769
1761476158183839500,7.600839599609375,-0.03554374352097511,0.14130285382270813,1.1883997917175293
1761476158193876700,7.610876708984375,0.022391729056835175,0.24048003554344177,1.2136458158493042
1761476158203912700,7.62091259765625,0.06714080274105072,0.34930625557899475,1.2044012546539307
1761476158213948700,7.63094873046875,0.07002127915620804,0.3756297528743744,1.1708378791809082
1761476158223984600,7.640984619140625,0.06879478693008423,0.39840835332870483,1.1501213312149048
1761476158234020600,7.6510205078125,0.05291568860411644,0.4617726802825928,1.140068769454956
1761476158244056600,7.661056640625,0.036347560584545135,0.5405798554420471,1.1299428939819336
1761476158254092800,7.6710927734375,0.03060951642692089,0.5257924199104309,1.0616532564163208
1761476158264128800,7.681128662109375,0.036282725632190704,0.46269088983535767,0.8929629325866699
1761476158274165500,7.69116552734375,0.016372401267290115,0.3742630183696747,0.6198283433914185
1761476158284201700,7.70120166015625,-0.026482416316866875,0.3124989867210388,0.2709926962852478
1761476158294237700,7.71123779296875,-0.06256585568189621,0.35660332441329956,-0.0906672552227974
1761476158304273700,7.721273681640625,-0.07277542352676392,0.5178453922271729,-0.4115966558456421
1761476158314309600,7.7313095703125,-0.06480005383491516,0.5180009603500366,-0.6524766683578491
1761476158324345600,7.741345703125,-0.08085423707962036,0.27879598736763,-0.9182282090187073
1761476158334381600,7.751381591796875,-0.12674503028392792,-0.06072668358683586,-1.0955796241760254
1761476158344417500,7.76141748046875,-0.15181519091129303,-0.3775746822357178,-1.0271270275115967
1761476158354454500,7.77145458984375,-0.12105515599250793,-0.44333451986312866,-0.708191454410553
1761476158364490500,7.781490478515625,-0.06226549670100212,-0.23759926855564117,-0.3502938151359558
1761476158374526500,7.7915263671875,-0.07886071503162384,0.014342168346047401,-0.1676824539899826
1761476158384562400,7.8015625,-0.12544752657413483,0.16075123846530914,-0.19634757936000824
1761476158394598400,7.811598388671875,-0.14429126679897308,0.14139991998672485,-0.36631131172180176
1761476158404634400,7.82163427734375,-0.1625407189130783,0.026995519176125526,-0.6300641894340515
1761476158414670600,7.831670654296875,-0.20115628838539124,-0.04324295371770859,-0.9667229056358337
1761476158424706600,7.84170654296875,-0.16981779038906097,0.031079070642590523,-1.2574795484542847
1761476158434743600,7.85174365234375,-0.061860162764787674,0.11364372074604034,-1.4370019435882568
1761476158444779500,7.861779541015625,0.056208785623311996,0.12636224925518036,-1.479105830192566
1761476158454815700,7.871815673828125,0.1602315902709961,0.047357987612485886,-1.3744169473648071
1761476158464851700,7.881851806640625,0.18584704399108887,-0.03539792820811272,-1.1629223823547363
1761476158474887700,7.8918876953125,0.06038445234298706,-0.16482064127922058,-0.9042967557907104
1761476158484923600,7.901923583984375,-0.17051194608211517,-0.38619375228881836,-0.5934069752693176
1761476158494959600,7.911959716796875,-0.3857358396053314,-0.683823823928833,-0.22411493957042694
1761476158504996600,7.92199658203125,-0.5021669268608093,-0.9979150295257568,0.10894226282835007
1761476158515032600,7.932032470703125,-0.5158910155296326,-1.115523099899292,0.29211369156837463
1761476158525068500,7.942068603515625,-0.48039475083351135,-0.8528351783752441,0.22417564690113068
1761476158535104500,7.9521044921875,-0.40942203998565674,-0.3286063075065613,-0.06563672423362732
1761476158545140500,7.962140380859375,-0.2584659159183502,0.15652261674404144,-0.41782844066619873
1761476158555176400,7.972176513671875,-0.042085159569978714,0.3106629252433777,-0.6450096964836121
1761476158565212400,7.98221240234375,0.13494423031806946,0.09118102490901947,-0.7185690999031067
1761476158575248400,7.992248291015625,0.23366202414035797,-0.24020515382289886,-0.6823956370353699
1761476158585285600,8.00228564453125,0.25298580527305603,-0.39736077189445496,-0.5529034733772278
1761476158595321600,8.012321533203124,0.20044058561325073,-0.3757074177265167,-0.346144437789917
1761476158605352700,8.022352783203125,0.14122503995895386,-0.2717384696006775,-0.05183615908026695
1761476158615388700,8.032388671875,0.0995929092168808,-0.1658165454864502,0.28900346159935
1761476158625425700,8.04242578125,0.0721505656838417,-0.12870630621910095,0.6366838812828064
1761476158635461600,8.052461669921875,0.042318373918533325,-0.09641174226999283,0.9222661256790161
1761476158645497600,8.06249755859375,0.010259078815579414,-0.03743356838822365,1.1333991289138794
1761476158655533600,8.072533447265625,-0.020677797496318817,0.05105555057525635,1.2725826501846313
1761476158665569500,8.082569580078125,-0.03158961236476898,0.15571008622646332,1.3505659103393555
1761476158675605500,8.09260546875,-0.042003899812698364,0.23748856782913208,1.3743114471435547
1761476158685641500,8.102641357421875,-0.015447093173861504,0.270081490278244,1.3460599184036255
1761476158695677400,8.112677490234375,0.07181484252214432,0.32241103053092957,1.2959908246994019
1761476158705714400,8.12271435546875,0.16831237077713013,0.3790389895439148,1.2396389245986938
1761476158715750400,8.13275048828125,0.2030559778213501,0.4724275469779968,1.1987262964248657
1761476158725786400,8.142786376953126,0.16263067722320557,0.5878868103027344,1.1827178001403809
1761476158735822300,8.152822265625,0.07848064601421356,0.6428536772727966,1.1685603857040405
1761476158745858300,8.1628583984375,0.006828690879046917,0.5637356042861938,1.155651330947876
1761476158755894800,8.172894775390626,-0.03393391892313957,0.38665005564689636,1.1205240488052368
1761476158765930800,8.1829306640625,-0.0392342135310173,0.2469334751367569,1.037475347518921
1761476158775966700,8.192966796875,0.006224080920219421,0.22621700167655945,0.9276089668273926
1761476158786003700,8.203003662109374,0.06565291434526443,0.30067357420921326,0.8116421699523926
1761476158796039700,8.213039794921874,0.09522359073162079,0.38875070214271545,0.6392946839332581
1761476158806075600,8.22307568359375,0.10367848724126816,0.47512203454971313,0.40978768467903137
1761476158816111600,8.233111572265624,0.09305540472269058,0.5281564593315125,0.1903674155473709
1761476158826147600,8.243147705078124,0.03914009779691696,0.492411345243454,-0.015175496228039265
1761476158836183600,8.25318359375,-0.02105347067117691,0.36812159419059753,-0.24300093948841095
1761476158846219500,8.263219482421874,-0.06560196727514267,0.19406190514564514,-0.5099687576293945
1761476158856255500,8.27325537109375,-0.1472717970609665,-0.03860224038362503,-0.7738872170448303
1761476158866292500,8.28329248046875,-0.33561673760414124,-0.23960402607917786,-1.0189636945724487
1761476158876328400,8.293328369140625,-0.572816789150238,-0.3496844470500946,-1.1351404190063477
1761476158886364400,8.303364501953125,-0.7256312370300293,-0.3337596356868744,-1.1060404777526855
1761476158896400400,8.313400390625,-0.6863669157028198,-0.2121780514717102,-1.0743114948272705
1761476158906436400,8.323436279296875,-0.5027626752853394,-0.05566968768835068,-1.0419038534164429
1761476158916472300,8.333472412109375,-0.2915966808795929,0.022156134247779846,-1.0364619493484497
1761476158926508500,8.343508544921875,-0.11516463756561279,0.043002158403396606,-1.1108109951019287
1761476158936545500,8.353545654296875,-0.02686300501227379,-0.0024923570454120636,-1.311607837677002
1761476158946581500,8.36358154296875,0.012456344440579414,-0.12073599547147751,-1.5876209735870361
1761476158956617500,8.373617431640625,0.10447707772254944,-0.24342118203639984,-1.846216082572937
1761476158966653700,8.38365380859375,0.23047196865081787,-0.3020564913749695,-1.9919285774230957
1761476158976689700,8.393689697265625,0.2924248278141022,-0.24660548567771912,-1.8777292966842651
1761476158986725600,8.4037255859375,0.196198508143425,-0.2464478611946106,-1.4765920639038086
1761476158996761600,8.41376171875,0.013477164320647717,-0.5862243175506592,-0.8953531384468079
1761476159006797600,8.423797607421875,-0.16004058718681335,-1.0490429401397705,-0.30741795897483826
1761476159016834600,8.43383447265625,-0.30807822942733765,-1.3595553636550903,0.023810021579265594
1761476159026870500,8.44387060546875,-0.3675021827220917,-1.389678955078125,0.0764770433306694
1761476159036906500,8.453906494140625,-0.3635609745979309,-1.1492605209350586,-0.0723411962389946
1761476159046942500,8.4639423828125,-0.30549299716949463,-0.7919670343399048,-0.3668626844882965
1761476159056978400,8.473978515625,-0.18837304413318634,-0.41345036029815674,-0.712348997592926
1761476159067014400,8.484014404296875,-0.03866326063871384,-0.12390304356813431,-1.0125765800476074
1761476159077050400,8.49405029296875,0.11098694801330566,0.001254879403859377,-1.1823036670684814
1761476159087086300,8.50408642578125,0.24876421689987183,-0.04864076152443886,-1.1880218982696533
1761476159097123600,8.51412353515625,0.34150561690330505,-0.1260679066181183,-1.0320900678634644
1761476159107159600,8.52415966796875,0.3513769209384918,-0.14306077361106873,-0.724080502986908
1761476159117195500,8.534195556640626,0.25915220379829407,-0.1249811053276062,-0.3328448534011841
1761476159127231500,8.5442314453125,0.13519418239593506,-0.06815184652805328,0.09862156957387924
1761476159137267700,8.554267822265626,0.039954476058483124,-0.02004743181169033,0.5049523115158081
1761476159147303700,8.5643037109375,-0.01739383488893509,0.010477090254426003,0.8356846570968628
1761476159157339600,8.574339599609376,-0.03305854648351669,0.0619802288711071,1.0710750818252563
1761476159167375600,8.584375732421876,-0.014721818268299103,0.14996984601020813,1.1755311489105225
1761476159177412600,8.59441259765625,0.019075293093919754,0.24143290519714355,1.1887891292572021
1761476159187448600,8.604448486328126,0.05698871985077858,0.29919546842575073,1.1299970149993896
1761476159197484500,8.614484619140624,0.11927499622106552,0.3284449577331543,1.0426546335220337
1761476159207520500,8.6245205078125,0.18254251778125763,0.32210856676101685,0.9208136796951294
1761476159217556500,8.634556396484374,0.2372313290834427,0.27211225032806396,0.8182103633880615
1761476159227592400,8.644592529296874,0.2716313898563385,0.26466113328933716,0.7821125388145447
1761476159237628400,8.65462841796875,0.27100899815559387,0.35992667078971863,0.8222578167915344
1761476159247665700,8.664665771484374,0.2409624457359314,0.45331573486328125,0.8919753432273865
1761476159257701600,8.67470166015625,0.17624469101428986,0.49835458397865295,0.9458444714546204
1761476159267737600,8.684737548828124,0.1051483154296875,0.4739544689655304,0.9619873762130737
1761476159277773600,8.694773681640624,0.050316222012043,0.42136716842651367,0.9464930891990662
1761476159287809500,8.7048095703125,0.03589201718568802,0.35057780146598816,0.9460525512695312
1761476159297845500,8.714845458984374,0.0637955516576767,0.25504809617996216,0.980590283870697
1761476159307881500,8.724881591796875,0.12834176421165466,0.17736077308654785,1.0528442859649658
1761476159317920500,8.73492041015625,0.2199190855026245,0.14564785361289978,1.1140238046646118
1761476159327957500,8.74495751953125,0.3373771905899048,0.21169014275074005,1.0945663452148438
1761476159337993500,8.754993408203125,0.4221847653388977,0.33548611402511597,0.9537957310676575
1761476159348029400,8.765029541015625,0.4239956736564636,0.44140976667404175,0.755425751209259
1761476159358065400,8.7750654296875,0.33540773391723633,0.5104615688323975,0.5708106160163879
1761476159368101400,8.785101318359375,0.15845772624015808,0.47501903772354126,0.39809367060661316
1761476159378137300,8.795137451171875,-0.05837738886475563,0.3781055212020874,0.1235063374042511
1761476159388173600,8.805173583984375,-0.28643444180488586,0.21427392959594727,-0.33190953731536865
1761476159398209500,8.81520947265625,-0.47907310724258423,0.06356564164161682,-0.9043972492218018
1761476159408246500,8.82524658203125,-0.5608078241348267,-0.11094295978546143,-1.4315998554229736
1761476159418282500,8.835282470703126,-0.5175298452377319,-0.29141685366630554,-1.7603554725646973
1761476159428318500,8.845318359375,-0.3426840603351593,-0.2365926206111908,-1.7586102485656738
1761476159438354400,8.8553544921875,-0.09569903463125229,0.010706922970712185,-1.5369514226913452
1761476159448390400,8.865390380859376,0.08836081624031067,0.3069990277290344,-1.2460782527923584
1761476159458426400,8.87542626953125,0.14068685472011566,0.35707417130470276,-1.0664610862731934
1761476159468462600,8.885462646484376,0.09700667858123779,0.18061265349388123,-1.0826772451400757
1761476159478498600,8.89549853515625,0.018870864063501358,-0.07610435783863068,-1.2350974082946777
1761476159488535300,8.905535400390624,-0.10779204964637756,-0.2941378653049469,-1.4726483821868896
1761476159498571500,8.915571533203124,-0.23025991022586823,-0.43144193291664124,-1.6976934671401978
1761476159508607500,8.925607421875,-0.26359114050865173,-0.4893490970134735,-1.8420889377593994
1761476159518643500,8.9356435546875,-0.22083278000354767,-0.5137832760810852,-1.8656024932861328
1761476159528679400,8.945679443359374,-0.1967771053314209,-0.4134455919265747,-1.6552386283874512
1761476159538715400,8.95571533203125,-0.2570101022720337,-0.28530174493789673,-1.1834980249404907
1761476159548751400,8.96575146484375,-0.4095008969306946,-0.3184906840324402,-0.583088219165802
1761476159558788600,8.97578857421875,-0.591262936592102,-0.4561987519264221,-0.09383116662502289
1761476159568824600,8.985824462890625,-0.7281656861305237,-0.6367620229721069,0.1741962879896164
1761476159578860500,8.995860595703125,-0.7918951511383057,-0.7762557864189148,0.19763770699501038
1761476159588896500,9.005896484375,-0.7646545171737671,-0.7382209897041321,0.00006566103547811508
1761476159598932500,9.015932373046875,-0.6555405259132385,-0.5601359009742737,-0.2904953360557556
1761476159608968400,9.025968505859375,-0.48293861746788025,-0.333665132522583,-0.5049669742584229
1761476159619004400,9.03600439453125,-0.3097985088825226,-0.1598169058561325,-0.5713004469871521
1761476159629040400,9.046040283203125,-0.17387421429157257,-0.08756560832262039,-0.4855952858924866
1761476159639077400,9.056077392578125,-0.09596556425094604,-0.09413669258356094,-0.30938535928726196
1761476159649113300,9.06611328125,-0.09276934713125229,-0.11899393051862717,-0.08924451470375061
1761476159659149300,9.0761494140625,-0.14027747511863708,-0.12567685544490814,0.16181141138076782
1761476159669185300,9.086185302734375,-0.21127741038799286,-0.11951853334903717,0.40624740719795227
1761476159679221500,9.096221435546875,-0.2741844654083252,-0.060349754989147186,0.638224184513092
1761476159689257500,9.106257568359375,-0.29593658447265625,0.03447460010647774,0.8474023938179016
1761476159699293400,9.11629345703125,-0.25995567440986633,0.13306322693824768,1.0641440153121948
1761476159709330400,9.126330322265625,-0.18258003890514374,0.21268980205059052,1.2499569654464722
1761476159719366700,9.13636669921875,-0.07970105856657028,0.2546497583389282,1.3654017448425293
1761476159729402600,9.146402587890625,0.0019509531557559967,0.25330111384391785,1.412355899810791
1761476159739438600,9.1564384765625,0.04554663226008415,0.25749853253364563,1.3875805139541626
1761476159749474600,9.166474609375,0.056444745510816574,0.2923602759838104,1.3179317712783813
1761476159759510500,9.176510498046875,0.04515480622649193,0.3259795010089874,1.2324405908584595
1761476159769546500,9.18654638671875,0.003822474740445614,0.33040183782577515,1.1442420482635498
1761476159779582500,9.19658251953125,-0.03605782985687256,0.3211561441421509,1.0726224184036255
1761476159789619500,9.206619384765625,-0.038946483284235,0.361579030752182,1.025086522102356
1761476159799655400,9.216655517578126,0.006708352826535702,0.4995161294937134,0.9930939674377441
1761476159809691400,9.22669140625,0.09232532978057861,0.7033595442771912,1.0005491971969604
1761476159819727400,9.236727294921875,0.16542431712150574,0.808810293674469,1.038712501525879
1761476159829763300,9.246763427734376,0.23095378279685974,0.7048309445381165,1.0708073377609253
1761476159839799300,9.25679931640625,0.31071439385414124,0.45856785774230957,1.0564824342727661
1761476159849835500,9.26683544921875,0.3649883568286896,0.20105905830860138,0.9798275232315063
1761476159859872500,9.27687255859375,0.35173937678337097,0.06931327283382416,0.8082254528999329
1761476159869908500,9.286908447265626,0.24996846914291382,0.1225523129105568,0.5894391536712646
1761476159879944400,9.2969443359375,0.09435489773750305,0.23602880537509918,0.39904308319091797
1761476159889980700,9.306980712890624,-0.04671402648091316,0.30203109979629517,0.3118569850921631
1761476159900016600,9.3170166015625,-0.10769109427928925,0.25100627541542053,0.34634068608283997
1761476159910052600,9.327052490234376,-0.13032160699367523,0.04652172327041626,0.37561535835266113
1761476159920088600,9.337088623046874,-0.15766002237796783,-0.11941664665937424,0.29705557227134705
1761476159930124500,9.34712451171875,-0.12759995460510254,-0.040224842727184296,0.1620510220527649
1761476159940161500,9.35716162109375,-0.05584001541137695,0.18401731550693512,0.02202894166111946
1761476159950197500,9.367197509765624,0.06238827481865883,0.38229939341545105,-0.08394341170787811
1761476159960233500,9.3772333984375,0.20250995457172394,0.35384005308151245,-0.19704067707061768
1761476159970269400,9.38726953125,0.31770622730255127,0.15237517654895782,-0.3568653464317322
1761476159980305400,9.397305419921874,0.38535985350608826,-0.07774270325899124,-0.6196162700653076
1761476159990341400,9.40734130859375,0.3811289668083191,-0.1682201772928238,-0.9635167717933655
1761476160000377300,9.41737744140625,0.3411692976951599,-0.11032439768314362,-1.2639744281768799
1761476160010413300,9.427413330078124,0.3405234217643738,-0.015115287154912949,-1.3849529027938843
1761476160020450300,9.4374501953125,0.3935765326023102,0.0936570018529892,-1.275447130203247
1761476160030486300,9.447486328125,0.45848724246025085,0.0873555988073349,-1.071813941001892
1761476160040522500,9.4575224609375,0.47322651743888855,0.014042237773537636,-0.9563641548156738
1761476160050558500,9.467558349609375,0.40681585669517517,-0.09645447134971619,-0.9086052775382996
1761476160060594400,9.477594482421875,0.22832147777080536,-0.22223076224327087,-0.8565415740013123
1761476160070630700,9.487630615234375,-0.010823079384863377,-0.3825840353965759,-0.7593690752983093
1761476160080666600,9.49766650390625,-0.21964819729328156,-0.6021072864532471,-0.6447357535362244
1761476160090703400,9.507703369140625,-0.3334747552871704,-0.8084315657615662,-0.6314262747764587
1761476160100739600,9.517739501953125,-0.36515146493911743,-0.8738659620285034,-0.7508533000946045
1761476160110775600,9.527775634765625,-0.33742380142211914,-0.8267161250114441,-0.944342315196991
1761476160120811500,9.5378115234375,-0.2875523865222931,-0.7187201380729675,-1.1342952251434326
1761476160130847500,9.547847412109375,-0.22239865362644196,-0.5734837055206299,-1.2500076293945312
1761476160140883500,9.557883544921875,-0.15816746652126312,-0.46054115891456604,-1.253305196762085
1761476160150919400,9.56791943359375,-0.12879040837287903,-0.36397626996040344,-1.1352797746658325
1761476160160955400,9.577955322265625,-0.13788723945617676,-0.2622523009777069,-0.8943294286727905
1761476160170992400,9.587992431640625,-0.17503514885902405,-0.21038764715194702,-0.5972883701324463
1761476160181028400,9.5980283203125,-0.20872732996940613,-0.20619156956672668,-0.2999562919139862
1761476160191064300,9.608064208984375,-0.21582141518592834,-0.1828986406326294,-0.04639672115445137
1761476160201100300,9.618100341796875,-0.20259509980678558,-0.10872028023004532,0.15317949652671814
1761476160211136500,9.628136474609375,-0.18066510558128357,0.028004977852106094,0.30862393975257874
1761476160221172500,9.63817236328125,-0.14475157856941223,0.1951923817396164,0.4353669583797455
1761476160231208400,9.64820849609375,-0.09571221470832825,0.3389626145362854,0.5546650886535645
1761476160241245400,9.658245361328126,-0.03395005315542221,0.42111048102378845,0.6803670525550842
1761476160251281400,9.668281494140626,0.024713607504963875,0.4340868294239044,0.7929696440696716
1761476160261317400,9.6783173828125,0.07015538960695267,0.38809722661972046,0.9014774560928345
1761476160271353600,9.688353515625,0.12231085449457169,0.31744420528411865,1.014150857925415
1761476160281389600,9.6983896484375,0.16283217072486877,0.282082200050354,1.1153978109359741
1761476160291425500,9.708425537109376,0.14994367957115173,0.2951602637767792,1.1882970333099365
1761476160301461500,9.71846142578125,0.10275113582611084,0.3094555735588074,1.2377256155014038
1761476160311494700,9.72849462890625,0.05169834941625595,0.31417280435562134,1.2745201587677002
1761476160321531600,9.73853173828125,-0.00794287770986557,0.3429887592792511,1.2723219394683838
1761476160331567600,9.748567626953125,-0.07123717665672302,0.41662344336509705,1.2131277322769165
1761476160341603600,9.758603515625,-0.14024074375629425,0.4741378724575043,1.1505279541015625
1761476160351639600,9.7686396484375,-0.17527902126312256,0.48956042528152466,1.1181899309158325
1761476160361675500,9.778675537109375,-0.15822787582874298,0.47828301787376404,1.1367894411087036
1761476160371711500,9.78871142578125,-0.10494561493396759,0.43920519948005676,1.19584059715271
1761476160381747500,9.79874755859375,-0.02441827952861786,0.4299813210964203,1.2815570831298828
1761476160391784400,9.808784423828126,0.04694882035255432,0.4575369358062744,1.389589786529541
1761476160401820700,9.818820556640626,0.05638386681675911,0.4371994435787201,1.444896936416626
1761476160411856600,9.828856689453126,0.012104662135243416,0.33066827058792114,1.402909278869629
1761476160421892600,9.838892578125,-0.03216959163546562,0.18317122757434845,1.2710498571395874
1761476160431928600,9.848928466796876,-0.03055012784898281,0.002644469030201435,1.126859188079834
1761476160441964500,9.858964599609376,0.02824128232896328,-0.11469440162181854,0.9763457775115967
1761476160452000500,9.86900048828125,0.1574711948633194,-0.05243264511227608,0.7830556035041809
1761476160462036700,9.87903662109375,0.2808266878128052,0.17328809201717377,0.5334726572036743
1761476160472073500,9.889073486328124,0.328265517950058,0.3934548497200012,0.2277350276708603
1761476160482109400,9.899109375,0.3162163197994232,0.4689216613769531,-0.06727396696805954
1761476160492145700,9.909145751953124,0.2693957984447479,0.2857512831687927,-0.32686087489128113
1761476160502181600,9.919181640625,0.22643928229808807,-0.01786637306213379,-0.5209257006645203
1761476160512217600,9.929217529296874,0.2159731686115265,-0.2752273976802826,-0.6444168090820312
1761476160522253600,9.939253662109374,0.20253433287143707,-0.3599787652492523,-0.7620603442192078
1761476160532289500,9.94928955078125,0.19462184607982635,-0.24271553754806519,-0.8645696640014648
1761476160542326500,9.959326416015625,0.18849711120128632,-0.05563540756702423,-0.9512161016464233
1761476160552362500,9.969362548828125,0.2094118893146515,0.12320603430271149,-0.9962871074676514
1761476160562398500,9.9793984375,0.23773247003555298,0.25916653871536255,-0.9981704950332642
1761476160572434700,9.9894345703125,0.23859377205371857,0.40757647156715393,-0.9909042716026306
1761476160582470700,9.999470703125,0.18033446371555328,0.38677000999450684,-1.0865484476089478
1761476160592506600,10.009506591796875,0.10297101736068726,0.22434060275554657,-1.2578544616699219
1761476160602542600,10.01954248046875,0.055303096771240234,-0.028371552005410194,-1.4794074296951294
1761476160612578600,10.02957861328125,0.04031132161617279,-0.17722772061824799,-1.6728522777557373
1761476160622615600,10.039615478515625,0.02031976915895939,-0.20810441672801971,-1.777024745941162
1761476160632651500,10.049651611328125,-0.03279341757297516,-0.1032242551445961,-1.709841012954712
1761476160642687500,10.0596875,-0.12901315093040466,0.0013269251212477684,-1.4568817615509033
1761476160652723500,10.069723388671875,-0.24952812492847443,-0.08835183084011078,-1.0277212858200073
1761476160662759400,10.079759521484375,-0.4037964940071106,-0.32507753372192383,-0.5762467384338379
1761476160672795600,10.089795654296875,-0.6003910303115845,-0.545214056968689,-0.24940578639507294
1761476160682831600,10.09983154296875,-0.7889817357063293,-0.6827114820480347,-0.08799292147159576
1761476160692868400,10.109868408203125,-0.9001244306564331,-0.7282558083534241,-0.07526353001594543
1761476160702904600,10.119904541015625,-0.8899908065795898,-0.6736043095588684,-0.16729624569416046
1761476160712940500,10.1299404296875,-0.7761908173561096,-0.5351623296737671,-0.33371251821517944
1761476160722976500,10.1399765625,-0.5766068696975708,-0.310186505317688,-0.5243533253669739
1761476160733012500,10.150012451171875,-0.32941320538520813,-0.06985757499933243,-0.6604339480400085
1761476160743048400,10.16004833984375,-0.11806103587150574,0.06596310436725616,-0.6990031599998474
1761476160753084700,10.170084716796875,0.01506777387112379,0.07439717650413513,-0.6276512742042542
1761476160763120600,10.18012060546875,0.05601893365383148,0.03709481284022331,-0.4556308090686798
1761476160773157600,10.19015771484375,0.023924987763166428,0.07036857306957245,-0.15678611397743225
1761476160783193600,10.200193603515626,-0.04547938331961632,0.20390000939369202,0.2647813558578491
1761476160793229600,10.2102294921875,-0.13401511311531067,0.34261101484298706,0.6995962262153625
1761476160803265500,10.220265625,-0.20822569727897644,0.4235636591911316,1.0820527076721191
1761476160813301500,10.230301513671876,-0.24132734537124634,0.4270922839641571,1.3988302946090698
1761476160823337500,10.24033740234375,-0.24533885717391968,0.35525405406951904,1.6197309494018555
1761476160833373400,10.25037353515625,-0.21625010669231415,0.2663393020629883,1.7424038648605347
1761476160843410400,10.260410400390626,-0.1473141759634018,0.2471562772989273,1.7764912843704224
1761476160853446400,10.2704462890625,-0.05741821974515915,0.30199161171913147,1.7164347171783447
1761476160863482400,10.280482421875,0.0076558515429496765,0.40381598472595215,1.5919796228408813
1761476160873518600,10.2905185546875,0.037715643644332886,0.4935954809188843,1.437092900276184
1761476160883554600,10.300554443359376,0.0698341652750969,0.5420255661010742,1.3064390420913696
1761476160893590500,10.310590576171874,0.10119860619306564,0.49662595987319946,1.2212677001953125
1761476160903626500,10.32062646484375,0.11400921642780304,0.4248223304748535,1.1899791955947876
1761476160913662500,10.330662353515624,0.11793888360261917,0.408711314201355,1.191403865814209
1761476160923699700,10.34069970703125,0.12179035693407059,0.4763806164264679,1.194751501083374
1761476160933735700,10.350735595703124,0.09174403548240662,0.5718254446983337,1.1794193983078003
1761476160943771600,10.360771728515624,0.05005357787013054,0.6043564677238464,1.185256004333496
1761476160953807600,10.3708076171875,0.0464911051094532,0.5867919921875,1.220031499862671
1761476160963843600,10.380843505859374,0.05266830697655678,0.5261797904968262,1.280019760131836
1761476160973879600,10.390879638671874,0.048849038779735565,0.3346902132034302,1.3667490482330322
1761476160983915500,10.40091552734375,0.05116651952266693,0.10421758890151978,1.4184181690216064
1761476160993952500,10.410952392578125,0.06853988766670227,-0.022604921832680702,1.3338979482650757
1761476161003988500,10.420988525390625,0.121699258685112,-0.01074080541729927,1.0878806114196777
1761476161014024400,10.4310244140625,0.17809048295021057,0.1025790274143219,0.6833699345588684
1761476161024060400,10.441060302734375,0.1660521924495697,0.2129550725221634,0.1581282913684845
1761476161034096400,10.451096435546875,0.06046755984425545,0.27987906336784363,-0.3626101016998291
1761476161044132400,10.46113232421875,-0.06628479063510895,0.2556365728378296,-0.7479314208030701
1761476161054168600,10.47116845703125,-0.14162947237491608,0.1061394214630127,-0.9465592503547668
1761476161064205600,10.48120556640625,-0.13091158866882324,0.038623228669166565,-0.9426729083061218
1761476161074241500,10.491241455078125,-0.08941000699996948,0.09571903198957443,-0.7454787492752075
1761476161084277500,10.501277587890625,-0.03347216919064522,0.2824079692363739,-0.3990507125854492
1761476161094313700,10.511313720703125,0.03220468759536743,0.5540565848350525,-0.14799131453037262
1761476161104349700,10.521349609375,0.024399761110544205,0.6833261251449585,-0.14448125660419464
1761476161114385700,10.5313857421875,-0.0488806888461113,0.6321194767951965,-0.3546808063983917
1761476161124421600,10.541421630859375,-0.15406489372253418,0.41699761152267456,-0.6858464479446411
1761476161134457600,10.55145751953125,-0.21294255554676056,0.14118342101573944,-1.0185911655426025
1761476161144494600,10.56149462890625,-0.20096099376678467,-0.09108257293701172,-1.3187682628631592
1761476161154530600,10.571530517578125,-0.1289740651845932,-0.2491321563720703,-1.568434715270996
1761476161164566500,10.58156640625,-0.04913382977247238,-0.33641645312309265,-1.7818644046783447
1761476161174602500,10.5916025390625,-0.00770270312204957,-0.344563364982605,-1.922413945198059
1761476161184638500,10.601638427734375,-0.02596959099173546,-0.34071776270866394,-2.0027952194213867
1761476161194674400,10.61167431640625,-0.07738697528839111,-0.3735882043838501,-2.0258848667144775
1761476161204710400,10.62171044921875,-0.12307509779930115,-0.41481101512908936,-1.928295373916626
1761476161214747400,10.631747314453126,-0.1810775250196457,-0.48549339175224304,-1.7561182975769043
