time,seconds_elapsed,z,y,x
1761475842678697500,0.028697509765625,0.11122094839811325,-0.29502466320991516,0.1549895703792572
1761475842688674600,0.038674560546875,0.14312195777893066,-0.2958594560623169,0.1487552672624588
1761475842698651600,0.048651611328125,0.16229884326457977,-0.29092779755592346,0.13158772885799408
1761475842708629200,0.058629150390625,0.17839866876602173,-0.2649899125099182,0.1003718376159668
1761475842718606600,0.068606689453125,0.18852268159389496,-0.2289607971906662,0.0593639500439167
1761475842728583700,0.078583740234375,0.18740449845790863,-0.20186980068683624,0.012701500207185745
1761475842738560500,0.088560546875,0.18516691029071808,-0.16794246435165405,-0.03823012486100197
1761475842748537600,0.09853759765625,0.17853283882141113,-0.10341081023216248,-0.08605042099952698
1761475842758514400,0.108514404296875,0.16282232105731964,0.014968032017350197,-0.1280737668275833
1761475842768491500,0.118491455078125,0.15638892352581024,0.15845689177513123,-0.15074250102043152
1761475842778469600,0.1284697265625,0.15204797685146332,0.26615914702415466,-0.16728979349136353
1761475842788446500,0.138446533203125,0.1651419848203659,0.31974756717681885,-0.15261487662792206
1761475842798423600,0.148423583984375,0.19494250416755676,0.3266928195953369,-0.11570027470588684
1761475842808400400,0.158400390625,0.2328261286020279,0.27979880571365356,-0.06259392946958542
1761475842818377500,0.16837744140625,0.2585781216621399,0.18057158589363098,-0.009375179186463356
1761475842828354300,0.178354248046875,0.26271575689315796,0.07472685724496841,0.0448075607419014
1761475842838331400,0.188331298828125,0.24914346635341644,-0.007926743477582932,0.11110669374465942
1761475842848308500,0.19830859375,0.2167952060699463,-0.04553244635462761,0.17515423893928528
1761475842858286300,0.208286376953125,0.17386211454868317,-0.033784978091716766,0.23310568928718567
1761475842868263400,0.218263427734375,0.14310023188591003,0.009752432815730572,0.27797937393188477
1761475842878240500,0.228240478515625,0.13539890944957733,0.03715742751955986,0.29531946778297424
1761475842888217300,0.23821728515625,0.14749909937381744,0.02039913460612297,0.27146676182746887
1761475842898194400,0.2481943359375,0.15693600475788116,-0.03213091939687729,0.20809976756572723
1761475842908171500,0.258171630859375,0.1610131412744522,-0.104801245033741,0.12984099984169006
1761475842918148600,0.268148681640625,0.15228304266929626,-0.18999895453453064,0.07421715557575226
1761475842928126500,0.27812646484375,0.13376495242118835,-0.2631807327270508,0.04270976036787033
1761475842938103600,0.288103515625,0.10857118666172028,-0.3158942759037018,0.04461711645126343
1761475842948080600,0.29808056640625,0.07901129126548767,-0.32666561007499695,0.07848715782165527
1761475842958057500,0.308057373046875,0.05697097256779671,-0.2615601122379303,0.13965997099876404
1761475842968034600,0.31803466796875,0.04674815386533737,-0.1539122313261032,0.19739288091659546
1761475842978011400,0.328011474609375,0.06315029412508011,-0.10234571993350983,0.24960628151893616
1761475842987988500,0.337988525390625,0.09866354614496231,-0.13487090170383453,0.3074336349964142
1761475842997966600,0.347966552734375,0.14379240572452545,-0.14715686440467834,0.3997590243816376
1761475843007943400,0.357943359375,0.17748214304447174,-0.14298710227012634,0.5054799318313599
1761475843017920500,0.36792041015625,0.1983882337808609,-0.15687575936317444,0.5958878397941589
1761475843027897300,0.3778974609375,0.21484780311584473,-0.17369040846824646,0.6581096053123474
1761475843037874400,0.38787451171875,0.23218737542629242,-0.1943347007036209,0.6997414827346802
1761475843047851500,0.3978515625,0.2582088112831116,-0.24302411079406738,0.7030412554740906
1761475843057828400,0.407828369140625,0.3122076094150543,-0.33387839794158936,0.6930469274520874
1761475843067806500,0.417806396484375,0.36029383540153503,-0.32018306851387024,0.684086799621582
1761475843077783600,0.427783447265625,0.4218011498451233,-0.3214070498943329,0.6685978174209595
1761475843087760400,0.437760498046875,0.4632541835308075,-0.28942564129829407,0.6351629495620728
1761475843097737500,0.447737548828125,0.4896999001502991,-0.12273998558521271,0.5916199684143066
1761475843107714300,0.45771435546875,0.5116824507713318,0.19509124755859375,0.5430529713630676
1761475843117691400,0.46769140625,0.5368391871452332,0.43533286452293396,0.4616100788116455
1761475843127668500,0.47766845703125,0.563827633857727,0.5591241121292114,0.36217200756073
1761475843137645600,0.4876455078125,0.5814513564109802,0.8440548777580261,0.21085624396800995
1761475843147623400,0.49762353515625,0.6513500213623047,0.7471842765808105,-0.06688429415225983
1761475843157600500,0.5076005859375,0.6858944296836853,0.31956106424331665,-0.36849844455718994
1761475843167577600,0.51757763671875,0.5791576504707336,0.05973011627793312,-0.5171154737472534
1761475843177554400,0.527554443359375,0.3851064145565033,-0.026343517005443573,-0.5334417223930359
1761475843187531500,0.537531494140625,0.23880082368850708,-0.08287779241800308,-0.5595100522041321
1761475843197508600,0.547508544921875,0.15421323478221893,-0.058824118226766586,-0.6002585887908936
1761475843207485400,0.5574853515625,0.14078114926815033,0.13312123715877533,-0.6004301905632019
1761475843217463600,0.567463623046875,0.14144694805145264,0.38940146565437317,-0.5614401698112488
1761475843227440400,0.5774404296875,0.1895754188299179,0.6341297030448914,-0.47861072421073914
1761475843237417500,0.58741748046875,0.20497727394104004,0.7673389315605164,-0.4626738429069519
1761475843247394600,0.59739453125,0.15079300105571747,0.8224272727966309,-0.4869198203086853
1761475843257371400,0.607371337890625,0.04644634574651718,0.9039415717124939,-0.44589143991470337
1761475843267348200,0.61734814453125,-0.02870596945285797,1.0995972156524658,-0.361374169588089
1761475843277325000,0.627324951171875,-0.10328087210655212,1.4266663789749146,-0.23812228441238403
1761475843287303200,0.63730322265625,-0.056819088757038116,1.840755820274353,-0.06705591082572937
1761475843297280300,0.6472802734375,-0.008288837037980556,2.511495590209961,0.09254786372184753
1761475843307257000,0.657257080078125,0.05937589332461357,3.3510406017303467,0.3067566752433777
1761475843317234200,0.667234130859375,0.12450030446052551,4.371562480926514,0.5244666337966919
1761475843327211300,0.677211181640625,0.1605108231306076,4.947644233703613,0.6712315678596497
1761475843337188400,0.687188232421875,0.12299194186925888,5.02989387512207,0.7315233945846558
1761475843347165400,0.69716552734375,-0.0989183709025383,4.737652778625488,0.6382935643196106
1761475843357142300,0.707142333984375,-0.41636502742767334,3.6510329246520996,0.31887587904930115
1761475843367120400,0.717120361328125,-0.7161415219306946,2.250499963760376,0.09479036927223206
1761475843377097500,0.727097412109375,-1.0246719121932983,1.0794758796691895,0.01936725154519081
1761475843387074300,0.73707421875,-1.224603533744812,0.5032690167427063,0.20260053873062134
1761475843397051400,0.747051513671875,-1.5169106721878052,-0.05609416961669922,0.4669778645038605
1761475843407028200,0.7570283203125,-1.9223850965499878,-0.6919019222259521,0.6283538937568665
1761475843417005300,0.76700537109375,-2.335803747177124,-1.3541163206100464,0.6551815271377563
1761475843426982100,0.776982177734375,-2.6006181240081787,-2.0192439556121826,0.6236425638198853
1761475843436960300,0.786960205078125,-2.7591729164123535,-2.989658832550049,0.44630104303359985
1761475843446937300,0.796937255859375,-2.804516315460205,-4.036018371582031,0.19813619554042816
1761475843456914200,0.8069140625,-2.7823243141174316,-2.6409881114959717,-0.275727778673172
1761475843466891300,0.816891357421875,-2.758336305618286,-1.1882517337799072,-0.7085998058319092
1761475843476868000,0.8268681640625,-2.7480411529541016,0.3891540467739105,-0.9922725558280945
1761475843486845200,0.83684521484375,-2.7208640575408936,1.0057013034820557,-1.0275505781173706
1761475843496822300,0.846822265625,-2.639805793762207,0.2311915010213852,-1.068397879600525
1761475843506800000,0.856800048828125,-2.459442377090454,-0.9784389734268188,-1.089208722114563
1761475843516777200,0.866777099609375,-2.223443031311035,-1.720441460609436,-0.9743307828903198
1761475843526754300,0.87675439453125,-1.9629439115524292,-1.5204147100448608,-0.7755452394485474
1761475843536731100,0.886731201171875,-1.4562101364135742,0.25207191705703735,-0.6827215552330017
1761475843546708200,0.896708251953125,-0.6463160514831543,1.3451505899429321,-0.5210241675376892
1761475843556685300,0.906685302734375,0.12196331471204758,0.48335644602775574,-0.6199731230735779
1761475843566662400,0.916662353515625,0.7978183031082153,-0.6971690654754639,-0.709114670753479
1761475843576640300,0.92664013671875,1.2629871368408203,-0.6555632948875427,-0.39219292998313904
1761475843586617300,0.936617431640625,1.4371578693389893,-0.08177288621664047,0.2772320508956909
1761475843596594400,0.946594482421875,1.3026444911956787,0.2214495837688446,1.0232475996017456
1761475843606571300,0.9565712890625,0.905467689037323,0.21467576920986176,1.660146951675415
1761475843616548400,0.96654833984375,0.32356199622154236,-0.29585275053977966,2.034374952316284
1761475843626525200,0.976525146484375,-0.3240680992603302,-1.0620819330215454,2.098950147628784
1761475843636502300,0.986502197265625,-0.7694959044456482,-1.613470435142517,1.9557510614395142
1761475843646479400,0.996479248046875,-0.8964614868164062,-1.6823811531066895,1.6292273998260498
1761475843656457200,1.006457275390625,-0.8065036535263062,-1.6132221221923828,1.2914975881576538
1761475843666434300,1.016434326171875,-0.6179221272468567,-1.9124879837036133,1.0367299318313599
1761475843676411100,1.0264111328125,-0.5194419026374817,-1.5428096055984497,0.704885721206665
1761475843686388200,1.03638818359375,-0.47222864627838135,-2.020151376724243,0.13986574113368988
1761475843696365300,1.046365234375,-0.4330940246582031,-2.6261627674102783,-0.5827733874320984
1761475843706342100,1.056342041015625,-0.4755910336971283,-3.2586026191711426,-1.4378509521484375
1761475843716319200,1.0663193359375,-0.572574257850647,-3.5217907428741455,-2.1447315216064453
1761475843726297300,1.07629736328125,-0.657462477684021,-3.4889869689941406,-2.5569658279418945
1761475843736274200,1.086274169921875,-0.6904460191726685,-3.3075778484344482,-2.727203607559204
1761475843746251300,1.096251220703125,-0.6955435872077942,-3.1760449409484863,-2.753803253173828
1761475843756228000,1.10622802734375,-0.6979050040245056,-3.1127212047576904,-2.749161958694458
1761475843766205200,1.116205078125,-0.6756479740142822,-2.87534499168396,-2.767056941986084
1761475843776182300,1.126182373046875,-0.5859588384628296,-2.3588781356811523,-2.7438926696777344
1761475843786159400,1.136159423828125,-0.4628780484199524,-1.6361647844314575,-2.5752248764038086
1761475843796137200,1.14613720703125,-0.357929527759552,-0.905841588973999,-2.233464002609253
1761475843806114300,1.1561142578125,-0.22171510756015778,-0.24811771512031555,-1.7912609577178955
1761475843816091400,1.16609130859375,-0.03564323112368584,0.3396754562854767,-1.2597440481185913
1761475843826068200,1.176068115234375,0.21965894103050232,0.7581029534339905,-0.6520212888717651
1761475843836045300,1.18604541015625,0.5130122900009155,0.8887227773666382,-0.02390914410352707
1761475843846022400,1.1960224609375,0.8174711465835571,0.6910823583602905,0.5415720343589783
1761475843855999200,1.205999267578125,1.0492255687713623,0.30537381768226624,1.0121318101882935
1761475843865976300,1.215976318359375,1.1498444080352783,-0.0480206273496151,1.3305171728134155
1761475843875954200,1.2259541015625,1.1454368829727173,-0.3276999294757843,1.4452826976776123
1761475843885931300,1.23593115234375,1.077327013015747,-0.44600844383239746,1.3906499147415161
1761475843895908400,1.245908447265625,0.9804753065109253,-0.3255145251750946,1.222896695137024
1761475843905885200,1.25588525390625,0.931162416934967,0.06308458000421524,1.0358917713165283
1761475843915862300,1.2658623046875,0.9562424421310425,0.6256027817726135,0.8652850985527039
1761475843925839000,1.275839111328125,0.9980964660644531,1.1839975118637085,0.7297713160514832
1761475843935816200,1.285816162109375,0.9784401655197144,1.631598711013794,0.6090188026428223
1761475843945794300,1.295794189453125,0.9081898331642151,1.8985775709152222,0.5202248692512512
1761475843955771100,1.305771240234375,0.8249865770339966,2.030172824859619,0.47361472249031067
1761475843965748200,1.315748291015625,0.7273420691490173,2.0335726737976074,0.4827054738998413
1761475843975725000,1.32572509765625,0.5958644151687622,1.9656249284744263,0.5200362801551819
1761475843985702400,1.335702392578125,0.4228461980819702,1.9326797723770142,0.6160558462142944
1761475843995679500,1.345679443359375,0.252468079328537,1.9979554414749146,0.8405699133872986
1761475844005656300,1.35565625,0.17831149697303772,2.0932204723358154,1.200116515159607
1761475844015633400,1.36563330078125,0.19393441081047058,1.9989726543426514,1.5779650211334229
1761475844025611300,1.375611328125,0.186319038271904,1.6433801651000977,1.900585651397705
1761475844035588400,1.38558837890625,0.01719072461128235,1.3111686706542969,2.2208592891693115
1761475844045565400,1.3955654296875,-0.32856616377830505,1.2341052293777466,2.6362509727478027
1761475844055542300,1.405542236328125,-0.617986798286438,1.3212648630142212,3.1514413356781006
1761475844065519400,1.415519287109375,-0.721289873123169,1.2376569509506226,3.606001377105713
1761475844075496200,1.42549609375,-0.6883631348609924,0.9723347425460815,3.9717719554901123
1761475844085473300,1.435473388671875,-0.5890260934829712,0.5249249339103699,4.238498687744141
1761475844095451400,1.445451416015625,-0.5709176659584045,-0.21132588386535645,4.2605414390563965
1761475844105428200,1.45542822265625,-0.7921538949012756,-0.9967641234397888,3.963395833969116
1761475844115405300,1.4654052734375,-1.1197526454925537,-1.5320448875427246,3.456054925918579
1761475844125382100,1.475382080078125,-1.224128007888794,-2.026002883911133,2.8342196941375732
1761475844135359200,1.485359130859375,-0.9403730034828186,-2.521390914916992,1.9841747283935547
1761475844145336000,1.495336181640625,-0.3205285966396332,-2.709944248199463,0.920556366443634
1761475844155313200,1.505313232421875,0.4499867558479309,-2.3846487998962402,-0.24286846816539764
1761475844165290200,1.515290283203125,1.0317018032073975,-1.6268094778060913,-1.3224878311157227
1761475844175268000,1.52526806640625,1.4029371738433838,-0.9588032364845276,-2.310734272003174
1761475844185245200,1.5352451171875,1.6002438068389893,-0.5373901128768921,-3.1510579586029053
1761475844195222300,1.54522216796875,1.425123691558838,-0.18048524856567383,-3.7684102058410645
1761475844205199400,1.555199462890625,0.9718489646911621,0.09530136734247208,-4.070687294006348
1761475844215176400,1.565176513671875,0.5085499882698059,0.10976046323776245,-4.050154209136963
1761475844225153300,1.5751533203125,0.17143411934375763,-0.20874758064746857,-3.780735731124878
1761475844235130400,1.58513037109375,0.04041192680597305,-0.6461054682731628,-3.329993963241577
1761475844245108500,1.5951083984375,0.11715932935476303,-1.110100269317627,-2.8078911304473877
1761475844255085300,1.605085205078125,0.27341845631599426,-1.480467677116394,-2.36083722114563
1761475844265062000,1.615061767578125,0.3819544017314911,-1.4970524311065674,-2.0245444774627686
1761475844275039000,1.6250390625,0.4625190198421478,-1.1497035026550293,-1.7249865531921387
1761475844285016000,1.63501611328125,0.5409119725227356,-0.6259251236915588,-1.455196738243103
1761475844294993000,1.644992919921875,0.601997971534729,-0.0920252725481987,-1.2073723077774048
1761475844304970000,1.654969970703125,0.6345320343971252,0.2878415286540985,-0.9630337953567505
1761475844314946800,1.66494677734375,0.6223075985908508,0.41312673687934875,-0.7329518795013428
1761475844324925000,1.674925048828125,0.5422528982162476,0.3354632556438446,-0.5407044291496277
1761475844334902000,1.684902099609375,0.41668134927749634,0.2487395703792572,-0.40139469504356384
1761475844344878800,1.69487890625,0.29103589057922363,0.25993841886520386,-0.31303489208221436
1761475844354856000,1.70485595703125,0.177699476480484,0.4555246829986572,-0.24882768094539642
1761475844364832800,1.714832763671875,0.0830765813589096,0.8496474027633667,-0.17762704193592072
1761475844374809900,1.724809814453125,0.03568163514137268,1.3266265392303467,-0.05334636569023132
1761475844384787200,1.734787109375,0.028322940692305565,1.7578970193862915,0.1225261464715004
1761475844394764800,1.744764892578125,0.08023221045732498,2.028292417526245,0.3548627197742462
1761475844404742000,1.754741943359375,0.18124979734420776,2.121138095855713,0.5970129370689392
1761475844414719000,1.764718994140625,0.2922287881374359,2.0308845043182373,0.8259965777397156
1761475844424696000,1.774696044921875,0.3541235327720642,1.747660756111145,1.0375208854675293
1761475844434673200,1.784673095703125,0.3362276256084442,1.38844895362854,1.20750892162323
1761475844444650000,1.79464990234375,0.2078772634267807,1.0731202363967896,1.3126349449157715
1761475844454627000,1.804626953125,0.007620608899742365,0.9120223522186279,1.3576316833496094
1761475844464604000,1.81460400390625,-0.18199515342712402,0.9795436859130859,1.4596197605133057
1761475844474582000,1.82458203125,-0.3216100335121155,1.2779555320739746,1.6939696073532104
1761475844484559000,1.83455908203125,-0.3825688064098358,1.6752225160598755,1.969680666923523
1761475844494536000,1.844535888671875,-0.37094542384147644,1.9298169612884521,2.160792589187622
1761475844504513000,1.854512939453125,-0.36023396253585815,1.9739458560943604,2.2236812114715576
1761475844514489900,1.86448974609375,-0.4089575707912445,1.713427186012268,2.1236443519592285
1761475844524467000,1.874467041015625,-0.6094191670417786,1.1556682586669922,1.782845377922058
1761475844534443800,1.88444384765625,-1.0965214967727661,0.5869996547698975,1.273008942604065
1761475844544420900,1.8944208984375,-1.6975080966949463,0.386141836643219,0.8875665068626404
1761475844554399000,1.90439892578125,-2.06430721282959,0.6774658560752869,0.8026812076568604
1761475844564375800,1.914375732421875,-2.081904649734497,1.0006872415542603,0.9722752571105957
1761475844574353000,1.924352783203125,-1.8288379907608032,0.9675731658935547,1.1260790824890137
1761475844584330000,1.934330078125,-1.4257582426071167,0.30179649591445923,0.9751718044281006
1761475844594307000,1.94430712890625,-1.2169588804244995,-0.8512848615646362,0.29509103298187256
1761475844604284200,1.9542841796875,-1.325710654258728,-1.834158182144165,-0.7556365728378296
1761475844614261000,1.964260986328125,-1.5288007259368896,-2.4708750247955322,-1.9351844787597656
1761475844624238800,1.97423876953125,-1.5451816320419312,-2.7333226203918457,-3.1143958568573
1761475844634216200,1.98421630859375,-1.2802919149398804,-2.727982759475708,-4.165761470794678
1761475844644193000,1.994193115234375,-0.8615561723709106,-2.6061506271362305,-5.00944709777832
1761475844654170000,2.004170166015625,-0.5522785186767578,-2.2530980110168457,-5.52634334564209
1761475844664147000,2.01414697265625,-0.34516507387161255,-1.7596287727355957,-5.637112140655518
1761475844674124000,2.0241240234375,-0.1520877629518509,-1.2166094779968262,-5.290679454803467
1761475844684100900,2.034100830078125,0.08699154853820801,-0.7612895965576172,-4.578849792480469
1761475844694078000,2.044077880859375,0.37578099966049194,-0.3725818395614624,-3.626753807067871
1761475844704056000,2.05405615234375,0.6895904541015625,-0.04898673668503761,-2.5179219245910645
1761475844714033000,2.064032958984375,0.9884479641914368,0.10318362712860107,-1.4094983339309692
1761475844724010000,2.074010009765625,1.228729486465454,0.04004306346178055,-0.41942098736763
1761475844733986800,2.08398681640625,1.3501025438308716,-0.11872555315494537,0.42347028851509094
1761475844743964000,2.0939638671875,1.2970489263534546,-0.25319135189056396,1.0829845666885376
1761475844753941000,2.10394091796875,1.1028344631195068,-0.32654252648353577,1.5446081161499023
1761475844763917800,2.113917724609375,0.8591426014900208,-0.3991732597351074,1.7882623672485352
1761475844773896000,2.12389599609375,0.602698028087616,-0.4364575147628784,1.8224363327026367
1761475844783873000,2.133873046875,0.3684656322002411,-0.34188079833984375,1.7120262384414673
1761475844793849900,2.143849853515625,0.17965924739837646,-0.1773424595594406,1.522019624710083
1761475844803827000,2.153826904296875,0.04822317883372307,-0.014783650636672974,1.2849622964859009
1761475844813804000,2.163803955078125,-0.004342560190707445,0.13920831680297852,1.0296062231063843
1761475844823781000,2.173781005859375,0.0054975030943751335,0.33906716108322144,0.7262117862701416
1761475844833758000,2.183758056640625,0.016356809064745903,0.6187930703163147,0.424279123544693
1761475844843735000,2.193735107421875,0.038081228733062744,0.9121296405792236,0.23832209408283234
1761475844853712100,2.203712158203125,0.11124065518379211,1.1012377738952637,0.17655886709690094
1761475844863690000,2.21368994140625,0.21515293419361115,1.0909919738769531,0.19004301726818085
1761475844873667000,2.2236669921875,0.3137513995170593,0.8975846767425537,0.2469843327999115
1761475844883644000,2.233643798828125,0.4184672236442566,0.5697339177131653,0.29154476523399353
1761475844893621000,2.24362109375,0.483143150806427,0.2822116017341614,0.2990112006664276
1761475844903598000,2.25359814453125,0.5286117792129517,0.07354403287172318,0.28836292028427124
1761475844913575000,2.263574951171875,0.5582045316696167,0.0698733925819397,0.29644080996513367
1761475844923552000,2.273552001953125,0.5537312030792236,0.35097736120224,0.4012170433998108
1761475844933529900,2.28352978515625,0.5425344705581665,0.8093630075454712,0.6580725312232971
1761475844943507000,2.2935068359375,0.5815121531486511,1.2918155193328857,1.0431917905807495
1761475844953484000,2.303484130859375,0.6436194777488708,1.619287133216858,1.4655957221984863
1761475844963460900,2.3134609375,0.6797998547554016,1.6327214241027832,1.8759236335754395
1761475844973438000,2.32343798828125,0.6315920948982239,1.2394908666610718,2.263366460800171
1761475844983414800,2.333414794921875,0.4803248643875122,0.3987366557121277,2.5250656604766846
1761475844993391900,2.343391845703125,0.18312513828277588,-0.40370973944664,2.588454008102417
1761475845003369000,2.353368896484375,-0.2457372546195984,-0.9215998649597168,2.572554588317871
1761475845013346800,2.363346923828125,-0.6853159666061401,-1.2488116025924683,2.5173890590667725
1761475845023324000,2.373323974609375,-1.043853998184204,-1.3424961566925049,2.4740378856658936
1761475845033301000,2.383301025390625,-1.3013060092926025,-1.1390527486801147,2.4759604930877686
1761475845043278000,2.393278076171875,-1.4385236501693726,-0.8734515309333801,2.4388251304626465
1761475845053255200,2.403255126953125,-1.3864916563034058,-0.9544627666473389,2.135465621948242
1761475845063232000,2.41323193359375,-1.2250148057937622,-1.3582087755203247,1.4338996410369873
1761475845073209000,2.423208984375,-1.0942903757095337,-1.8261315822601318,0.37200650572776794
1761475845083186000,2.43318603515625,-0.9544047713279724,-2.2063870429992676,-0.909984290599823
1761475845093164000,2.4431640625,-0.7894248366355896,-2.315197467803955,-2.17939829826355
1761475845103141000,2.45314111328125,-0.6270081400871277,-2.0071144104003906,-3.209439516067505
1761475845113118000,2.463117919921875,-0.4513225853443146,-1.4196290969848633,-3.941765546798706
1761475845123095000,2.473094970703125,-0.250141441822052,-0.6873942017555237,-4.3000383377075195
1761475845133072000,2.48307177734375,-0.11301738768815994,0.044081371277570724,-4.212269306182861
1761475845143049000,2.493049072265625,-0.04221232980489731,0.5956390500068665,-3.7642807960510254
1761475845153025800,2.50302587890625,0.04643072187900543,0.903822124004364,-3.0445399284362793
1761475845163004000,2.51300390625,0.19099880754947662,0.9004523754119873,-2.1687240600585938
1761475845172981000,2.52298095703125,0.42007485032081604,0.6340233683586121,-1.2660913467407227
1761475845182957800,2.532957763671875,0.6496022343635559,0.1821763962507248,-0.4685366451740265
1761475845192935000,2.542934814453125,0.7258639335632324,-0.30674219131469727,0.13532474637031555
1761475845202911700,2.552911865234375,0.5560336709022522,-0.6336061954498291,0.4590062201023102
1761475845212888800,2.562888916015625,0.20348390936851501,-0.7832252979278564,0.5179009437561035
1761475845222866200,2.5728662109375,-0.18500447273254395,-0.7340699434280396,0.4617169499397278
1761475845232843000,2.582843017578125,-0.49532267451286316,-0.5382604598999023,0.430582731962204
1761475845242820900,2.59282080078125,-0.6714009046554565,-0.36365342140197754,0.4763958156108856
1761475845252798200,2.602798095703125,-0.6812370419502258,-0.3035067319869995,0.5563103556632996
1761475845262775300,2.612775390625,-0.5464038252830505,-0.3080231249332428,0.6100710034370422
1761475845272752000,2.622752197265625,-0.3085579574108124,-0.2856672406196594,0.6131152510643005
1761475845282729200,2.632729248046875,-0.05525540933012962,-0.19392897188663483,0.5234091281890869
1761475845292706300,2.642706298828125,0.15877752006053925,-0.022878652438521385,0.33393824100494385
1761475845302683100,2.65268310546875,0.2866789698600769,0.25102561712265015,0.09057488292455673
1761475845312660200,2.66266015625,0.2871663272380829,0.6257912516593933,-0.155103862285614
1761475845322638000,2.67263818359375,0.20200780034065247,1.004686951637268,-0.3846933841705322
1761475845332615200,2.682615234375,0.10614518821239471,1.3042280673980713,-0.5523862242698669
1761475845342592300,2.69259228515625,0.08105067163705826,1.4496809244155884,-0.6006801128387451
1761475845352569000,2.702569091796875,0.1573459804058075,1.4297820329666138,-0.5059612989425659
1761475845362546200,2.712546142578125,0.3214417099952698,1.289652705192566,-0.2920530438423157
1761475845372523000,2.72252294921875,0.4782417118549347,1.1452372074127197,0.0047591873444616795
1761475845382500000,2.7325,0.5605896711349487,1.0868535041809082,0.33513343334198
1761475845392477000,2.742476806640625,0.5609250068664551,1.0275189876556396,0.642370343208313
1761475845402455000,2.752455078125,0.48394492268562317,0.9312626719474792,0.9139881134033203
1761475845412432100,2.76243212890625,0.37127137184143066,0.7608699202537537,1.1407767534255981
1761475845422409000,2.772408935546875,0.26269447803497314,0.44754910469055176,1.2722622156143188
1761475845432386000,2.782385986328125,0.178128182888031,0.03660311922430992,1.2994682788848877
1761475845442363100,2.792363037109375,0.16572289168834686,-0.3091810941696167,1.313192367553711
1761475845452340200,2.80234033203125,0.264359712600708,-0.5108955502510071,1.3401339054107666
1761475845462317300,2.8123173828125,0.3439059853553772,-0.5513421893119812,1.3461655378341675
1761475845472294100,2.822294189453125,0.35257962346076965,-0.4782511591911316,1.3040380477905273
1761475845482272300,2.832272216796875,0.26235613226890564,-0.2771468758583069,1.2168489694595337
1761475845492249300,2.842249267578125,0.004129636101424694,-0.002656196244060993,1.141211748123169
1761475845502226200,2.85222607421875,-0.426547646522522,0.03249310329556465,1.0326547622680664
1761475845512203300,2.862203369140625,-0.9870311617851257,-0.1588776558637619,0.8359476327896118
1761475845522180000,2.87218017578125,-1.3941254615783691,-0.4531227648258209,0.6308445334434509
1761475845532157200,2.8821572265625,-1.4858585596084595,-1.1099328994750977,0.34286338090896606
1761475845542134000,2.892134033203125,-1.3278597593307495,-1.78895103931427,-0.06086352467536926
1761475845552111000,2.902111083984375,-0.9274032115936279,-2.2444210052490234,-0.5383632183074951
1761475845562089200,2.912089111328125,-0.44707196950912476,-2.2922348976135254,-1.0931724309921265
1761475845572066000,2.922066162109375,-0.07733121514320374,-1.8163896799087524,-1.6463743448257446
1761475845582043100,2.932043212890625,0.1685216873884201,-1.1503829956054688,-2.2222347259521484
1761475845592020000,2.94202001953125,0.3589520752429962,-0.627855122089386,-2.738539457321167
1761475845601997000,2.9519970703125,0.5165660977363586,-0.1872967779636383,-3.0178403854370117
1761475845611974100,2.96197412109375,0.5716144442558289,0.2944307029247284,-3.047557830810547
1761475845621951000,2.971950927734375,0.5453246831893921,0.7473803758621216,-2.8501007556915283
1761475845631929000,2.98192919921875,0.5633284449577332,0.98479825258255,-2.4759936332702637
1761475845641906000,2.991906005859375,0.6674224138259888,0.9328967928886414,-2.0148348808288574
1761475845651883000,3.001883056640625,0.7778503894805908,0.6467089653015137,-1.560839056968689
1761475845661860400,3.0118603515625,0.7483202815055847,0.3725481629371643,-1.1744815111160278
1761475845671837200,3.021837158203125,0.5345273017883301,0.35945525765419006,-0.846630871295929
1761475845681814300,3.031814208984375,0.2793593406677246,0.6684883832931519,-0.5070033669471741
1761475845691791000,3.041791015625,0.0957953929901123,1.2524964809417725,-0.021235348656773567
1761475845701768200,3.051768310546875,0.043837402015924454,1.791884183883667,0.6231175065040588
1761475845711746300,3.061746337890625,0.0510266050696373,1.9571940898895264,1.3371331691741943
1761475845721723100,3.07172314453125,-0.001897301059216261,1.5961322784423828,1.9545888900756836
1761475845731700200,3.0817001953125,-0.21726180613040924,0.8603022694587708,2.36472225189209
1761475845741677000,3.091677001953125,-0.5534005165100098,-0.03594694286584854,2.6092071533203125
1761475845751654100,3.101654052734375,-0.8395074009895325,-0.9229550957679749,2.7195794582366943
1761475845761631200,3.11163134765625,-0.9903452396392822,-1.6118818521499634,2.6969852447509766
1761475845771608000,3.121608154296875,-1.0565292835235596,-2.05483078956604,2.455420732498169
1761475845781585200,3.131585205078125,-1.0599945783615112,-2.153867244720459,2.0877482891082764
1761475845791563000,3.14156298828125,-0.9957066774368286,-1.968156337738037,1.6723507642745972
1761475845801540000,3.1515400390625,-0.8484688997268677,-1.66339111328125,1.233893632888794
1761475845811517200,3.16151708984375,-0.6474921107292175,-1.3003813028335571,0.8409189581871033
1761475845821494000,3.171493896484375,-0.4449981451034546,-0.900791585445404,0.5502373576164246
1761475845831471000,3.18147119140625,-0.23017239570617676,-0.4817434847354889,0.321772962808609
1761475845841448200,3.1914482421875,-0.04514475166797638,-0.19306188821792603,0.02451547235250473
1761475845851425300,3.20142529296875,0.031841907650232315,-0.1027410477399826,-0.45682239532470703
1761475845861402000,3.211402099609375,0.0042794737964868546,-0.18591603636741638,-1.019482135772705
1761475845871380000,3.2213798828125,-0.04643403738737106,-0.3912510871887207,-1.5557533502578735
1761475845881357300,3.231357421875,-0.058524325489997864,-0.6015908718109131,-1.9775404930114746
1761475845891334100,3.241334228515625,-0.07781865447759628,-0.669517993927002,-2.2002930641174316
1761475845901311200,3.251311279296875,-0.10306204855442047,-0.5602275729179382,-2.1775715351104736
1761475845911288000,3.2612880859375,-0.07072461396455765,-0.2474541813135147,-1.8511399030685425
1761475845921265200,3.27126513671875,0.034341201186180115,0.09833187609910965,-1.2819944620132446
1761475845931242200,3.2812421875,0.23123057186603546,0.30988645553588867,-0.5547967553138733
1761475845941219000,3.291218994140625,0.4965471029281616,0.23975202441215515,0.25883805751800537
1761475845951197200,3.301197265625,0.7111270427703857,-0.2672795057296753,1.071061611175537
1761475845961174300,3.31117431640625,0.7538900375366211,-1.239750862121582,1.7001197338104248
1761475845971151000,3.321151123046875,0.5229225754737854,-2.0359926223754883,2.180614709854126
1761475845981128200,3.331128173828125,0.14718806743621826,-2.186584711074829,2.707564115524292
1761475845991105000,3.34110498046875,-0.29956331849098206,-1.9777003526687622,3.129075050354004
1761475846001082000,3.35108203125,-0.535456657409668,-1.6734702587127686,3.112593650817871
1761475846011059000,3.361058837890625,-0.3292212188243866,-1.474365472793579,2.5001883506774902
1761475846021036000,3.3710361328125,0.13927194476127625,-1.3505573272705078,1.3748334646224976
1761475846031014100,3.38101416015625,0.5054134726524353,-1.16978120803833,-0.04734404385089874
1761475846040991000,3.390990966796875,0.603833019733429,-1.1522186994552612,-1.3885669708251953
1761475846050968000,3.400968017578125,0.46008944511413574,-0.8825539350509644,-2.362624168395996
1761475846060945200,3.410945068359375,0.2343347817659378,-0.3602289855480194,-3.0233187675476074
1761475846070922200,3.420922119140625,0.011025527492165565,0.07962748408317566,-3.3901400566101074
1761475846080899300,3.4308994140625,-0.15801429748535156,0.4682594835758209,-3.3446993827819824
1761475846090876200,3.440876220703125,-0.40603500604629517,0.9668645262718201,-2.8225250244140625
1761475846100853200,3.450853271484375,-0.6352243423461914,1.306978464126587,-2.00099515914917
1761475846110831000,3.4608310546875,-0.6675596237182617,1.0397450923919678,-1.1963210105895996
1761475846120808200,3.47080810546875,-0.6226550936698914,0.4635280668735504,-0.6445194482803345
1761475846130785300,3.480785400390625,-0.5588281750679016,-0.11055012047290802,-0.32195788621902466
1761475846140762000,3.49076220703125,-0.4856347143650055,-0.3827687203884125,-0.09835052490234375
1761475846150739200,3.5007392578125,-0.4350202679634094,-0.38464996218681335,0.007482435554265976
1761475846160716000,3.510716064453125,-0.41977745294570923,-0.23728351294994354,0.021845772862434387
1761475846170693000,3.520693115234375,-0.34382063150405884,0.06546863913536072,0.019077951088547707
1761475846180670000,3.530669921875,-0.21373626589775085,0.5523761510848999,-0.017961515113711357
1761475846190648000,3.54064794921875,-0.07092584669589996,1.086661696434021,-0.0749204084277153
1761475846200625200,3.550625244140625,0.09933768212795258,1.4506150484085083,-0.12002772837877274
1761475846210602000,3.56060205078125,0.27450069785118103,1.499640941619873,-0.15278568863868713
1761475846220579000,3.5705791015625,0.3733389675617218,1.2830647230148315,-0.20751042664051056
1761475846230556200,3.58055615234375,0.3160594403743744,0.9055336117744446,-0.276641309261322
1761475846240533000,3.590532958984375,0.1347895860671997,0.41605550050735474,-0.3449821472167969
1761475846250510300,3.60051025390625,-0.08920435607433319,-0.13690993189811707,-0.36063727736473083
1761475846260487200,3.610487060546875,-0.30998557806015015,-0.5615915060043335,-0.22810475528240204
1761475846270465300,3.62046533203125,-0.4794023036956787,-0.7385399341583252,0.0481494776904583
1761475846280442400,3.6304423828125,-0.5723202228546143,-0.7329445481300354,0.3137205243110657
1761475846290419500,3.64041943359375,-0.5791400074958801,-0.6430593729019165,0.4704030752182007
1761475846300396500,3.650396484375,-0.5137083530426025,-0.45535436272621155,0.5073291659355164
1761475846310373400,3.660373291015625,-0.3972315192222595,-0.2867856025695801,0.44261303544044495
1761475846320350500,3.6703505859375,-0.27090325951576233,-0.2285568118095398,0.32463139295578003
1761475846330327300,3.680327392578125,-0.17906120419502258,-0.2446734607219696,0.2394811064004898
1761475846340304400,3.690304443359375,-0.10241379588842392,-0.32139652967453003,0.2530861794948578
1761475846350282500,3.700282470703125,-0.07764320075511932,-0.4405825734138489,0.35754600167274475
1761475846360259300,3.71025927734375,-0.17263418436050415,-0.5792324542999268,0.46823179721832275
1761475846370236400,3.720236328125,-0.37006017565727234,-0.7581670880317688,0.5240199565887451
1761475846380213500,3.730213623046875,-0.5213481783866882,-0.8163934350013733,0.5731468200683594
1761475846390190300,3.7401904296875,-0.5463573932647705,-0.6883332133293152,0.6503790020942688
1761475846400167400,3.75016748046875,-0.5587817430496216,-0.5194499492645264,0.6910027861595154
1761475846410144300,3.760144287109375,-0.5346804261207581,-0.3456608057022095,0.7958332896232605
1761475846420121300,3.770121337890625,-0.4058285057544708,-0.282741516828537,1.0106066465377808
1761475846430099500,3.780099365234375,-0.24352240562438965,-0.4625120759010315,1.1573636531829834
1761475846440076300,3.790076171875,-0.16679222881793976,-0.8122085332870483,1.1482293605804443
1761475846450053400,3.800053466796875,-0.33963215351104736,-1.2255396842956543,1.1090176105499268
1761475846460030200,3.8100302734375,-0.82337886095047,-1.4601372480392456,1.1486257314682007
1761475846470007300,3.82000732421875,-1.2885899543762207,-1.3079833984375,1.3912419080734253
1761475846479984400,3.829984375,-1.39540696144104,-0.7614480257034302,1.7596577405929565
1761475846489961500,3.83996142578125,-1.1481719017028809,-0.3236916959285736,1.835386037826538
1761475846499938600,3.8499384765625,-0.5834549069404602,-0.2841632068157196,1.5322843790054321
1761475846509916400,3.85991650390625,-0.13135698437690735,-0.5556743741035461,0.9214258193969727
1761475846519893500,3.8698935546875,0.017268028110265732,-0.7100032567977905,0.21397913992404938
1761475846529870300,3.879870361328125,-0.08800913393497467,-0.8095285296440125,-0.3946988582611084
1761475846539847400,3.889847412109375,-0.2527492940425873,-0.8625587821006775,-0.8936808705329895
1761475846549824500,3.899824462890625,-0.3788425028324127,-0.7723721861839294,-1.3560441732406616
1761475846559801300,3.90980126953125,-0.40700212121009827,-0.5686985850334167,-1.7290884256362915
1761475846569778400,3.9197783203125,-0.4044604003429413,-0.253313273191452,-1.999230980873108
1761475846579755300,3.92975537109375,-0.5239113569259644,0.03591989353299141,-2.0420567989349365
1761475846589733400,3.9397333984375,-0.719025731086731,0.14559100568294525,-1.7187037467956543
1761475846599710500,3.94971044921875,-0.8625810146331787,-0.013880956918001175,-1.1264816522598267
1761475846609687300,3.959687255859375,-0.9606737494468689,-0.30459535121917725,-0.6458739638328552
1761475846619664400,3.969664306640625,-1.144848346710205,-0.526538610458374,-0.6427242755889893
1761475846629641200,3.97964111328125,-1.332455039024353,-0.45510196685791016,-0.968431830406189
1761475846639618300,3.989618408203125,-1.349276065826416,-0.01772916316986084,-1.3646557331085205
1761475846649595400,3.999595458984375,-1.1244221925735474,0.560516893863678,-1.664009690284729
1761475846659572500,4.009572509765625,-0.7228793501853943,1.1061201095581055,-1.7332653999328613
1761475846669550300,4.01955029296875,-0.3434526324272156,1.4774686098098755,-1.5328785181045532
1761475846679527200,4.029527099609375,-0.11631270498037338,1.5603801012039185,-1.1843593120574951
1761475846689504500,4.03950439453125,-0.0753980278968811,1.3396093845367432,-0.8116406202316284
1761475846699481600,4.049481689453125,-0.20732659101486206,0.9060266017913818,-0.5058085322380066
1761475846709458400,4.05945849609375,-0.38645532727241516,0.413165807723999,-0.25741738080978394
1761475846719435500,4.069435546875,-0.5423142313957214,-0.011008625850081444,-0.019466476514935493
1761475846729412400,4.079412353515625,-0.6476047039031982,-0.2825882136821747,0.1963246613740921
1761475846739389400,4.089389404296875,-0.6869135499000549,-0.37829574942588806,0.3840256631374359
1761475846749366300,4.0993662109375,-0.663578450679779,-0.3372303545475006,0.533125638961792
1761475846759344400,4.109344482421875,-0.6009966135025024,-0.2053358554840088,0.6349912285804749
1761475846769321500,4.119321533203125,-0.46483904123306274,0.018942780792713165,0.7124423384666443
1761475846779298300,4.12929833984375,-0.2761097252368927,0.34138405323028564,0.7660219669342041
1761475846789275400,4.139275390625,-0.08865994215011597,0.667957603931427,0.7568982243537903
1761475846799252200,4.149252197265625,0.004965255036950111,0.9105849862098694,0.6689794659614563
1761475846809229300,4.159229248046875,0.0046525998041033745,0.9930572509765625,0.5017393827438354
1761475846819206400,4.169206298828125,-0.05646761134266853,0.9155624508857727,0.2799859642982483
1761475846829183200,4.179183349609375,-0.12469913065433502,0.7448314428329468,0.046701304614543915
1761475846839161300,4.189161376953125,-0.13641580939292908,0.5747940540313721,-0.1424250453710556
1761475846849138400,4.199138427734375,-0.10612209141254425,0.49587389826774597,-0.2731463313102722
1761475846859115300,4.209115234375,-0.04479384794831276,0.5500187277793884,-0.31393271684646606
1761475846869092400,4.21909228515625,0.05840471014380455,0.6425079107284546,-0.2410489171743393
1761475846879069400,4.2290693359375,0.19478322565555573,0.6097843050956726,-0.12330339103937149
1761475846889046500,4.239046630859375,0.3658931851387024,0.4872608184814453,0.010422713123261929
1761475846899023400,4.2490234375,0.5528380274772644,0.3621247112751007,0.18847520649433136
1761475846909000400,4.25900048828125,0.5356707572937012,0.14607281982898712,0.37206313014030457
1761475846918978600,4.268978515625,0.2837997376918793,-0.17233680188655853,0.6335932612419128
1761475846928955400,4.278955322265625,0.0658293217420578,-0.44162046909332275,1.1120109558105469
1761475846938932500,4.288932373046875,-0.0065177129581570625,-0.72794109582901,1.7426341772079468
1761475846948909300,4.298909423828125,0.010082835331559181,-1.0319503545761108,2.3203229904174805
1761475846958886400,4.308886474609375,0.0850498378276825,-1.038605809211731,2.6972005367279053
1761475846968863500,4.318863525390625,-0.12656573951244354,-1.1367744207382202,2.5537829399108887
1761475846978841300,4.32884130859375,-0.6650862097740173,-1.5161339044570923,1.8687303066253662
1761475846988818400,4.338818359375,-1.0772476196289062,-2.230189323425293,0.831730306148529
1761475846998795300,4.348795166015625,-1.2662290334701538,-2.9444565773010254,-0.33386459946632385
1761475847008772400,4.3587724609375,-1.0571727752685547,-2.9250450134277344,-1.3512318134307861
1761475847018749400,4.36874951171875,-0.5803154110908508,-2.2848708629608154,-2.1942977905273438
1761475847028726300,4.378726318359375,-0.16858457028865814,-1.1380974054336548,-2.6001346111297607
1761475847038703400,4.388703369140625,-0.11019532382488251,-0.01699754223227501,-2.578958749771118
1761475847048680200,4.39868017578125,-0.43585360050201416,0.7420257329940796,-2.320570230484009
1761475847058658300,4.408658203125,-0.9291157722473145,0.9410099387168884,-1.8092502355575562
1761475847068635400,4.418635498046875,-1.3798000812530518,0.6670894026756287,-1.1396596431732178
1761475847078612200,4.4286123046875,-1.6765249967575073,0.1711839884519577,-0.5463131070137024
1761475847088589300,4.43858935546875,-1.785314917564392,-0.30909794569015503,-0.3103235065937042
1761475847098566400,4.44856640625,-1.7551143169403076,-0.5009871125221252,-0.4363490641117096
1761475847108543500,4.45854345703125,-1.6274425983428955,-0.2937101125717163,-0.7242447137832642
1761475847118520600,4.4685205078125,-1.4112958908081055,0.13994477689266205,-1.0142598152160645
1761475847128497400,4.478497314453125,-1.1528393030166626,0.6474944949150085,-1.1826666593551636
1761475847138475500,4.4884755859375,-0.8854548931121826,1.0720447301864624,-1.130417823791504
1761475847148452400,4.498452392578125,-0.6813246607780457,1.3977904319763184,-0.8901048302650452
1761475847158429400,4.508429443359375,-0.588608980178833,1.596217393875122,-0.5723462104797363
1761475847168406500,4.518406494140625,-0.6199035048484802,1.6777184009552002,-0.32454708218574524
1761475847178383400,4.52838330078125,-0.7479928731918335,1.5764782428741455,-0.21589398384094238
1761475847188360400,4.5383603515625,-0.8650196194648743,1.2828130722045898,-0.15654411911964417
1761475847198337300,4.548337158203125,-0.8732962608337402,0.9253286123275757,-0.048069924116134644
1761475847208314400,4.558314453125,-0.7929806709289551,0.5560320615768433,0.12816528975963593
1761475847218292500,4.56829248046875,-0.7352458238601685,0.2546737790107727,0.34111663699150085
1761475847228269300,4.578269287109375,-0.7504359483718872,0.08443064987659454,0.5887176394462585
1761475847238246400,4.588246337890625,-0.820009171962738,0.019771069288253784,0.8064616918563843
1761475847248223200,4.59822314453125,-0.9073100090026855,0.0306338369846344,0.9638784527778625
1761475847258200300,4.608200439453125,-1.0584620237350464,0.10361073166131973,1.0854978561401367
1761475847268177000,4.618177001953125,-1.2619293928146362,0.20225846767425537,1.182306170463562
1761475847278153700,4.62815380859375,-1.4376978874206543,0.27455562353134155,1.2378530502319336
1761475847288130800,4.638130859375,-1.5586602687835693,0.2717190980911255,1.228405237197876
1761475847298109000,4.64810888671875,-1.5995240211486816,0.15893390774726868,1.1566216945648193
1761475847308085800,4.658085693359375,-1.5068672895431519,0.030004426836967468,0.9992877244949341
1761475847318062800,4.668062744140625,-1.2747889757156372,-0.03325091674923897,0.7875725030899048
1761475847328039700,4.678039794921875,-0.9764362573623657,-0.00828484632074833,0.6019890904426575
1761475847338016800,4.688016845703125,-0.742325484752655,0.11234286427497864,0.5009024143218994
1761475847347993600,4.69799365234375,-0.537456750869751,0.20427678525447845,0.49648424983024597
1761475847357970700,4.707970703125,-0.4393148124217987,0.2498614341020584,0.611587405204773
1761475847367947800,4.71794775390625,-0.4716764986515045,0.3875039517879486,0.9604173302650452
1761475847377924600,4.727924560546875,-0.5602167844772339,0.5751388072967529,1.4313734769821167
1761475847387902700,4.73790283203125,-0.6930357813835144,0.6607823371887207,1.7905268669128418
1761475847397879800,4.7478798828125,-0.814643383026123,0.4994138479232788,1.9795703887939453
1761475847407856600,4.757856689453125,-0.8864672183990479,0.16994193196296692,2.0705034732818604
1761475847417833700,4.767833740234375,-0.9878150224685669,-0.28988754749298096,2.0961689949035645
1761475847427810600,4.777810546875,-1.03628408908844,-0.3653021454811096,2.2610087394714355
1761475847437787600,4.78778759765625,-0.8842409253120422,0.2748783826828003,2.7477004528045654
1761475847447764700,4.7977646484375,-0.9596102237701416,0.5728738307952881,2.8418402671813965
1761475847457741800,4.807741943359375,-1.0722893476486206,0.39247050881385803,2.3499388694763184
1761475847467719700,4.8177197265625,-1.0365347862243652,0.17741943895816803,1.5869814157485962
1761475847477696800,4.82769677734375,-1.0841712951660156,-0.3225613832473755,0.5041045546531677
1761475847487673900,4.837673828125,-1.0929187536239624,-1.0266058444976807,-0.7838363647460938
1761475847497650700,4.847650634765625,-1.038820505142212,-1.4565354585647583,-1.8595267534255981
1761475847507627800,4.857627685546875,-0.9437900185585022,-1.580222249031067,-2.4011008739471436
1761475847517604900,4.86760498046875,-0.8590190410614014,-1.498880386352539,-2.323383331298828
1761475847527581700,4.877581787109375,-0.8758334517478943,-1.3890657424926758,-1.8005316257476807
1761475847537558800,4.887558837890625,-0.9781795740127563,-1.3988837003707886,-1.0218883752822876
1761475847547536600,4.89753662109375,-1.089443325996399,-1.3736244440078735,-0.2910885810852051
1761475847557513700,4.907513671875,-1.2506428956985474,-1.3188496828079224,0.025830164551734924
1761475847567490800,4.91749072265625,-1.3828315734863281,-1.286312222480774,-0.0963577926158905
1761475847577467600,4.927467529296875,-1.3759922981262207,-1.1685104370117188,-0.4450390338897705
1761475847587444700,4.93744482421875,-1.2153218984603882,-0.9060255885124207,-0.8281912207603455
1761475847597421600,4.947421630859375,-0.9425340890884399,-0.5883215665817261,-1.1161940097808838
1761475847607398700,4.957398681640625,-0.5961465835571289,-0.21350692212581635,-1.191348671913147
1761475847617375500,4.96737548828125,-0.2573288381099701,0.1682322919368744,-1.1136300563812256
1761475847627352800,4.977352783203125,-0.029720686376094818,0.38139623403549194,-0.9272984266281128
1761475847637330700,4.98733056640625,0.07664301991462708,0.38040322065353394,-0.6874251365661621
1761475847647307500,4.9973076171875,0.09216205775737762,0.16534526646137238,-0.3949836492538452
1761475847657284900,5.007284912109375,0.043287426233291626,-0.19398698210716248,-0.07165259122848511
1761475847667262000,5.017261962890625,-0.05291713401675224,-0.5993224382400513,0.2621501386165619
1761475847677238800,5.02723876953125,-0.1613190621137619,-0.9343824982643127,0.5757071375846863
1761475847687215900,5.0372158203125,-0.2508510649204254,-1.1208388805389404,0.8178036212921143
1761475847697192700,5.047192626953125,-0.3057081997394562,-1.1409766674041748,0.9689505696296692
1761475847707169800,5.057169677734375,-0.32965293526649475,-1.045005440711975,0.9763765335083008
1761475847717148000,5.06714794921875,-0.33140307664871216,-0.8824021220207214,0.8403627872467041
1761475847727124700,5.077124755859375,-0.3080993592739105,-0.6314197182655334,0.6321957111358643
1761475847737101800,5.087101806640625,-0.2792346775531769,-0.3061615824699402,0.4488901197910309
1761475847747078700,5.09707861328125,-0.28234046697616577,0.03745941445231438,0.37469711899757385
1761475847757055700,5.1070556640625,-0.2961288094520569,0.3974152207374573,0.4198951721191406
1761475847767032600,5.117032470703125,-0.33010169863700867,0.7448475360870361,0.49420028924942017
1761475847777009700,5.127009765625,-0.4424274265766144,0.9863011837005615,0.520892322063446
1761475847786986800,5.13698681640625,-0.6151467561721802,1.148119330406189,0.5123265385627747
1761475847796964600,5.146964599609375,-0.7325491905212402,1.3049486875534058,0.4993375241756439
1761475847806941700,5.156941650390625,-0.7164245247840881,1.4316136837005615,0.47494348883628845
1761475847816918500,5.16691845703125,-0.6552252769470215,1.4652801752090454,0.4265215992927551
1761475847826895600,5.1768955078125,-0.5296330451965332,1.5082582235336304,0.4384176731109619
1761475847836872700,5.186872802734375,-0.44024547934532166,1.597185730934143,0.5694167017936707
1761475847846849800,5.196849853515625,-0.44966161251068115,1.66557776927948,0.8086287379264832
1761475847856827000,5.206826904296875,-0.5739543437957764,1.6336948871612549,0.9586263298988342
1761475847866803700,5.2168037109375,-0.8884838223457336,1.1645703315734863,0.891390860080719
1761475847876781800,5.22678173828125,-1.2620383501052856,0.3680322766304016,0.8215375542640686
1761475847886759000,5.236759033203125,-1.332852840423584,0.00776755902916193,1.0005323886871338
1761475847896735700,5.24673583984375,-1.1965821981430054,0.06826909631490707,1.2394158840179443
1761475847906712800,5.256712890625,-0.9961932301521301,0.26325616240501404,1.2954951524734497
1761475847916689700,5.266689697265625,-0.6533128023147583,0.392335444688797,1.0516180992126465
1761475847926666800,5.276666748046875,-0.3157137632369995,0.03048720397055149,0.40848731994628906
1761475847936643800,5.286643798828125,-0.15503062307834625,-0.7223919630050659,-0.5344287157058716
1761475847946620700,5.29662060546875,-0.10377675294876099,-0.9760575294494629,-1.2823452949523926
1761475847956597800,5.30659765625,-0.028147723525762558,-0.6614894866943359,-1.6128125190734863
1761475847966575600,5.31657568359375,0.013595194555819035,-0.2782960534095764,-1.6539669036865234
1761475847976552700,5.326552734375,-0.03959638625383377,-0.22609291970729828,-1.5071638822555542
1761475847986529800,5.33652978515625,-0.18555039167404175,-0.45007672905921936,-1.118788242340088
1761475847996506600,5.346506591796875,-0.32374513149261475,-0.8190289735794067,-0.569865345954895
1761475848006483700,5.356483642578125,-0.3995882272720337,-1.2101070880889893,-0.11746860295534134
1761475848016460500,5.36646044921875,-0.41613030433654785,-1.4817007780075073,0.03937816619873047
1761475848026437600,5.376437744140625,-0.33868879079818726,-1.5791785717010498,-0.07088042795658112
1761475848036414700,5.386414794921875,-0.1224663183093071,-1.4339271783828735,-0.31386640667915344
1761475848046392600,5.396392578125,0.16442909836769104,-1.1037607192993164,-0.6111028790473938
1761475848056369700,5.40636962890625,0.45339006185531616,-0.6904621720314026,-0.8828747272491455
1761475848066346800,5.4163466796875,0.6978690028190613,-0.12962359189987183,-1.0277106761932373
1761475848076323800,5.42632373046875,0.8754093647003174,0.5218539834022522,-1.0791207551956177
1761475848086300700,5.43630078125,0.9824360013008118,0.9847580194473267,-1.0836167335510254
1761475848096277800,5.44627783203125,1.0249803066253662,1.1875126361846924,-1.0298818349838257
1761475848106254800,5.4562548828125,1.0411651134490967,1.1371389627456665,-0.9050664305686951
1761475848116231700,5.466231689453125,1.0355522632598877,0.8138028979301453,-0.7408463358879089
1761475848126208800,5.476208740234375,1.0295300483703613,0.25289618968963623,-0.5466102957725525
1761475848136187000,5.486186767578125,1.0062042474746704,-0.3014390170574188,-0.35729947686195374
1761475848146163700,5.496163818359375,0.9924415349960327,-0.6791669130325317,-0.1502203345298767
1761475848156140800,5.506140869140625,1.0249271392822266,-0.8086322546005249,0.06545373797416687
1761475848166117600,5.51611767578125,1.1000192165374756,-0.7387964725494385,0.24831676483154297
1761475848176094700,5.5260947265625,1.1713389158248901,-0.5283532738685608,0.3977983295917511
1761475848186071600,5.536071533203125,1.2100212574005127,-0.23961682617664337,0.5098001956939697
1761475848196048600,5.546048583984375,1.19781494140625,0.06218212470412254,0.6002072691917419
1761475848206025700,5.556025634765625,1.1082030534744263,0.3586806058883667,0.6405386924743652
1761475848216003600,5.566003662109375,0.9163840413093567,0.5878510475158691,0.6156745553016663
1761475848225980700,5.575980712890625,0.6730890870094299,0.7611506581306458,0.5380687117576599
1761475848235957500,5.58595751953125,0.4721938669681549,0.8542287945747375,0.4440367817878723
1761475848245934800,5.595934814453125,0.3680054247379303,0.8204798698425293,0.34574854373931885
1761475848255912000,5.605911865234375,0.38699108362197876,0.6385553479194641,0.2604880928993225
1761475848265889300,5.61588916015625,0.40822288393974304,0.37444570660591125,0.21574991941452026
1761475848275866400,5.625866455078125,0.3510558605194092,0.12444070726633072,0.3003166913986206
1761475848285843500,5.635843505859375,0.2700486183166504,0.008907454088330269,0.6119398474693298
1761475848295821300,5.6458212890625,0.06750058382749557,0.06473773717880249,1.0866390466690063
1761475848305798400,5.65579833984375,-0.0917963981628418,0.2599160075187683,1.6007095575332642
1761475848315775500,5.665775390625,-0.1554756909608841,0.3709190785884857,2.0308024883270264
1761475848325752300,5.67575244140625,-0.3404900133609772,0.003092598170042038,2.224670648574829
1761475848335729400,5.6857294921875,-0.6031296253204346,-0.5488520264625549,2.3153624534606934
1761475848345706500,5.69570654296875,-0.7866589426994324,-0.8433409333229065,2.41227126121521
1761475848355683300,5.705683349609375,-0.7373157143592834,-0.5352798700332642,2.3729567527770996
1761475848365660400,5.715660400390625,-0.6216029524803162,0.2372152954339981,1.9630420207977295
1761475848375638300,5.72563818359375,-0.43501007556915283,1.1422584056854248,1.3256148099899292
1761475848385615400,5.735615478515625,-0.020408909767866135,1.6665632724761963,0.7065622806549072
1761475848395592400,5.745592529296875,0.3720461130142212,1.4869800806045532,0.041382547467947006
1761475848405569300,5.7555693359375,0.7875450849533081,1.0007050037384033,-0.6065099239349365
1761475848415546400,5.76554638671875,1.172562599182129,0.6233998537063599,-0.9912316799163818
1761475848425523200,5.775523193359375,1.4526903629302979,0.356831818819046,-1.1262829303741455
1761475848435500300,5.785500244140625,1.510149359703064,0.06566361337900162,-1.0871047973632812
1761475848445477000,5.79547705078125,1.3502025604248047,-0.3453066051006317,-0.9749801754951477
1761475848455454500,5.805454345703125,1.081250548362732,-0.8229643702507019,-0.8759747743606567
1761475848465432300,5.815432373046875,0.8471181392669678,-1.2231141328811646,-0.8242444396018982
1761475848475409200,5.8254091796875,0.7670667171478271,-1.3718135356903076,-0.8357398509979248
1761475848485386500,5.835386474609375,0.86404949426651,-1.1738418340682983,-0.9588127732276917
1761475848495363300,5.84536328125,1.0588147640228271,-0.7590880990028381,-1.2068712711334229
1761475848505340400,5.85534033203125,1.2987722158432007,-0.3313066363334656,-1.4894622564315796
1761475848515317500,5.8653173828125,1.54168701171875,0.02147623524069786,-1.7104684114456177
1761475848525294300,5.87529443359375,1.6936147212982178,0.33189746737480164,-1.785315752029419
1761475848535271400,5.885271484375,1.7526897192001343,0.595086395740509,-1.6959670782089233
1761475848545248300,5.895248291015625,1.7486891746520996,0.7787294983863831,-1.4682053327560425
1761475848555226400,5.905226318359375,1.71805739402771,0.8293883204460144,-1.1613273620605469
1761475848565203500,5.915203369140625,1.6553758382797241,0.7340274453163147,-0.870959997177124
1761475848575180300,5.92518017578125,1.5535273551940918,0.5035375952720642,-0.6233510971069336
1761475848585157400,5.935157470703125,1.3934191465377808,0.18190787732601166,-0.4149813652038574
1761475848595134200,5.94513427734375,1.2249246835708618,-0.150820791721344,-0.2518772780895233
1761475848605111300,5.955111328125,1.085999608039856,-0.35810527205467224,-0.12422610074281693
1761475848615088400,5.96508837890625,0.9544004797935486,-0.40421363711357117,-0.03664512187242508
1761475848625065200,5.975065185546875,0.8337603807449341,-0.26671624183654785,0.008075478486716747
1761475848635043300,5.985043212890625,0.7342541813850403,0.010912325233221054,-0.009864402934908867
1761475848645020200,5.995020263671875,0.6415849924087524,0.3736894428730011,-0.07822562009096146
1761475848654997200,6.004997314453125,0.5414344668388367,0.7767075300216675,-0.1254790723323822
1761475848664974300,6.014974365234375,0.48380953073501587,1.161234974861145,-0.1213783323764801
1761475848674951400,6.024951416015625,0.433369904756546,1.3719717264175415,-0.0891508087515831
1761475848684928500,6.034928466796875,0.35930952429771423,1.3315298557281494,-0.06548170000314713
1761475848694905300,6.0449052734375,0.29190492630004883,1.1040165424346924,-0.03891107439994812
1761475848704882400,6.05488232421875,0.27451473474502563,0.8310070633888245,0.007518209982663393
1761475848714860500,6.064860595703125,0.3384556770324707,0.5757960677146912,0.1287473887205124
1761475848724837400,6.07483740234375,0.3985738754272461,0.46557852625846863,0.327582448720932
1761475848734814500,6.084814453125,0.32623720169067383,0.5642984509468079,0.5854771137237549
1761475848744791300,6.094791259765625,0.2100812792778015,0.7376523613929749,0.8995833992958069
1761475848754768400,6.104768310546875,0.208168163895607,0.9661087393760681,1.2645108699798584
1761475848764745200,6.1147451171875,0.22811736166477203,1.138026237487793,1.5830552577972412
1761475848774722300,6.124722412109375,0.206381157040596,1.2002209424972534,1.7809114456176758
1761475848784699400,6.134699462890625,0.2182316929101944,1.1589957475662231,1.9125714302062988
1761475848794676200,6.14467626953125,0.14655908942222595,0.8956412076950073,1.8856812715530396
1761475848804654300,6.154654296875,-0.009784180670976639,0.5304730534553528,1.6862927675247192
1761475848814631400,6.16463134765625,-0.13300204277038574,0.41297098994255066,1.373646855354309
1761475848824608300,6.174608154296875,-0.1485636830329895,0.33887147903442383,0.8544635772705078
1761475848834585300,6.18458544921875,0.12051496654748917,0.1591772735118866,0.1435965597629547
1761475848844562200,6.194562255859375,0.629713773727417,-0.10750582069158554,-0.5540757179260254
1761475848854539500,6.20453955078125,1.0836820602416992,-0.3867451250553131,-1.0953243970870972
1761475848864516400,6.214516357421875,1.3800439834594727,-0.3191612958908081,-1.3682597875595093
1761475848874493400,6.224493408203125,1.4413952827453613,-0.02197861671447754,-1.3979077339172363
1761475848884470500,6.234470458984375,1.2995270490646362,0.28620293736457825,-1.2604904174804688
1761475848894448400,6.244448486328125,1.0184190273284912,0.23619864881038666,-1.1591763496398926
1761475848904425500,6.254425537109375,0.5957117676734924,-0.2874983847141266,-1.1837154626846313
1761475848914402300,6.26440234375,0.21298666298389435,-1.127970576286316,-1.2381352186203003
1761475848924379400,6.27437939453125,0.0032882951200008392,-2.022149085998535,-1.2661473751068115
1761475848934356500,6.2843564453125,0.004233401268720627,-2.7481892108917236,-1.3346680402755737
1761475848944333300,6.294333251953125,0.18276134133338928,-3.0906455516815186,-1.5351992845535278
1761475848954310400,6.304310302734375,0.5049014687538147,-2.979874610900879,-1.8729957342147827
1761475848964287200,6.314287353515625,0.8945406079292297,-2.5108530521392822,-2.2292850017547607
1761475848974265300,6.324265380859375,1.156388759613037,-1.7459230422973633,-2.4714183807373047
1761475848984242400,6.334242431640625,1.1964679956436157,-0.846409797668457,-2.5201942920684814
1761475848994219300,6.34421923828125,1.102160930633545,-0.03792370855808258,-2.3167383670806885
1761475849004196400,6.3541962890625,1.0198229551315308,0.4591560959815979,-1.8649910688400269
1761475849014173200,6.364173095703125,1.0617889165878296,0.5746074318885803,-1.2289299964904785
1761475849024150300,6.374150390625,1.183152437210083,0.4468870162963867,-0.5050897598266602
1761475849034127400,6.38412744140625,1.2924747467041016,0.2093641608953476,0.17804758250713348
1761475849044104400,6.3941044921875,1.2988293170928955,-0.026866214349865913,0.7444153428077698
1761475849054081500,6.40408154296875,1.1655713319778442,-0.2653518319129944,1.1374144554138184
1761475849064059100,6.41405908203125,0.9315863251686096,-0.4619162976741791,1.3586821556091309
1761475849074036500,6.424036376953125,0.6797754764556885,-0.5697767734527588,1.4166021347045898
1761475849084013600,6.434013671875,0.4520672857761383,-0.5581477880477905,1.3391283750534058
1761475849093990400,6.443990478515625,0.26193132996559143,-0.38891053199768066,1.1439199447631836
1761475849103967500,6.453967529296875,0.13565009832382202,-0.10224416106939316,0.8726435899734497
1761475849113944300,6.4639443359375,0.08453501015901566,0.2508224546909332,0.5854806900024414
1761475849123921400,6.47392138671875,0.07931867986917496,0.6295257806777954,0.3252272605895996
1761475849133898200,6.483898193359375,0.12251044064760208,0.9456077814102173,0.11841598898172379
1761475849143876400,6.49387646484375,0.19207167625427246,1.1168378591537476,-0.037142444401979446
1761475849153853400,6.503853515625,0.26977500319480896,1.153559923171997,-0.11918006092309952
1761475849163830300,6.513830322265625,0.33089959621429443,1.0408421754837036,-0.16518110036849976
1761475849173807400,6.523807373046875,0.3603302538394928,0.8164997696876526,-0.1558850109577179
1761475849183784200,6.5337841796875,0.3327912986278534,0.5394580364227295,-0.07524263113737106
1761475849193761300,6.54376123046875,0.2820058763027191,0.286038339138031,0.06469716131687164
1761475849203738400,6.55373828125,0.18618163466453552,0.11093229055404663,0.2637231647968292
1761475849213715200,6.563715087890625,0.05466147139668465,0.0272288229316473,0.5240784883499146
1761475849223692500,6.573692626953125,0.0064135147258639336,0.0777234211564064,0.8994255065917969
1761475849233670100,6.583670166015625,0.04912109673023224,0.29340362548828125,1.438391089439392
1761475849243647200,6.593647216796875,0.19616007804870605,0.455448716878891,1.948777675628662
1761475849253624300,6.603624267578125,0.3518659770488739,0.33990684151649475,2.2025306224823
1761475849263600600,6.6136005859375,0.4130537211894989,0.10459231585264206,2.2173306941986084
1761475849273577500,6.623577392578125,0.32219231128692627,-0.08644773066043854,2.217385768890381
1761475849283554600,6.633554443359375,0.056576866656541824,-0.1605672389268875,2.2627668380737305
1761475849293531400,6.643531494140625,-0.21582305431365967,-0.13551445305347443,2.2292444705963135
1761475849303508500,6.653508544921875,-0.2931615114212036,0.042607881128787994,2.1088249683380127
1761475849313485300,6.6634853515625,0.06289369612932205,0.12029799073934555,1.84077787399292
1761475849323463400,6.67346337890625,0.6129371523857117,0.07022497057914734,1.347482681274414
1761475849333440500,6.6834404296875,1.0787583589553833,0.3909700810909271,0.8467658162117004
1761475849343417300,6.693417236328125,1.274853229522705,0.862499475479126,0.3718608021736145
1761475849353394400,6.70339453125,1.2503390312194824,1.131333827972412,-0.04494339972734451
1761475849363371300,6.713371337890625,1.160946249961853,1.0980198383331299,-0.3655373752117157
1761475849373348400,6.723348388671875,1.0899150371551514,0.7504138350486755,-0.6282042860984802
1761475849383325700,6.73332568359375,1.0431833267211914,0.2685062885284424,-0.8431682586669922
1761475849393302500,6.743302490234375,1.0009799003601074,-0.08417749404907227,-1.0243934392929077
1761475849403279600,6.753279541015625,0.9572345614433289,-0.30598336458206177,-1.2376424074172974
1761475849413257500,6.763257568359375,0.9445645213127136,-0.4551399052143097,-1.492431640625
1761475849423234600,6.773234619140625,0.943569004535675,-0.5253640413284302,-1.7300639152526855
1761475849433211600,6.783211669921875,0.9603919982910156,-0.5228493809700012,-1.899970293045044
1761475849443188500,6.7931884765625,0.9499247074127197,-0.41016969084739685,-1.9829274415969849
1761475849453165600,6.80316552734375,0.8873511552810669,-0.14410971105098724,-1.9959430694580078
1761475849463142400,6.813142333984375,0.771446943283081,0.22339560091495514,-1.971853494644165
1761475849473119500,6.823119384765625,0.6997718214988708,0.6107141971588135,-1.870917797088623
1761475849483096300,6.833096435546875,0.7243189811706543,0.9269163608551025,-1.668257713317871
1761475849493073400,6.843073486328125,0.7814544439315796,1.0546354055404663,-1.4048055410385132
1761475849503051500,6.853051513671875,0.8216000199317932,0.9718590974807739,-1.1096324920654297
1761475849513028400,6.8630283203125,0.8000129461288452,0.738951563835144,-0.79507976770401
1761475849523005400,6.87300537109375,0.6994445323944092,0.4031889736652374,-0.5159698724746704
1761475849532982500,6.882982421875,0.5174561738967896,0.07739638537168503,-0.3141763508319855
1761475849542959400,6.89295947265625,0.2941077947616577,-0.13665544986724854,-0.1564098596572876
1761475849552936400,6.9029365234375,0.10941024124622345,-0.22113727033138275,-0.02339182235300541
1761475849562913500,6.91291357421875,0.004714983515441418,-0.17674130201339722,0.09216486662626266
1761475849572890600,6.922890625,-0.056430213153362274,-0.04074602574110031,0.18240684270858765
1761475849582867500,6.932867431640625,-0.08037842065095901,0.15213021636009216,0.238807812333107
1761475849592845300,6.94284521484375,-0.07474534213542938,0.36109456419944763,0.24188248813152313
1761475849602822700,6.95282275390625,-0.0559317022562027,0.5292766690254211,0.2117176651954651
1761475849612799500,6.962799560546875,-0.03441229835152626,0.6677026748657227,0.18459442257881165
1761475849622776600,6.972776611328125,0.0059899864718317986,0.7349070310592651,0.1603066623210907
1761475849632753400,6.98275341796875,0.005621540360152721,0.7110087275505066,0.11592476069927216
1761475849642730500,6.99273046875,-0.02787277102470398,0.5975415706634521,0.08210688084363937
1761475849652707600,7.00270751953125,-0.027448778972029686,0.5565630793571472,0.17755241692066193
1761475849662684400,7.012684326171875,-0.005724308546632528,0.7728500962257385,0.463285893201828
1761475849672661500,7.02266162109375,0.04847744479775429,1.0845239162445068,0.8812732696533203
1761475849682639400,7.032639404296875,0.09780237823724747,1.318373680114746,1.3580642938613892
1761475849692616400,7.042616455078125,0.06459442526102066,1.4929554462432861,1.84183669090271
1761475849702593500,7.052593505859375,0.00510047422721982,1.4160583019256592,2.222954034805298
1761475849712570400,7.0625703125,-0.18638058006763458,0.772533118724823,2.3035695552825928
1761475849722547500,7.07254736328125,-0.5321885943412781,-0.21208572387695312,2.104478359222412
1761475849732524300,7.082524169921875,-0.7431262731552124,-0.7468353509902954,2.0623531341552734
1761475849742501400,7.09250146484375,-0.7226100564002991,-0.49106189608573914,2.3291728496551514
1761475849752478500,7.102478515625,-0.6037957668304443,0.2234610766172409,2.631176471710205
1761475849762456300,7.112456298828125,-0.4830235540866852,0.8357020616531372,2.656144857406616
1761475849772433400,7.122433349609375,-0.13995151221752167,1.20706307888031,2.389652729034424
1761475849782410500,7.132410400390625,0.1862678825855255,1.0476760864257812,1.7617498636245728
1761475849792387600,7.1423876953125,0.3481208384037018,0.6584314107894897,0.8471938967704773
1761475849802364700,7.15236474609375,0.39980798959732056,0.2900552451610565,-0.1637820154428482
1761475849812341500,7.162341552734375,0.351882666349411,-0.041028108447790146,-1.1017842292785645
1761475849822318600,7.172318603515625,0.3162357211112976,-0.0868896022439003,-1.7847980260849
1761475849832295400,7.18229541015625,0.331293523311615,0.05913993716239929,-2.1417529582977295
1761475849842272500,7.1922724609375,0.31618010997772217,0.20265048742294312,-2.2686986923217773
1761475849852250600,7.202250732421875,0.20528064668178558,0.3383956253528595,-2.2682127952575684
1761475849862227500,7.2122275390625,-0.027232496067881584,0.32716721296310425,-2.2198948860168457
1761475849872204500,7.22220458984375,-0.30709409713745117,0.1023872122168541,-2.184459686279297
1761475849882181400,7.232181396484375,-0.5313567519187927,-0.2763177454471588,-2.1341795921325684
1761475849892158500,7.242158447265625,-0.6055642366409302,-0.6734407544136047,-2.0120136737823486
1761475849902135300,7.25213525390625,-0.4946073591709137,-0.9155455231666565,-1.7660679817199707
1761475849912112400,7.2621123046875,-0.264877051115036,-0.9150541424751282,-1.3922863006591797
1761475849922089500,7.27208935546875,-0.04389379918575287,-0.6870726943016052,-0.9603987336158752
1761475849932066600,7.282066650390625,0.12438071519136429,-0.3399081826210022,-0.5834323167800903
1761475849942044400,7.29204443359375,0.2357035130262375,-0.03662339597940445,-0.3350400924682617
1761475849952021200,7.302021240234375,0.3336082994937897,0.08079414814710617,-0.18909096717834473
1761475849961998300,7.311998291015625,0.4182094633579254,0.01941361278295517,-0.10848107188940048
1761475849971975700,7.3219755859375,0.4261746108531952,-0.21341530978679657,-0.05011767894029617
1761475849981952500,7.331952392578125,0.36111438274383545,-0.509204089641571,-0.03609507158398628
1761475849991929600,7.3419296875,0.27473267912864685,-0.7351129055023193,-0.04847957566380501
1761475850001906400,7.351906494140625,0.21370072662830353,-0.8161784410476685,-0.10747843980789185
1761475850011883500,7.361883544921875,0.12844502925872803,-0.7776340246200562,-0.23412448167800903
1761475850021860400,7.3718603515625,0.05276704579591751,-0.6171907782554626,-0.36250296235084534
1761475850031838500,7.38183837890625,-0.021914131939411163,-0.3378349542617798,-0.4260121285915375
1761475850041815600,7.391815673828125,-0.10467425733804703,0.008580779656767845,-0.40239548683166504
1761475850051792400,7.40179248046875,-0.13888946175575256,0.3184792995452881,-0.2625731825828552
1761475850061769500,7.41176953125,-0.11286851018667221,0.5649950504302979,-0.026671718806028366
1761475850071746600,7.42174658203125,-0.05129989981651306,0.5788126587867737,0.21957062184810638
1761475850081723400,7.431723388671875,-0.034465257078409195,0.33668845891952515,0.3781173825263977
1761475850091700500,7.441700439453125,-0.11700466275215149,0.014562824741005898,0.43096375465393066
1761475850101677300,7.45167724609375,-0.261363685131073,-0.2862180471420288,0.44832703471183777
1761475850111654400,7.461654296875,-0.36214569211006165,-0.48216331005096436,0.4081772267818451
1761475850121632500,7.471632568359375,-0.3453419506549835,-0.6037241220474243,0.352708637714386
1761475850131609300,7.481609375,-0.21127720177173615,-0.6264516711235046,0.3974671959877014
1761475850141586400,7.49158642578125,-0.020990347489714622,-0.5056043267250061,0.56717848777771
1761475850151563500,7.5015634765625,0.22090917825698853,-0.24434532225131989,0.8501383662223816
1761475850161540600,7.51154052734375,0.47327351570129395,0.11164101213216782,1.1627769470214844
1761475850171517400,7.521517333984375,0.6648764610290527,0.42441093921661377,1.392579436302185
1761475850181494500,7.53149462890625,0.7434008121490479,0.4151167869567871,1.4636719226837158
1761475850191471600,7.5414716796875,0.5488021373748779,0.0382474847137928,1.350288987159729
1761475850201448400,7.551448486328125,0.13644284009933472,-0.5179334282875061,1.1641364097595215
1761475850211426600,7.561426513671875,-0.2304716259241104,-0.8702640533447266,1.2108147144317627
1761475850221403400,7.5714033203125,-0.41827723383903503,-0.7613287568092346,1.6130214929580688
1761475850231380500,7.58138037109375,-0.4155762195587158,-0.4279833734035492,2.081826686859131
1761475850241357600,7.591357666015625,-0.32947224378585815,-0.271503746509552,2.2284555435180664
1761475850251334400,7.60133447265625,-0.047257471829652786,-0.23267722129821777,2.1161046028137207
1761475850261311500,7.6113115234375,0.35471928119659424,-0.4765583276748657,1.6841531991958618
1761475850271289000,7.6212890625,0.6709742546081543,-0.9580835700035095,0.8493526577949524
1761475850281266200,7.63126611328125,0.8461665511131287,-1.2440098524093628,-0.10671497136354446
1761475850291243000,7.641242919921875,0.8942523002624512,-1.2218031883239746,-0.9954696893692017
1761475850301221000,7.65122119140625,0.8489567041397095,-0.6920507550239563,-1.685666561126709
1761475850311198000,7.661197998046875,0.7421634197235107,0.14167475700378418,-2.0905089378356934
1761475850321175000,7.671175048828125,0.5153332352638245,0.9243170619010925,-2.2413368225097656
1761475850331152100,7.681152099609375,0.19946865737438202,1.41570246219635,-2.2703773975372314
1761475850341129000,7.69112890625,-0.12294293940067291,1.4607384204864502,-2.238743782043457
1761475850351106000,7.70110595703125,-0.3902961313724518,1.1115275621414185,-2.0589942932128906
1761475850361083100,7.711083251953125,-0.4847555160522461,0.5532581210136414,-1.7142106294631958
1761475850371060200,7.721060302734375,-0.3687582015991211,0.004494955763220787,-1.2815691232681274
1761475850381037000,7.731037109375,-0.14733101427555084,-0.2405930906534195,-0.8337461352348328
1761475850391015200,7.74101513671875,-0.01359148696064949,-0.12270480394363403,-0.43052938580513
1761475850400992300,7.7509921875,0.02738603949546814,0.13390406966209412,-0.113576740026474
1761475850410969000,7.760968994140625,0.02389584667980671,0.3651512563228607,0.11499840766191483
1761475850420946200,7.7709462890625,0.01800280436873436,0.4244726300239563,0.22766689956188202
1761475850430923000,7.780923095703125,0.05019897595047951,0.2805609405040741,0.2334701120853424
1761475850440900000,7.790900146484375,0.14923980832099915,0.03150266036391258,0.1939442753791809
1761475850450877200,7.800877197265625,0.2924457788467407,-0.3007532060146332,0.12553328275680542
1761475850460854000,7.81085400390625,0.3812105357646942,-0.5808189511299133,-0.007777095772325993
1761475850470831000,7.8208310546875,0.42482274770736694,-0.6781217455863953,-0.15748527646064758
1761475850480808000,7.830807861328125,0.42467227578163147,-0.49407678842544556,-0.2932378053665161
1761475850490786000,7.8407861328125,0.3478434383869171,-0.052939411252737045,-0.41834649443626404
1761475850500763100,7.85076318359375,0.20047101378440857,0.43853524327278137,-0.5154001116752625
1761475850510740000,7.860739990234375,0.031120840460062027,0.8331437110900879,-0.5581589937210083
1761475850520717000,7.870717041015625,-0.114842489361763,1.0464880466461182,-0.5154842138290405
1761475850530694000,7.88069384765625,-0.21304400265216827,1.0608506202697754,-0.3991072475910187
1761475850540671200,7.890671142578125,-0.29382142424583435,0.8795214891433716,-0.20823074877262115
1761475850550648300,7.9006484375,-0.3821027874946594,0.5200183987617493,0.017041966319084167
1761475850560625200,7.910625244140625,-0.49290624260902405,0.11237896978855133,0.2442210465669632
1761475850570603000,7.92060302734375,-0.6078773140907288,-0.2782135009765625,0.4920860528945923
1761475850580579000,7.9305791015625,-0.6892720460891724,-0.561431884765625,0.791054904460907
1761475850590556200,7.94055615234375,-0.6872926354408264,-0.7480676770210266,1.0934969186782837
1761475850600534300,7.9505341796875,-0.6111880540847778,-0.8374329805374146,1.314711093902588
1761475850610511000,7.960510986328125,-0.5545442700386047,-0.815495491027832,1.3838260173797607
1761475850620488200,7.97048828125,-0.5200797915458679,-0.7548603415489197,1.3313069343566895
1761475850630465000,7.980465087890625,-0.50554358959198,-0.611061155796051,1.2500697374343872
1761475850640442000,7.990442138671875,-0.47775667905807495,-0.40836185216903687,1.1854603290557861
1761475850650419000,8.0004189453125,-0.35992398858070374,-0.3959459662437439,1.0763932466506958
1761475850660396000,8.01039599609375,-0.20768199861049652,-0.5523231029510498,0.8244373798370361
1761475850670373000,8.020373046875,-0.2573073208332062,-0.6027728319168091,0.5509359836578369
1761475850680350000,8.030349853515625,-0.46975111961364746,-0.3520788848400116,0.5670025944709778
1761475850690328000,8.040328125,-0.8148770928382874,0.19814644753932953,0.9411486387252808
1761475850700305000,8.050304931640625,-1.1083248853683472,0.6466004252433777,1.3351870775222778
1761475850710282000,8.060281982421875,-1.1144181489944458,0.6763893961906433,1.6131941080093384
1761475850720259000,8.070259033203126,-0.7147084474563599,0.2315722554922104,1.695998191833496
1761475850730236200,8.080236083984374,-0.05572131276130676,-0.6698222756385803,1.4182926416397095
1761475850740213200,8.090213134765625,0.6153764128684998,-1.5207419395446777,0.8326746225357056
1761475850750190000,8.100190185546875,1.1115998029708862,-1.949679970741272,-0.0063059669919312
1761475850760167200,8.110167236328126,1.375293254852295,-1.7814878225326538,-0.8988252282142639
1761475850770144000,8.12014404296875,1.418624758720398,-0.857966959476471,-1.539493203163147
1761475850780122000,8.1301220703125,1.2624330520629883,0.24835807085037231,-1.8952395915985107
1761475850790099200,8.14009912109375,0.9709384441375732,1.0082247257232666,-2.0354979038238525
1761475850800076000,8.150075927734376,0.6492093801498413,1.3476392030715942,-2.0187978744506836
1761475850810053000,8.16005322265625,0.38177087903022766,1.171038031578064,-1.8407721519470215
1761475850820030200,8.1700302734375,0.2800101637840271,0.6397339105606079,-1.5374308824539185
1761475850830007000,8.180007080078125,0.3054754436016083,-0.041034553200006485,-1.235602855682373
1761475850839984000,8.189984130859376,0.2926611006259918,-0.6076785326004028,-1.02324640750885
1761475850849961000,8.1999609375,0.2002294659614563,-0.9039690494537354,-0.9448641538619995
1761475850859938000,8.20993798828125,0.10823217034339905,-0.9124773144721985,-0.9440081715583801
1761475850869915100,8.2199150390625,0.19522704184055328,-0.7306501269340515,-0.8912474513053894
1761475850879893000,8.22989306640625,0.456261545419693,-0.3932524025440216,-0.7252084016799927
1761475850889870000,8.2398701171875,0.7220785617828369,0.018121980130672455,-0.5030140280723572
1761475850899847000,8.249846923828125,0.9104782938957214,0.3194568157196045,-0.32763710618019104
1761475850909824300,8.25982421875,0.9826595783233643,0.4184361696243286,-0.22682201862335205
1761475850919801000,8.269801025390626,0.9550601840019226,0.3426756262779236,-0.21364788711071014
1761475850929778200,8.279778076171874,0.8587086200714111,0.20127053558826447,-0.22703613340854645
1761475850939755300,8.28975537109375,0.7063872218132019,0.10329977422952652,-0.20970959961414337
1761475850949733000,8.299733154296876,0.5021503567695618,0.12301275134086609,-0.15441665053367615
1761475850959710200,8.309710205078124,0.25516030192375183,0.23714491724967957,-0.10422805696725845
1761475850969687000,8.31968701171875,0.01692613773047924,0.34926891326904297,-0.08475179970264435
1761475850979664100,8.3296640625,-0.13768847286701202,0.41995373368263245,-0.07816687226295471
1761475850989641200,8.33964111328125,-0.19332632422447205,0.44661077857017517,-0.03169606626033783
1761475850999618000,8.3496181640625,-0.19862228631973267,0.45231395959854126,0.07464688271284103
1761475851009595100,8.35959521484375,-0.20474906265735626,0.42825281620025635,0.22785095870494843
1761475851019572000,8.369572021484375,-0.2550891935825348,0.35560715198516846,0.39576590061187744
1761475851029549000,8.379549072265625,-0.3560922145843506,0.18116800487041473,0.4909813404083252
1761475851039527200,8.389527099609374,-0.5105406641960144,-0.04386645182967186,0.5216268301010132
1761475851049504000,8.39950390625,-0.6702804565429688,-0.20019672811031342,0.5821577906608582
1761475851059481000,8.409481201171875,-0.8400875926017761,-0.31810975074768066,0.672884464263916
1761475851069458000,8.4194580078125,-0.9639514684677124,-0.4352172613143921,0.7359102368354797
1761475851079435000,8.42943505859375,-1.0694011449813843,-0.516597330570221,0.740812361240387
1761475851089412000,8.439412109375,-1.11327064037323,-0.48901915550231934,0.7604266405105591
1761475851099389200,8.44938916015625,-1.0876643657684326,-0.22761869430541992,0.9025824666023254
1761475851109366300,8.4593662109375,-1.031402826309204,0.09456604719161987,1.1625901460647583
1761475851119343000,8.469343017578124,-0.956518828868866,0.08084623515605927,1.379273533821106
1761475851129321200,8.4793212890625,-0.8535916209220886,-0.23681113123893738,1.4933226108551025
1761475851139298300,8.48929833984375,-0.6081821322441101,-0.15840235352516174,1.7028366327285767
1761475851149275100,8.499275146484376,-0.4103042185306549,0.28426721692085266,1.9676762819290161
1761475851159252200,8.509252197265624,-0.42661288380622864,0.748274564743042,2.02909779548645
1761475851169229000,8.51922900390625,-0.6614087224006653,1.1742404699325562,1.8444435596466064
1761475851179206100,8.5292060546875,-0.8836522102355957,1.341740608215332,1.5912240743637085
1761475851189183000,8.539182861328126,-0.7604479193687439,0.988034188747406,1.2854336500167847
1761475851199160000,8.54916015625,-0.47154659032821655,0.15470926463603973,0.8343088030815125
1761475851209137200,8.55913720703125,-0.17150360345840454,-0.5552581548690796,0.27923524379730225
1761475851219115000,8.569114990234375,0.11499899625778198,-1.0339072942733765,-0.4013797640800476
1761475851229092000,8.579092041015626,0.38376012444496155,-1.2586146593093872,-1.070480465888977
1761475851239069000,8.58906884765625,0.4244380295276642,-0.9819228649139404,-1.535656452178955
1761475851249046000,8.5990458984375,0.14974603056907654,-0.3282807171344757,-1.7471630573272705
1761475851259023000,8.609023193359375,-0.13705484569072723,0.1925947219133377,-1.7596790790557861
1761475851268999700,8.618999755859376,-0.3319540023803711,0.42860567569732666,-1.6417797803878784
1761475851278976800,8.628976806640624,-0.45093125104904175,0.4031311869621277,-1.5023449659347534
1761475851288953600,8.63895361328125,-0.44618645310401917,0.05960065871477127,-1.3971346616744995
1761475851298930700,8.6489306640625,-0.4011329412460327,-0.3684183359146118,-1.3672643899917603
1761475851308907800,8.65890771484375,-0.3978251814842224,-0.6915794610977173,-1.4187647104263306
1761475851318885600,8.6688857421875,-0.4382176101207733,-0.8014811873435974,-1.5393017530441284
1761475851328862700,8.67886279296875,-0.46474817395210266,-0.6339757442474365,-1.6701966524124146
1761475851338839600,8.688839599609375,-0.35202696919441223,-0.19136770069599152,-1.7091907262802124
1761475851348816600,8.698816650390626,-0.07705731689929962,0.3940356373786926,-1.6350075006484985
1761475851358793700,8.708793701171874,0.24647361040115356,0.8509858846664429,-1.4816794395446777
1761475851368770600,8.7187705078125,0.5289792418479919,1.0728658437728882,-1.2883976697921753
1761475851378747600,8.72874755859375,0.6806324124336243,1.0225474834442139,-1.0912235975265503
1761475851388724500,8.738724365234376,0.6363745927810669,0.7268053889274597,-0.9320369958877563
1761475851398701600,8.74870166015625,0.4555307924747467,0.2017570585012436,-0.7922170758247375
1761475851408679700,8.7586796875,0.23855769634246826,-0.330323189496994,-0.6289147138595581
1761475851418656500,8.768656494140625,0.08935436606407166,-0.6756499409675598,-0.42362359166145325
1761475851428633600,8.778633544921876,-0.011615201830863953,-0.8001791834831238,-0.20223656296730042
1761475851438610400,8.7886103515625,-0.11920717358589172,-0.6961070895195007,0.018064122647047043
1761475851448587800,8.798587890625,-0.21123506128787994,-0.43136394023895264,0.22920550405979156
1761475851458564900,8.80856494140625,-0.2427743524312973,-0.11933921277523041,0.4075227677822113
1761475851468541700,8.818541748046876,-0.22787636518478394,0.15601593255996704,0.5161616206169128
1761475851478518800,8.828518798828124,-0.19442865252494812,0.3088643252849579,0.5887237191200256
1761475851488495600,8.83849560546875,-0.1493910402059555,0.3242611289024353,0.629788339138031
1761475851498472700,8.84847265625,-0.1078457161784172,0.1836739182472229,0.6190560460090637
1761475851508450800,8.858450927734374,-0.11067623645067215,-0.03753654286265373,0.5503027439117432
1761475851518427600,8.868427734375,-0.17096993327140808,-0.2272588014602661,0.4404846131801605
1761475851528404700,8.87840478515625,-0.29425182938575745,-0.35933002829551697,0.2978399991989136
1761475851538381600,8.888381591796875,-0.4692321717739105,-0.44739222526550293,0.1335756927728653
1761475851548358700,8.898358642578126,-0.5390031337738037,-0.29397958517074585,0.11665961146354675
1761475851558335500,8.90833544921875,-0.3919857442378998,0.23781055212020874,0.3747984766960144
1761475851568312600,8.9183125,-0.07509646564722061,0.976738691329956,0.8809830546379089
1761475851578289700,8.92828955078125,0.31329309940338135,1.4487576484680176,1.3839727640151978
1761475851588266500,8.9382666015625,0.4943224787712097,1.2523722648620605,1.5477012395858765
1761475851598244600,8.94824462890625,0.4151879549026489,0.4548236131668091,1.4086085557937622
1761475851608221400,8.958221435546875,0.04509348049759865,-0.27852824330329895,1.1676586866378784
1761475851618198500,8.968198486328125,-0.5309352278709412,-0.5662065744400024,1.156107783317566
1761475851628175600,8.978175537109376,-1.0860322713851929,-0.3858071267604828,1.4679361581802368
1761475851638152700,8.988152587890625,-1.409171462059021,-0.18906156718730927,1.7941656112670898
1761475851648129800,8.9981298828125,-1.4216169118881226,-0.17054620385169983,1.9309629201889038
1761475851658106600,9.008106689453125,-0.9869043827056885,-0.2464095503091812,1.8377467393875122
1761475851668083700,9.018083740234376,-0.22387753427028656,-0.6423177123069763,1.3957668542861938
1761475851678060500,9.028060546875,0.563295304775238,-0.9769721627235413,0.6573207378387451
1761475851688037600,9.03803759765625,1.14815092086792,-0.888794481754303,-0.14169132709503174
1761475851698015700,9.048015625,1.5404683351516724,-0.4755835235118866,-0.9145675897598267
1761475851707992600,9.05799267578125,1.6728090047836304,0.045131273567676544,-1.614817500114441
1761475851717969700,9.0679697265625,1.5886445045471191,0.4401797950267792,-2.1182632446289062
1761475851727946800,9.07794677734375,1.3589109182357788,0.6514792442321777,-2.297818899154663
1761475851737923600,9.087923583984375,1.0352308750152588,0.6632218956947327,-2.1854352951049805
1761475851747900700,9.097900634765624,0.7185989022254944,0.4030543267726898,-1.8923027515411377
1761475851757877500,9.10787744140625,0.5094686150550842,-0.09013940393924713,-1.5230528116226196
1761475851767854600,9.1178544921875,0.4270925521850586,-0.6388748288154602,-1.1498240232467651
1761475851777831700,9.127831787109375,0.3819868862628937,-0.9855494499206543,-0.8610025644302368
1761475851787809500,9.1378095703125,0.2611173093318939,-1.0375585556030273,-0.6908711791038513
1761475851797786600,9.14778662109375,0.10840819776058197,-0.756173312664032,-0.660415768623352
1761475851807763500,9.157763427734375,0.044710349291563034,-0.2755376100540161,-0.69446861743927
1761475851817740800,9.16774072265625,0.1659078747034073,0.22123035788536072,-0.6915924549102783
1761475851827717600,9.177717529296874,0.4263862073421478,0.5558401346206665,-0.6282384395599365
1761475851837694700,9.18769482421875,0.7162846326828003,0.6424781084060669,-0.5520179867744446
1761475851847671800,9.197671875,0.926426112651825,0.5287562012672424,-0.47490960359573364
1761475851857648600,9.207648681640626,0.9679970145225525,0.4182429611682892,-0.3924160599708557
1761475851867625700,9.217625732421874,0.8597445487976074,0.33447280526161194,-0.34792712330818176
1761475851877602600,9.2276025390625,0.6764277219772339,0.2683603763580322,-0.3290674090385437
1761475851887580700,9.23758056640625,0.4728315770626068,0.2600821554660797,-0.2889198064804077
1761475851897557800,9.247557861328126,0.3052697479724884,0.31111443042755127,-0.2178448587656021
1761475851907534600,9.25753466796875,0.1957852840423584,0.37551000714302063,-0.11297040432691574
1761475851917511700,9.26751171875,0.1647876799106598,0.4124954342842102,0.01939694955945015
1761475851927488500,9.277488525390625,0.11740177869796753,0.38833853602409363,0.12529385089874268
1761475851937465600,9.287465576171876,0.040461987257003784,0.32991382479667664,0.21387112140655518
1761475851947442400,9.2974423828125,-0.041139062494039536,0.2629792392253876,0.3388887345790863
1761475851957419500,9.30741943359375,-0.07349486649036407,0.19000250101089478,0.4971438944339752
1761475851967396900,9.31739697265625,-0.07272806018590927,0.10749750584363937,0.6245890855789185
1761475851977373700,9.327373779296876,-0.07485326379537582,-0.054592065513134,0.6545743942260742
1761475851987351600,9.3373515625,-0.0569283589720726,-0.2568059265613556,0.5738135576248169
1761475851997328600,9.34732861328125,-0.024461766704916954,-0.39856067299842834,0.44715866446495056
1761475852007305700,9.3573056640625,0.07896152138710022,-0.33868443965911865,0.41893279552459717
1761475852017282800,9.36728271484375,0.2425304800271988,-0.06848519295454025,0.5408528447151184
1761475852027259600,9.377259765625,0.392843097448349,0.2741742730140686,0.7945014238357544
1761475852037236700,9.38723681640625,0.5153836607933044,0.5096312761306763,1.1199519634246826
1761475852047213600,9.397213623046875,0.5639444589614868,0.6277528405189514,1.4420565366744995
1761475852057190700,9.407190673828126,0.5056577324867249,0.5014955401420593,1.6394037008285522
1761475852067167500,9.41716748046875,0.3479336202144623,0.15141521394252777,1.7094749212265015
1761475852077145600,9.4271455078125,0.10183383524417877,-0.1732584834098816,1.7300127744674683
1761475852087122700,9.437122802734375,-0.367939293384552,-0.28283679485321045,1.6602389812469482
1761475852097099500,9.447099609375,-0.8600080609321594,-0.07278662174940109,1.5909578800201416
1761475852107076600,9.45707666015625,-1.1502708196640015,0.28532230854034424,1.6176551580429077
1761475852117053700,9.4670537109375,-1.0956541299819946,0.26954495906829834,1.519897222518921
1761475852127030500,9.477030517578125,-0.76279616355896,-0.23707176744937897,1.0397968292236328
1761475852137007600,9.487007568359376,-0.37020549178123474,-0.7410160899162292,0.3602515757083893
1761475852146984700,9.496984619140624,-0.03583985194563866,-0.9370846152305603,-0.2966262698173523
1761475852156961800,9.5069619140625,0.3182141184806824,-0.6446170806884766,-0.7743070721626282
1761475852166938600,9.516938720703125,0.7225574851036072,0.05285593494772911,-0.9657142162322998
1761475852176916500,9.52691650390625,1.132012963294983,0.624222457408905,-0.9354295134544373
1761475852186893800,9.536893798828125,1.3855818510055542,0.8737168908119202,-0.8037888407707214
1761475852196870700,9.54687060546875,1.371856927871704,0.7617728114128113,-0.6916037201881409
1761475852206847700,9.55684765625,1.0946599245071411,0.33883947134017944,-0.6219339370727539
1761475852216824600,9.566824462890626,0.7129253149032593,-0.18124951422214508,-0.5716942548751831
1761475852226801700,9.5768017578125,0.3767257332801819,-0.6455850005149841,-0.5043565034866333
1761475852236778800,9.58677880859375,0.19802124798297882,-0.8506015539169312,-0.41426870226860046
1761475852246755600,9.596755615234375,0.16922345757484436,-0.7756124138832092,-0.3429165482521057
1761475852256732700,9.606732666015626,0.2475946992635727,-0.4417828321456909,-0.28400132060050964
1761475852266711000,9.6167109375,0.37116149067878723,0.09553954005241394,-0.21702219545841217
1761475852276688000,9.62668798828125,0.5354548096656799,0.6916319131851196,-0.1579229235649109
1761475852286665000,9.6366650390625,0.7263868451118469,1.0694001913070679,-0.18821990489959717
1761475852296642000,9.64664208984375,0.9030822515487671,1.1259747743606567,-0.28296905755996704
1761475852306619000,9.656618896484375,1.028812289237976,0.9417669773101807,-0.38305553793907166
1761475852316596000,9.666595947265625,0.997810423374176,0.5986658334732056,-0.4893827736377716
1761475852326572800,9.67657275390625,0.8618987202644348,0.21882253885269165,-0.574517011642456
1761475852336550000,9.6865498046875,0.6953968405723572,-0.02326306700706482,-0.5984905362129211
1761475852346527000,9.69652685546875,0.490092396736145,-0.07792647182941437,-0.5415124297142029
1761475852356504000,9.706504150390625,0.2658179998397827,-0.04495493695139885,-0.4382084310054779
1761475852366482000,9.71648193359375,0.07470706105232239,0.05059075355529785,-0.26148346066474915
1761475852376459000,9.726458984375,-0.042840342968702316,0.20770874619483948,-0.045261405408382416
1761475852386436000,9.73643603515625,-0.06855686008930206,0.3027980327606201,0.1847834587097168
1761475852396413200,9.7464130859375,0.032335665076971054,0.2633829712867737,0.3859325349330902
1761475852406390000,9.75639013671875,0.18745490908622742,0.08271407335996628,0.4405692219734192
1761475852416367000,9.7663671875,0.27335622906684875,-0.22070732712745667,0.2890643775463104
1761475852426344000,9.776343994140625,0.22273360192775726,-0.5311703085899353,-0.02700873650610447
1761475852436321000,9.786321044921875,0.11199484020471573,-0.6470476388931274,-0.3314162790775299
1761475852446297900,9.7962978515625,0.015680093318223953,-0.581989049911499,-0.544247567653656
1761475852456275000,9.80627490234375,-0.04625038802623749,-0.4117574095726013,-0.5980769991874695
1761475852466253000,9.816253173828125,-0.019197067245841026,-0.16368770599365234,-0.4752947986125946
1761475852476230000,9.82622998046875,0.10791747272014618,0.03146632760763168,-0.2746535837650299
1761475852486207000,9.83620703125,0.2606831192970276,0.1095159649848938,-0.06612976640462875
1761475852496183800,9.846183837890624,0.36256954073905945,0.22499781847000122,0.15020811557769775
1761475852506161000,9.856160888671875,0.39083683490753174,0.40108731389045715,0.46098360419273376
1761475852516138000,9.866137939453125,0.35571610927581787,0.6206082105636597,0.8397250771522522
1761475852526114800,9.87611474609375,0.2837221622467041,0.6899136304855347,1.3127436637878418
1761475852536092200,9.886092041015624,0.18235132098197937,0.5330473184585571,1.7432026863098145
1761475852546069000,9.896069091796875,0.026948371902108192,0.14032378792762756,1.9897207021713257
1761475852556046000,9.906046142578125,-0.22014157474040985,-0.26548177003860474,2.0746660232543945
1761475852566024200,9.916024169921876,-0.5282882452011108,-0.44152411818504333,2.0630226135253906
1761475852576001000,9.9260009765625,-0.8145197629928589,-0.3904004693031311,1.9157137870788574
1761475852585978000,9.93597802734375,-0.9758443236351013,-0.23192177712917328,1.661853313446045
1761475852595955000,9.945954833984375,-0.8522480726242065,-0.2660866975784302,1.3071199655532837
1761475852605932000,9.95593212890625,-0.5730109810829163,-0.4154421389102936,0.8630768656730652
1761475852615908900,9.965908935546874,-0.2579882740974426,-0.6080166101455688,0.32157206535339355
1761475852625886000,9.975885986328125,-0.0757681354880333,-0.7915483713150024,-0.3771970868110657
1761475852635863000,9.985863037109375,0.028616057708859444,-0.8044132590293884,-1.051391839981079
1761475852645840000,9.99583984375,0.1497214287519455,-0.47010788321495056,-1.4656932353973389
1761475852655817000,10.00581689453125,0.19310031831264496,0.04551125690340996,-1.6246914863586426
1761475852665795000,10.015795166015625,0.05310642346739769,0.47068363428115845,-1.6334303617477417
1761475852675772000,10.02577197265625,-0.15836161375045776,0.7156097292900085,-1.5790776014328003
1761475852685749000,10.0357490234375,-0.3512750566005707,0.7061548829078674,-1.5263829231262207
1761475852695725800,10.045725830078124,-0.4649989604949951,0.48910030722618103,-1.4884225130081177
1761475852705703000,10.055702880859375,-0.48978161811828613,0.27018651366233826,-1.5087475776672363
1761475852715680000,10.065679931640625,-0.42374375462532043,0.11086475104093552,-1.5730359554290771
1761475852725657000,10.075656982421876,-0.29532718658447266,0.08420464396476746,-1.6113301515579224
1761475852735634200,10.08563427734375,-0.17925330996513367,0.16423183679580688,-1.6000326871871948
1761475852745611000,10.095611083984375,-0.09344404935836792,0.3285319209098816,-1.530268669128418
1761475852755588000,10.105588134765625,-0.022837787866592407,0.5265470147132874,-1.3929308652877808
1761475852765566000,10.11556591796875,0.031396616250276566,0.6427493095397949,-1.2181618213653564
1761475852775543000,10.12554296875,0.07159782946109772,0.5711364150047302,-1.0529699325561523
1761475852785520000,10.13552001953125,0.07838624715805054,0.32820698618888855,-0.905291736125946
1761475852795497000,10.1454970703125,0.04452042654156685,-0.014841459691524506,-0.7993208765983582
1761475852805474000,10.15547412109375,0.0014457388315349817,-0.4170573353767395,-0.71615070104599
1761475852815451000,10.165450927734375,-0.02086462639272213,-0.732783317565918,-0.6339898109436035
1761475852825428000,10.175427978515625,-0.006324412301182747,-0.8905879855155945,-0.5313583016395569
1761475852835404800,10.18540478515625,0.05612777918577194,-0.941206693649292,-0.3624145984649658
1761475852845382000,10.1953818359375,0.1458088755607605,-0.865220308303833,-0.14726905524730682
1761475852855359000,10.20535888671875,0.20690950751304626,-0.7524900436401367,0.044049762189388275
1761475852865336800,10.2153369140625,0.2366802990436554,-0.6126935482025146,0.2250773310661316
1761475852875314000,10.22531396484375,0.21928292512893677,-0.4627852737903595,0.3745613694190979
1761475852885290800,10.235290771484374,0.15651345252990723,-0.39348241686820984,0.4644874334335327
1761475852895267800,10.245267822265625,0.09615209698677063,-0.41660717129707336,0.4942490756511688
1761475852905245200,10.2552451171875,0.027306606993079185,-0.513710618019104,0.44990283250808716
1761475852915222000,10.265221923828125,-0.08029522001743317,-0.6507555246353149,0.32539844512939453
1761475852925199000,10.27519921875,-0.19126509130001068,-0.7793996930122375,0.24178546667099
1761475852935176000,10.285176025390625,-0.2713173031806946,-0.7821933627128601,0.3304990828037262
1761475852945153000,10.295153076171875,-0.29772695899009705,-0.6681378483772278,0.5760796666145325
1761475852955129900,10.3051298828125,-0.32583263516426086,-0.4620291292667389,0.9453333616256714
1761475852965108000,10.31510791015625,-0.3991858661174774,-0.18854565918445587,1.3174643516540527
1761475852975085000,10.3250849609375,-0.49496990442276,0.005710899829864502,1.5379432439804077
1761475852985062000,10.335061767578125,-0.6388801336288452,0.06775227189064026,1.7048993110656738
1761475852995039000,10.3450390625,-0.7810697555541992,0.19240233302116394,2.0218441486358643
1761475853005016000,10.35501611328125,-0.9098917245864868,0.6012832522392273,2.4820716381073
1761475853014993000,10.364992919921875,-0.937083899974823,1.2623664140701294,2.8942863941192627
1761475853024970000,10.374969970703125,-1.0544071197509766,1.6057630777359009,2.92730975151062
1761475853034946800,10.38494677734375,-1.3736522197723389,1.3071033954620361,2.383554458618164
1761475853044924000,10.394923828125,-1.5307800769805908,0.9597295522689819,1.654626727104187
1761475853054902000,10.404902099609375,-1.3545986413955688,0.8664294481277466,1.1401748657226562
1761475853064878800,10.41487890625,-0.800032913684845,0.4550236761569977,0.6844251751899719
1761475853074856000,10.42485595703125,-0.04616019129753113,0.053748149424791336,0.24085389077663422
1761475853084833000,10.4348330078125,0.5938199758529663,-0.14174523949623108,-0.16261574625968933
1761475853094810000,10.44481005859375,0.9421066045761108,-0.1506955921649933,-0.5049179792404175
1761475853104787000,10.454786865234375,1.0628008842468262,-0.10021377354860306,-0.7096367478370667
1761475853114764000,10.464763916015626,1.039283037185669,-0.16094663739204407,-0.7512462735176086
1761475853124741000,10.4747412109375,0.8609080910682678,-0.2747949957847595,-0.7006438374519348
1761475853134718000,10.484718017578125,0.5462004542350769,-0.4123139977455139,-0.646300733089447
1761475853144695000,10.494695068359375,0.14592251181602478,-0.48523226380348206,-0.6487754583358765
1761475853154671900,10.504671875,-0.15541230142116547,-0.5741949081420898,-0.7235437035560608
1761475853164650000,10.51464990234375,-0.2949388027191162,-0.5731402635574341,-0.7787432670593262
1761475853174627000,10.524626953125,-0.2463659644126892,-0.4967423677444458,-0.8398318886756897
1761475853184604000,10.53460400390625,0.007310609333217144,-0.4341025948524475,-0.9115047454833984
1761475853194581000,10.5445810546875,0.3085056245326996,-0.311225950717926,-0.9850242137908936
1761475853204557800,10.554557861328124,0.42622050642967224,-0.07411740720272064,-1.0092871189117432
1761475853214535000,10.564534912109375,0.36078983545303345,0.20142816007137299,-0.9849557280540466
1761475853224511700,10.57451171875,0.252064973115921,0.4624161720275879,-0.8550089001655579
1761475853234489000,10.584489013671876,0.20774227380752563,0.6846466064453125,-0.6061977744102478
1761475853244466200,10.594466064453124,0.25011375546455383,0.7738742232322693,-0.3135378360748291
1761475853254443000,10.604443115234375,0.29981285333633423,0.6295517086982727,-0.023180844262242317
1761475853264420900,10.6144208984375,0.259324848651886,0.2811381220817566,0.1917848140001297
1761475853274397700,10.624397705078126,0.07315415889024734,-0.17648005485534668,0.32337453961372375
1761475853284374800,10.634374755859374,-0.24305425584316254,-0.5613025426864624,0.34085625410079956
1761475853294352000,10.644351806640625,-0.571861207485199,-0.7539976835250854,0.2826797664165497
1761475853304328700,10.65432861328125,-0.788218080997467,-0.7532374858856201,0.19187146425247192
1761475853314305800,10.664305908203126,-0.8876714110374451,-0.615551233291626,0.07604473829269409
1761475853324282600,10.67428271484375,-0.8916937112808228,-0.4390462636947632,-0.05624539405107498
1761475853334259700,10.684259765625,-0.8157012462615967,-0.20811104774475098,-0.19112251698970795
1761475853344236500,10.694236572265625,-0.6992174386978149,0.059810515493154526,-0.3048148453235626
1761475853354213600,10.704213623046876,-0.6004424095153809,0.2743039131164551,-0.3735571503639221
1761475853364191700,10.714191650390624,-0.510877251625061,0.4090881943702698,-0.39649784564971924
1761475853374168600,10.72416845703125,-0.4040660858154297,0.42058026790618896,-0.3773510456085205
1761475853384145700,10.734145751953125,-0.3204370439052582,0.30518031120300293,-0.31398504972457886
1761475853394122800,10.744122802734376,-0.2747068405151367,0.13742460310459137,-0.2374148815870285
1761475853404099600,10.754099609375,-0.212233304977417,-0.052847910672426224,-0.1322251707315445
1761475853414077000,10.764076904296875,-0.015852872282266617,-0.09585343301296234,0.10210451483726501
1761475853424053800,10.7740537109375,0.19107912480831146,-0.11439723521471024,0.3488483428955078
1761475853434030800,10.78403076171875,0.37239110469818115,-0.14839062094688416,0.5747765302658081
1761475853444007700,10.794007568359374,0.45560842752456665,-0.15208351612091064,0.7773529291152954
1761475853453984800,10.80398486328125,0.48155292868614197,-0.11929947882890701,1.0739468336105347
1761475853463963000,10.813962890625,0.5366315841674805,-0.02714664861559868,1.4266319274902344
1761475853473939700,10.823939697265626,0.5931636095046997,-0.06656862050294876,1.591871738433838
1761475853483916800,10.833916748046875,0.6152319312095642,-0.3183538317680359,1.4163377285003662
1761475853493893600,10.8438935546875,0.5746988654136658,-0.5967692136764526,0.9048011898994446
1761475853503870700,10.85387060546875,0.460639625787735,-0.723670482635498,0.30951231718063354
1761475853513847800,10.863847900390626,0.4017520844936371,-0.4430316090583801,-0.005279737524688244
1761475853523824600,10.87382470703125,0.3698018789291382,0.009489232674241066,-0.09969571977853775
1761475853533801700,10.8838017578125,0.37643367052078247,0.448932409286499,-0.10113781690597534
1761475853543778600,10.893778564453125,0.5992031693458557,0.4035135507583618,-0.26763656735420227
1761475853553755600,10.903755615234376,0.8761489987373352,0.2970592677593231,-0.5955041646957397
1761475853563732700,10.913732666015624,0.9299520254135132,-0.09248730540275574,-1.1302258968353271
1761475853573710600,10.923710693359375,0.9124805927276611,-0.49394524097442627,-1.7966928482055664
1761475853583687700,10.933687744140625,0.9064940810203552,-0.39449647068977356,-2.280036687850952
1761475853593664800,10.943664794921874,1.0624713897705078,-0.038875795900821686,-2.5581700801849365
1761475853603641900,10.953641845703125,1.2358547449111938,0.7930993437767029,-2.6897225379943848
1761475853613618700,10.96361865234375,1.3545348644256592,1.7571293115615845,-2.6780242919921875
1761475853623595800,10.973595703125,1.4267677068710327,2.340165138244629,-2.5439705848693848
1761475853633572900,10.98357275390625,1.465306043624878,2.444902181625366,-2.313880681991577
1761475853643549700,10.9935498046875,1.4640809297561646,2.4021856784820557,-2.0401551723480225
1761475853653526800,11.00352685546875,1.5289666652679443,1.915686011314392,-1.9815844297409058
1761475853663503600,11.013503662109375,1.3239188194274902,1.0790666341781616,-1.8852306604385376
1761475853673481700,11.023481689453124,1.0519856214523315,0.7931384444236755,-1.8910775184631348
1761475853683458800,11.033458740234375,0.806270956993103,0.8113337159156799,-1.9392635822296143
1761475853693435600,11.043435546875,0.49715548753738403,0.9341725707054138,-1.9148131608963013
1761475853703412700,11.053412841796876,0.24197863042354584,1.4864188432693481,-1.7764320373535156
1761475853713389600,11.0633896484375,0.08298232406377792,1.6467361450195312,-1.6415905952453613
1761475853723366700,11.07336669921875,0.04716428741812706,1.5014480352401733,-1.3918195962905884
1761475853733343700,11.08334375,0.0845891609787941,1.246907114982605,-1.0843589305877686
1761475853743320600,11.093320556640625,0.1309117078781128,0.8988859057426453,-0.8647928833961487
1761475853753298000,11.1032978515625,0.07545298337936401,0.5760340690612793,-0.6917691826820374
1761475853763274800,11.113274658203125,-0.009668366983532906,0.22241860628128052,-0.5865230560302734
1761475853773252600,11.123252685546875,-0.061297472566366196,0.33484822511672974,-0.48072633147239685
1761475853783230000,11.13322998046875,0.023698925971984863,0.48419177532196045,-0.4099541902542114
1761475853793206800,11.143206787109374,0.223220556974411,-0.169668048620224,0.0042294044978916645
1761475853803183900,11.153183837890625,0.5420016646385193,-0.3107649087905884,0.7230268716812134
1761475853813160700,11.16316064453125,0.8523470163345337,-0.15355795621871948,1.3048652410507202
1761475853823137800,11.1731376953125,0.9191017746925354,-0.2573610842227936,1.5430740118026733
1761475853833114600,11.183114501953124,0.8471660614013672,-0.5531837344169617,1.544492483139038
1761475853843091700,11.193091796875,0.7133816480636597,-0.6927709579467773,1.616433024406433
1761475853853068800,11.20306884765625,0.492861270904541,-0.7806810736656189,1.7131837606430054
1761475853863045600,11.213045654296875,0.14137867093086243,-0.7330538034439087,1.658396601676941
1761475853873022700,11.223022705078124,-0.30793628096580505,-1.2431594133377075,1.3116230964660645
1761475853883000600,11.23300048828125,-0.6264805197715759,-1.6092196702957153,0.8970382809638977
1761475853892977700,11.242977783203125,-0.7296500205993652,-1.511669635772705,0.7445400953292847
1761475853902954800,11.252954833984376,-0.6398716568946838,-1.4722704887390137,0.8085082173347473
1761475853912931600,11.262931640625,-0.422055721282959,-1.3662750720977783,0.9555008411407471
1761475853922908700,11.27290869140625,-0.25863853096961975,-1.244387149810791,0.9811809062957764
1761475853932885800,11.2828857421875,-0.3970866799354553,-0.7903701066970825,0.5827187299728394
1761475853942862800,11.29286279296875,-0.510159432888031,-0.5159461498260498,-0.268342524766922
1761475853952839700,11.302839599609374,-0.4623192548751831,-0.36363595724105835,-1.304797887802124
1761475853962816800,11.312816650390625,-0.22327907383441925,-0.34965765476226807,-2.1067068576812744
1761475853972793900,11.3227939453125,0.04239627718925476,-0.12239731848239899,-2.5766172409057617
1761475853982771700,11.332771728515626,0.2160215526819229,-0.04540181905031204,-2.7809624671936035
1761475853992748800,11.342748779296874,0.34936362504959106,-0.027727218344807625,-2.7069902420043945
1761475854002726000,11.352725830078125,0.4442597031593323,0.013987632468342781,-2.3725783824920654
1761475854012702700,11.36270263671875,0.5096469521522522,0.08553265780210495,-1.8780139684677124
1761475854022679800,11.3726796875,0.5441935658454895,0.18117208778858185,-1.3001056909561157
1761475854032656600,11.38265673828125,0.5587783455848694,0.17690730094909668,-0.6918541193008423
1761475854042633700,11.3926337890625,0.48336169123649597,0.15418261289596558,-0.09158676117658615
1761475854052610600,11.402610595703125,0.24804982542991638,0.14398802816867828,0.4526619017124176
1761475854062587600,11.412587646484376,0.015245147049427032,0.0651194229722023,0.9733646512031555
1761475854072564700,11.422564697265624,-0.1710118055343628,-0.06264972686767578,1.356017827987671
1761475854082542600,11.43254248046875,-0.298330157995224,-0.15642336010932922,1.5419886112213135
1761475854092519700,11.442519775390625,-0.3562659025192261,-0.16553430259227753,1.5893195867538452
1761475854102496500,11.45249658203125,-0.3292345702648163,-0.09838860481977463,1.5525908470153809
1761475854112473600,11.4624736328125,-0.20822107791900635,0.05487578362226486,1.4272974729537964
1761475854122451000,11.472450927734375,-0.026916660368442535,0.2587735652923584,1.198928952217102
1761475854132427800,11.482427734375,0.15963219106197357,0.4748925566673279,0.8864471912384033
1761475854142404900,11.49240478515625,0.29173654317855835,0.6350486278533936,0.5397963523864746
1761475854152381700,11.502381591796874,0.3155856728553772,0.6571938991546631,0.19808641076087952
1761475854162358800,11.51235888671875,0.2262398600578308,0.5754420757293701,-0.0403461828827858
1761475854172335600,11.522335693359375,0.04513212665915489,0.19679541885852814,-0.1852799355983734
1761475854182312700,11.532312744140626,-0.05647309496998787,-0.10894404351711273,-0.34867042303085327
1761475854192290800,11.542290771484375,-0.09086436033248901,-0.27856236696243286,-0.49449074268341064
1761475854202267600,11.552267578125,-0.07373601198196411,-0.3192732632160187,-0.5675779581069946
1761475854212244700,11.56224462890625,-0.009831602685153484,-0.30979907512664795,-0.5750102996826172
1761475854222221600,11.5722216796875,0.12953008711338043,-0.3102310299873352,-0.4796079695224762
1761475854232198700,11.58219873046875,0.24474243819713593,-0.2679738700389862,-0.22544226050376892
