time,seconds_elapsed,z,y,x
1761475871422203100,0.072203125,-0.09116191416978836,0.4457189738750458,-0.5706222057342529
1761475871432180000,0.082179931640625,-0.16118068993091583,0.4565287232398987,-0.5878489017486572
1761475871442157000,0.092156982421875,-0.19811750948429108,0.2878381311893463,-0.5586020946502686
1761475871452134000,0.1021337890625,-0.2523176670074463,0.06626527011394501,-0.4637405276298523
1761475871462111000,0.112111083984375,-0.3126712441444397,-0.13551296293735504,-0.29926854372024536
1761475871472087800,0.122087890625,-0.37253084778785706,-0.28885456919670105,-0.08495437353849411
1761475871482065000,0.13206494140625,-0.4141062796115875,-0.3878132700920105,0.13431569933891296
1761475871492042000,0.1420419921875,-0.441191703081131,-0.45065295696258545,0.3272569179534912
1761475871502018800,0.152018798828125,-0.4621564745903015,-0.48649686574935913,0.468210369348526
1761475871511996000,0.161995849609375,-0.4803975522518158,-0.4624978005886078,0.5593525171279907
1761475871521973000,0.171972900390625,-0.49500855803489685,-0.416928231716156,0.601873517036438
1761475871531950000,0.1819501953125,-0.5124157667160034,-0.38247543573379517,0.6071902513504028
1761475871541928000,0.191927978515625,-0.516396164894104,-0.34796273708343506,0.5771598815917969
1761475871551905000,0.201905029296875,-0.5079762935638428,-0.3088417053222656,0.533058762550354
1761475871561882000,0.211882080078125,-0.4874218702316284,-0.24512100219726562,0.4799632132053375
1761475871571859000,0.22185888671875,-0.44856423139572144,-0.15748462080955505,0.42691946029663086
1761475871581836000,0.2318359375,-0.39446988701820374,-0.06965973973274231,0.3817695379257202
1761475871591812900,0.241812744140625,-0.3382340371608734,-0.001455655787140131,0.33650991320610046
1761475871601790000,0.2517900390625,-0.27973225712776184,0.052825115621089935,0.291206955909729
1761475871611767000,0.26176708984375,-0.23472724854946136,0.08612634986639023,0.24685786664485931
1761475871621743900,0.271743896484375,-0.21857623755931854,0.09141485393047333,0.19608843326568604
1761475871631721000,0.281720947265625,-0.23909829556941986,0.06234485283493996,0.12364273518323898
1761475871641697800,0.29169775390625,-0.2820506691932678,0.02063356339931488,0.037935707718133926
1761475871651675000,0.3016748046875,-0.3401733636856079,0.008634157478809357,-0.030917659401893616
1761475871661652000,0.31165185546875,-0.3898983597755432,0.011720116250216961,-0.09897039085626602
1761475871671629000,0.321629150390625,-0.4233876168727875,-0.006662352941930294,-0.14978349208831787
1761475871681606100,0.331606201171875,-0.434004008769989,-0.006670552771538496,-0.17750225961208344
1761475871691583000,0.3415830078125,-0.4159727990627289,0.0031277495436370373,-0.18446987867355347
1761475871701560000,0.35156005859375,-0.37025386095046997,-0.0025342428125441074,-0.18621176481246948
1761475871711537000,0.361536865234375,-0.2936094105243683,0.01709245704114437,-0.1791117787361145
1761475871721514000,0.371513916015625,-0.1967255026102066,0.05696522071957588,-0.15817171335220337
1761475871731490800,0.38149072265625,-0.10458997637033463,0.10599161684513092,-0.14161591231822968
1761475871741468000,0.391468017578125,-0.0338069386780262,0.13076075911521912,-0.13242284953594208
1761475871751445000,0.401445068359375,0.009347722865641117,0.1179480329155922,-0.13011789321899414
1761475871761421800,0.411421875,0.02330704964697361,0.07119044661521912,-0.13130314648151398
1761475871771399000,0.42139892578125,0.022837534546852112,0.03552991896867752,-0.1239996924996376
1761475871781376000,0.4313759765625,0.015541392378509045,0.010948128998279572,-0.09948400408029556
1761475871791353000,0.44135302734375,0.0025028225500136614,-0.013779321685433388,-0.0842997208237648
1761475871801330000,0.451329833984375,-0.019244227558374405,-0.0009651437867432833,-0.06153378263115883
1761475871811307000,0.46130712890625,-0.05644911900162697,-0.003075698856264353,-0.05677870661020279
1761475871821284000,0.4712841796875,-0.09868127107620239,-0.027420613914728165,-0.07623574137687683
1761475871831261000,0.481260986328125,-0.14056934416294098,-0.104004867374897,-0.10771829634904861
1761475871841238000,0.491238037109375,-0.1696729212999344,-0.22750157117843628,-0.15035520493984222
1761475871851214800,0.50121484375,-0.18385213613510132,-0.33711913228034973,-0.16985753178596497
1761475871861192000,0.51119189453125,-0.19693078100681305,-0.36242198944091797,-0.17226947844028473
1761475871871168800,0.521168701171875,-0.19778326153755188,-0.3372729420661926,-0.16759350895881653
1761475871881145900,0.531145751953125,-0.19367484748363495,-0.27394425868988037,-0.15945802628993988
1761475871891123000,0.541123046875,-0.2004651129245758,-0.1490526646375656,-0.13752023875713348
1761475871901100000,0.55110009765625,-0.21339161694049835,-0.010028041899204254,-0.12585709989070892
1761475871911077000,0.5610771484375,-0.13512477278709412,0.10705064237117767,-0.09893572330474854
1761475871921054000,0.571053955078125,-0.012052181176841259,0.21638351678848267,-0.08024075627326965
1761475871931031000,0.581031005859375,0.07643347978591919,0.24689429998397827,-0.10595810413360596
1761475871941008000,0.5910078125,0.10651933401823044,0.3119999170303345,-0.12443505227565765
1761475871950985000,0.60098486328125,0.07598885893821716,0.3922979533672333,-0.14155492186546326
1761475871960962000,0.610962158203125,0.01045168936252594,0.37403804063796997,-0.1554524004459381
1761475871970939000,0.62093896484375,-0.04345788061618805,0.3856651484966278,-0.11698143929243088
1761475871980916000,0.630916015625,-0.024699769914150238,0.4168407618999481,-0.04608842357993126
1761475871990892800,0.640892822265625,0.04519329592585564,0.42402383685112,0.02570081129670143
1761475872000870000,0.650869873046875,0.14924195408821106,0.3516780734062195,0.07113269716501236
1761475872010847000,0.660846923828125,0.23547111451625824,0.25605592131614685,0.1102880910038948
1761475872020824000,0.670823974609375,0.2572765648365021,0.18264830112457275,0.1685471385717392
1761475872030801200,0.68080126953125,0.1822797954082489,0.1422574669122696,0.23009997606277466
1761475872040778000,0.690778076171875,-0.010811075568199158,0.07678781449794769,0.2692579925060272
1761475872050755000,0.700755126953125,-0.20229288935661316,0.002058181446045637,0.30595237016677856
1761475872060732000,0.71073193359375,-0.22337743639945984,-0.07290905714035034,0.32681483030319214
1761475872070709000,0.720708984375,-0.1398247480392456,-0.13334578275680542,0.3023765981197357
1761475872080685800,0.730685791015625,-0.07455863803625107,-0.14048022031784058,0.22933006286621094
1761475872090663000,0.740662841796875,-0.07674696296453476,-0.15175551176071167,0.09835739433765411
1761475872100640000,0.750639892578125,-0.1237807422876358,-0.22119535505771637,-0.02404741384088993
1761475872110616800,0.760616943359375,-0.16907073557376862,-0.24332542717456818,-0.07149402797222137
1761475872120594000,0.770593994140625,-0.1826435625553131,-0.19462266564369202,-0.05046246573328972
1761475872130571000,0.780571044921875,-0.16586431860923767,-0.10411379486322403,0.00843360647559166
1761475872140548000,0.790548095703125,-0.11331858485937119,-0.058539871126413345,0.04440179467201233
1761475872150525000,0.80052490234375,-0.05363075062632561,-0.027971308678388596,0.03302210941910744
1761475872160502000,0.810501953125,-0.014811819419264793,-0.015192192047834396,-0.019791947677731514
1761475872170479000,0.82047900390625,-0.0038779466412961483,-0.02062051184475422,-0.07845712453126907
1761475872180456000,0.8304560546875,-0.021629411727190018,0.00324280490167439,-0.12587246298789978
1761475872190433000,0.84043310546875,-0.06195366382598877,0.03132876753807068,-0.15512941777706146
1761475872200411000,0.850410888671875,-0.09905002266168594,0.05718487873673439,-0.15913903713226318
1761475872210388000,0.860387939453125,-0.1414685845375061,0.09518126398324966,-0.14452627301216125
1761475872220365000,0.870364990234375,-0.1854526549577713,0.13971483707427979,-0.09803078323602676
1761475872230342000,0.880341796875,-0.20535153150558472,0.21309983730316162,-0.017592400312423706
1761475872240319000,0.890319091796875,-0.23267675936222076,0.3622977137565613,0.06562265753746033
1761475872250295800,0.9002958984375,-0.25770753622055054,0.45726603269577026,0.10562866181135178
1761475872260273000,0.91027294921875,-0.25862985849380493,0.504786491394043,0.06636388599872589
1761475872270249700,0.920249755859375,-0.24046415090560913,0.5321453809738159,-0.036390721797943115
1761475872280227000,0.93022705078125,-0.20141734182834625,0.4748709201812744,-0.19202090799808502
1761475872290204400,0.940204345703125,-0.17454765737056732,0.3731008768081665,-0.39125996828079224
1761475872300181500,0.950181396484375,-0.17762549221515656,0.25629857182502747,-0.5567572712898254
1761475872310158600,0.96015869140625,-0.1997225433588028,0.13459689915180206,-0.6481010317802429
1761475872320135700,0.9701357421875,-0.20626401901245117,0.08796823769807816,-0.6562201380729675
1761475872330112500,0.980112548828125,-0.17714262008666992,0.23323754966259003,-0.579369068145752
1761475872340089600,0.990089599609375,-0.11239628493785858,0.5024986267089844,-0.43495476245880127
1761475872350066700,1.000066650390625,-0.02862495929002762,0.7904323935508728,-0.26521843671798706
1761475872360043500,1.01004345703125,0.06966184079647064,0.9853959083557129,-0.11995192617177963
1761475872370020600,1.0200205078125,0.16991733014583588,1.0846396684646606,0.03760813921689987
1761475872379997400,1.02999755859375,0.2597874701023102,1.1452054977416992,0.2565852403640747
1761475872389974500,1.039974609375,0.33575761318206787,1.1763120889663696,0.49036335945129395
1761475872399951400,1.049951416015625,0.3350829780101776,1.057089924812317,0.6567553877830505
1761475872409928400,1.059928466796875,0.22204934060573578,0.8018056154251099,0.7528113126754761
1761475872419905500,1.069905517578125,0.16832800209522247,0.48536044359207153,0.9141420125961304
1761475872429882600,1.079882568359375,0.213098406791687,0.1352280080318451,1.0979746580123901
1761475872439859700,1.089859619140625,0.22789153456687927,-0.29080238938331604,1.1516844034194946
1761475872449836500,1.09983642578125,0.18160180747509003,-0.7537681460380554,1.0259376764297485
1761475872459813600,1.109813720703125,0.11177080869674683,-1.1104251146316528,0.7263526320457458
1761475872469790500,1.11979052734375,0.03805851191282272,-1.1985121965408325,0.45689669251441956
1761475872479767600,1.129767578125,-0.015553438104689121,-0.8387249708175659,0.4311482310295105
1761475872489744600,1.13974462890625,-0.07788099348545074,-0.06102545186877251,0.6553341746330261
1761475872499721500,1.149721435546875,-0.07649417221546173,0.8116279244422913,0.9772515892982483
1761475872509698600,1.159698486328125,0.000931111688259989,1.4028509855270386,1.263637900352478
1761475872519675400,1.16967529296875,0.16061916947364807,1.5752640962600708,1.3826749324798584
1761475872529652500,1.179652587890625,0.3041372001171112,1.3436079025268555,1.2943073511123657
1761475872539629600,1.189629638671875,0.35202619433403015,0.8183923959732056,1.0605181455612183
1761475872549606700,1.199606689453125,0.3014988303184509,0.11987002938985825,0.8131621479988098
1761475872559583700,1.209583740234375,0.21624574065208435,-0.5280233025550842,0.6876105666160583
1761475872569560600,1.219560546875,0.15729108452796936,-0.9902599453926086,0.6737005710601807
1761475872579537700,1.22953759765625,0.17648203670978546,-1.2083057165145874,0.7139089703559875
1761475872589514500,1.239514404296875,0.2754027545452118,-1.2316627502441406,0.6812548637390137
1761475872599491600,1.24949169921875,0.39615365862846375,-1.1542235612869263,0.4928266406059265
1761475872609468400,1.259468505859375,0.4867765009403229,-1.0253287553787231,0.18854503333568573
1761475872619445500,1.269445556640625,0.5037345290184021,-0.8984690308570862,-0.2005833387374878
1761475872629422600,1.279422607421875,0.4343266785144806,-0.771448016166687,-0.628402829170227
1761475872639399400,1.2893994140625,0.31104984879493713,-0.6633303761482239,-1.0427138805389404
1761475872649376500,1.29937646484375,0.18519683182239532,-0.5387501120567322,-1.392106533050537
1761475872659353600,1.309353515625,0.08284855633974075,-0.3508366644382477,-1.676452875137329
1761475872669330700,1.31933056640625,0.021349243819713593,-0.10487402230501175,-1.8803023099899292
1761475872679307500,1.3293076171875,0.0016838570591062307,0.19134752452373505,-1.9749767780303955
1761475872689284600,1.33928466796875,0.019307859241962433,0.49252840876579285,-1.978209137916565
1761475872699261700,1.34926171875,0.021267512813210487,0.6915329098701477,-1.9085878133773804
1761475872709238500,1.359238525390625,0.0019625250715762377,0.7475964426994324,-1.7696032524108887
1761475872719215600,1.369215576171875,0.00424673268571496,0.7040488719940186,-1.5398366451263428
1761475872729192400,1.3791923828125,0.06728482246398926,0.48304006457328796,-1.2881948947906494
1761475872739169500,1.38916943359375,0.11001425981521606,0.34492039680480957,-1.019086241722107
1761475872749146400,1.399146484375,0.14133329689502716,0.4243406653404236,-0.6667234301567078
1761475872759123500,1.40912353515625,0.1853732168674469,0.5782848596572876,-0.24459685385227203
1761475872769100500,1.4191005859375,0.3260837495326996,0.4332214295864105,-0.018430562689900398
1761475872779077600,1.42907763671875,0.47973719239234924,0.2992226779460907,0.04488224908709526
1761475872789054700,1.4390546875,0.5989698171615601,0.22530187666416168,0.06769941747188568
1761475872799031600,1.449031494140625,0.6408272385597229,0.1469947099685669,0.05413522571325302
1761475872809008600,1.459008544921875,0.6025903224945068,0.1468823254108429,0.0151289701461792
1761475872818985500,1.4689853515625,0.5073997378349304,0.19663365185260773,-0.04611410200595856
1761475872828962600,1.478962646484375,0.3930463194847107,0.26838693022727966,-0.09934909641742706
1761475872838939600,1.488939697265625,0.27880236506462097,0.3923834562301636,-0.10172421485185623
1761475872848916500,1.49891650390625,0.1900799721479416,0.5442595481872559,-0.05422806739807129
1761475872858893600,1.5088935546875,0.1364223212003708,0.6948084235191345,0.01724321022629738
1761475872868870400,1.518870361328125,0.11753277480602264,0.8351311683654785,0.10571394860744476
1761475872878847500,1.528847412109375,0.1215151846408844,0.9868981838226318,0.2021038830280304
1761475872888824600,1.538824462890625,0.13927499949932098,1.0565552711486816,0.3037966787815094
1761475872898801700,1.5488017578125,0.15669958293437958,0.9575857520103455,0.4095335602760315
1761475872908778800,1.55877880859375,0.18109892308712006,0.8426495790481567,0.5443902015686035
1761475872918755600,1.568755615234375,0.2112988382577896,0.7820284366607666,0.6778691411018372
1761475872928732700,1.578732666015625,0.19980649650096893,0.6521228551864624,0.7844624519348145
1761475872938709500,1.58870947265625,0.2038956731557846,0.5381457805633545,0.9625056385993958
1761475872948686600,1.5986865234375,0.2620154619216919,0.4444698989391327,1.2135283946990967
1761475872958663400,1.608663330078125,0.28528928756713867,0.19065313041210175,1.4024995565414429
1761475872968640500,1.618640625,0.21887750923633575,-0.2649700343608856,1.5006251335144043
1761475872978617600,1.62861767578125,0.059598326683044434,-0.7738984823226929,1.573182463645935
1761475872988594400,1.638594482421875,-0.07250591367483139,-0.9896012544631958,1.695902705192566
1761475872998571500,1.648571533203125,-0.11623705178499222,-0.9249736666679382,1.8476976156234741
1761475873008548600,1.658548583984375,-0.1427549421787262,-0.7511720657348633,1.9236712455749512
1761475873018525700,1.668525634765625,-0.04927394539117813,-0.461123526096344,1.9420572519302368
1761475873028502500,1.67850244140625,0.1368597149848938,-0.3032737076282501,1.8271173238754272
1761475873038479600,1.688479736328125,0.31951987743377686,-0.21441423892974854,1.5925744771957397
1761475873048456700,1.698456787109375,0.46335187554359436,-0.15063153207302094,1.243778944015503
1761475873058433500,1.70843359375,0.5699129700660706,-0.14390604197978973,0.8205097317695618
1761475873068410600,1.71841064453125,0.6466127634048462,-0.12852893769741058,0.421762079000473
1761475873078387500,1.728387451171875,0.7164671421051025,-0.10961981862783432,0.08364910632371902
1761475873088364500,1.738364501953125,0.7846376895904541,-0.17892804741859436,-0.2321687638759613
1761475873098341400,1.74834130859375,0.8521730303764343,-0.3139202892780304,-0.5374753475189209
1761475873108318500,1.758318359375,0.8780437707901001,-0.3881785273551941,-0.8125966787338257
1761475873118295600,1.768295654296875,0.8098018169403076,-0.38861727714538574,-1.0390266180038452
1761475873128272600,1.778272705078125,0.713011622428894,-0.31701794266700745,-1.1966817378997803
1761475873138250500,1.78825048828125,0.6681016683578491,-0.18774531781673431,-1.2982224225997925
1761475873148227600,1.7982275390625,0.7046559453010559,-0.15794241428375244,-1.3369942903518677
1761475873158204700,1.80820458984375,0.7773671746253967,-0.22796779870986938,-1.3274600505828857
1761475873168181800,1.818181640625,0.8301917910575867,-0.3366977572441101,-1.281351089477539
1761475873178158600,1.82815869140625,0.8077957630157471,-0.4354122281074524,-1.2120277881622314
1761475873188135700,1.8381357421875,0.692581295967102,-0.47661134600639343,-1.1434260606765747
1761475873198112500,1.848112548828125,0.5025297999382019,-0.40713566541671753,-1.1030001640319824
1761475873208089600,1.858089599609375,0.2508317530155182,-0.26808589696884155,-1.123651385307312
1761475873218066400,1.86806640625,-0.015490400604903698,-0.11976923048496246,-1.2066066265106201
1761475873228043500,1.87804345703125,-0.24500241875648499,0.03347838297486305,-1.3137887716293335
1761475873238020600,1.8880205078125,-0.3724462389945984,0.17741096019744873,-1.4073023796081543
1761475873247997400,1.89799755859375,-0.3567410409450531,0.29986098408699036,-1.4365133047103882
1761475873257974500,1.907974609375,-0.21616458892822266,0.3762449026107788,-1.3858145475387573
1761475873267951600,1.91795166015625,-0.0286926981061697,0.3912579119205475,-1.277703046798706
1761475873277928700,1.9279287109375,0.13002686202526093,0.35770535469055176,-1.137122631072998
1761475873287904800,1.93790478515625,0.22652970254421234,0.3285975456237793,-0.9714633822441101
1761475873297881900,1.9478818359375,0.2607840597629547,0.2961428761482239,-0.7871702313423157
1761475873307858700,1.957858642578125,0.22802875936031342,0.27786800265312195,-0.5983930826187134
1761475873317835800,1.967835693359375,0.11966080963611603,0.26624953746795654,-0.424414724111557
1761475873327812600,1.9778125,-0.029236262664198875,0.264345645904541,-0.27041664719581604
1761475873337789700,1.987789794921875,-0.13265933096408844,0.2773973345756531,-0.11975175142288208
1761475873347766800,1.997766845703125,-0.20598654448986053,0.2826637327671051,0.005114020314067602
1761475873357743600,2.00774365234375,-0.25600093603134155,0.27332961559295654,0.11189419776201248
1761475873367721000,2.017720947265625,-0.29267799854278564,0.20818202197551727,0.18250791728496552
1761475873377697800,2.02769775390625,-0.33505696058273315,0.10457716137170792,0.24219746887683868
1761475873387675000,2.0376748046875,-0.36403053998947144,0.03632513806223869,0.3564998209476471
1761475873397651700,2.047651611328125,-0.34993425011634827,0.07755446434020996,0.557174026966095
1761475873407628800,2.05762890625,-0.2733055055141449,0.1542138159275055,0.8180261254310608
1761475873417606000,2.06760595703125,-0.1374170333147049,0.17903505265712738,1.0514403581619263
1761475873427582700,2.077582763671875,0.016976002603769302,0.1083126813173294,1.1980814933776855
1761475873437559800,2.087559814453125,0.1485683023929596,0.06912489980459213,1.3093671798706055
1761475873447536600,2.09753662109375,0.24244099855422974,0.1251239776611328,1.4638727903366089
1761475873457513700,2.107513671875,0.24542516469955444,0.24562357366085052,1.6064234972000122
1761475873467490600,2.117490478515625,0.11189693957567215,0.22525757551193237,1.6416847705841064
1761475873477467600,2.127467529296875,-0.14626632630825043,-0.06394008547067642,1.5805453062057495
1761475873487445000,2.137445068359375,-0.45470619201660156,-0.3858603239059448,1.5900826454162598
1761475873497421800,2.147421875,-0.6786499619483948,-0.39997410774230957,1.8362805843353271
1761475873507399000,2.15739892578125,-0.717862606048584,-0.22378014028072357,2.154006242752075
1761475873517375700,2.167375732421875,-0.6438827514648438,-0.08496183156967163,2.2531778812408447
1761475873527352800,2.177352783203125,-0.4733874499797821,0.08252650499343872,2.078556537628174
1761475873537329700,2.18732958984375,-0.23220185935497284,0.24650783836841583,1.681104302406311
1761475873547306800,2.197306640625,-0.0124021265655756,0.3658808469772339,1.193471074104309
1761475873557283800,2.207283935546875,0.1573186069726944,0.4690655767917633,0.6912714838981628
1761475873567260700,2.2172607421875,0.23546241223812103,0.5661937594413757,0.150818333029747
1761475873577237800,2.22723779296875,0.20017190277576447,0.561307966709137,-0.40354490280151367
1761475873587214600,2.237214599609375,0.1356475055217743,0.43070465326309204,-0.9129346609115601
1761475873597192000,2.24719189453125,0.10684683918952942,0.2253519594669342,-1.2967228889465332
1761475873607168800,2.257168701171875,0.14168685674667358,-0.04973313584923744,-1.5128765106201172
1761475873617145900,2.267145751953125,0.1057429239153862,-0.3060378432273865,-1.5687670707702637
1761475873627123000,2.277123046875,-0.03798815235495567,-0.43458354473114014,-1.459495186805725
1761475873637099800,2.287099853515625,-0.22173215448856354,-0.44145745038986206,-1.2713899612426758
1761475873647076900,2.297076904296875,-0.4116959869861603,-0.3595993220806122,-1.105555772781372
1761475873657053700,2.3070537109375,-0.5774309635162354,-0.22781723737716675,-1.0231707096099854
1761475873667030800,2.31703076171875,-0.6824721693992615,-0.12615559995174408,-1.0194768905639648
1761475873677007600,2.327007568359375,-0.680169939994812,-0.16467876732349396,-1.036285400390625
1761475873686984700,2.336984619140625,-0.5077086687088013,-0.31907764077186584,-1.0019737482070923
1761475873696961800,2.3469619140625,-0.2363271266222,-0.44963639974594116,-0.8658376932144165
1761475873706938600,2.356938720703125,-0.001707166898995638,-0.49819567799568176,-0.6318707466125488
1761475873716916000,2.366916015625,0.10099460184574127,-0.38596057891845703,-0.3713184595108032
1761475873726892800,2.376892822265625,0.07215842604637146,-0.12144609540700912,-0.16261611878871918
1761475873736870000,2.386869873046875,-0.03564082831144333,0.15586577355861664,-0.035323817282915115
1761475873746846700,2.3968466796875,-0.17471855878829956,0.33261311054229736,0.06229275465011597
1761475873756823800,2.40682373046875,-0.30516815185546875,0.3889823257923126,0.15395788848400116
1761475873766801000,2.41680078125,-0.37344226241111755,0.33677905797958374,0.24377672374248505
1761475873776777700,2.42677783203125,-0.3577440679073334,0.16172467172145844,0.3129362165927887
1761475873786754800,2.4367548828125,-0.26981741189956665,-0.0840827003121376,0.35551536083221436
1761475873796731600,2.446731689453125,-0.16379371285438538,-0.32913005352020264,0.36466485261917114
1761475873806708700,2.456708740234375,-0.061806101351976395,-0.5035897493362427,0.3794131875038147
1761475873816685600,2.466685546875,0.023557398468255997,-0.5257843732833862,0.40860480070114136
1761475873826662700,2.47666259765625,0.062294408679008484,-0.44389432668685913,0.4328368902206421
1761475873836640000,2.486639892578125,0.05538724735379219,-0.3060196340084076,0.4614884853363037
1761475873846616800,2.496616943359375,0.04098700359463692,-0.13194504380226135,0.525725781917572
1761475873856594000,2.506593994140625,0.034145694226026535,0.01785873807966709,0.6201840043067932
1761475873866570800,2.51657080078125,0.036551330238580704,0.13704265654087067,0.7129634618759155
1761475873876547800,2.5265478515625,0.02181885950267315,0.18363480269908905,0.7760310173034668
1761475873886524700,2.536524658203125,-0.006048724055290222,0.14745762944221497,0.8209269046783447
1761475873896501800,2.546501708984375,-0.03802110627293587,0.07641074061393738,0.8483957648277283
1761475873906478800,2.556478759765625,-0.08143089711666107,0.021433239802718163,0.8907591700553894
1761475873916455700,2.56645556640625,-0.10389839112758636,-0.04607589915394783,0.9757189750671387
1761475873926432800,2.576432861328125,-0.06500771641731262,-0.05390239506959915,1.1248223781585693
1761475873936409600,2.58640966796875,0.0538572333753109,0.02584000676870346,1.2884095907211304
1761475873946386700,2.59638671875,0.20418255031108856,0.14847084879875183,1.4266471862792969
1761475873956363800,2.60636376953125,0.348719984292984,0.29030755162239075,1.5415539741516113
1761475873966340900,2.6163408203125,0.4144822359085083,0.37590286135673523,1.6050982475280762
1761475873976318000,2.62631787109375,0.29289528727531433,0.3303830325603485,1.5897204875946045
1761475873986294800,2.636294677734375,-0.04250722751021385,0.14558681845664978,1.510101318359375
1761475873996271900,2.64627197265625,-0.4585143029689789,-0.1409154087305069,1.3910809755325317
1761475874006248700,2.656248779296875,-0.7342058420181274,-0.37006789445877075,1.3089295625686646
1761475874016225800,2.666225830078125,-0.6898576617240906,-0.430759072303772,1.305659532546997
1761475874026202600,2.67620263671875,-0.39522096514701843,-0.3414108157157898,1.2767894268035889
1761475874036179700,2.6861796875,-0.11068002134561539,-0.2949685752391815,1.0617245435714722
1761475874046156800,2.69615673828125,0.03497331961989403,-0.3217211067676544,0.6473198533058167
1761475874056133600,2.706133544921875,0.03391597419977188,-0.40518563985824585,0.05400792881846428
1761475874066111000,2.716111083984375,-0.07350076735019684,-0.7231007814407349,-0.7585102915763855
1761475874076087800,2.726087890625,-0.24079479277133942,-1.2352869510650635,-1.6232523918151855
1761475874086065000,2.73606494140625,-0.34956255555152893,-1.6221721172332764,-2.085620164871216
1761475874096041700,2.746041748046875,-0.34353235363960266,-1.5575743913650513,-1.90108323097229
1761475874106018800,2.756018798828125,-0.19675970077514648,-0.9927681684494019,-1.2427948713302612
1761475874115996000,2.765995849609375,0.013622160069644451,-0.1517215520143509,-0.5087956786155701
1761475874125972700,2.77597265625,0.25349095463752747,0.4640561640262604,-0.05840958282351494
1761475874135949800,2.78594970703125,0.4607495963573456,0.7395362257957458,0.09558184444904327
1761475874145926700,2.7959267578125,0.5859493613243103,0.8025194406509399,0.09709078818559647
1761475874155903700,2.80590380859375,0.5834816098213196,0.7308976054191589,0.008749567903578281
1761475874165880600,2.815880615234375,0.4475650191307068,0.4801950752735138,-0.16930724680423737
1761475874175857700,2.825857666015625,0.21755650639533997,0.11291195452213287,-0.4411042630672455
1761475874185835000,2.8358349609375,-0.0003209627466276288,-0.23186112940311432,-0.7662040591239929
1761475874195811800,2.845811767578125,-0.13683068752288818,-0.4336848258972168,-1.1323275566101074
1761475874205789000,2.855788818359375,-0.17979946732521057,-0.4913681149482727,-1.5293235778808594
1761475874215765800,2.865765869140625,-0.17654478549957275,-0.4245506823062897,-1.8699043989181519
1761475874225742800,2.875742919921875,-0.1718594878911972,-0.23746174573898315,-2.094810724258423
1761475874235719700,2.8857197265625,-0.2308013141155243,-0.008305173367261887,-2.221041440963745
1761475874245696800,2.89569677734375,-0.3915790319442749,0.2142791748046875,-2.2597031593322754
1761475874255673900,2.905673828125,-0.5761919021606445,0.36833086609840393,-2.177462339401245
1761475874265650700,2.915650634765625,-0.677323579788208,0.49162375926971436,-1.9230424165725708
1761475874275627800,2.925627685546875,-0.6522853374481201,0.6791954636573792,-1.575309157371521
1761475874285604600,2.9356044921875,-0.49398699402809143,0.789706289768219,-1.1991770267486572
1761475874295582500,2.94558251953125,-0.3042096495628357,0.7991079688072205,-0.8906095623970032
1761475874305559600,2.9555595703125,-0.09044463187456131,0.6618347764015198,-0.6697509288787842
1761475874315536400,2.965536376953125,0.13828624784946442,0.36336401104927063,-0.5067886114120483
1761475874325513700,2.975513671875,0.34157782793045044,-0.0030470206402242184,-0.35676631331443787
1761475874335490600,2.985490478515625,0.48402124643325806,-0.32024261355400085,-0.24088653922080994
1761475874345467600,2.995467529296875,0.4993631839752197,-0.47631582617759705,-0.15269915759563446
1761475874355444500,3.005444580078125,0.45074984431266785,-0.43003585934638977,-0.08045089989900589
1761475874365421600,3.015421630859375,0.3636588752269745,-0.23100478947162628,-0.024882448837161064
1761475874375398700,3.025398681640625,0.27400797605514526,0.03847172111272812,0.038972340524196625
1761475874385375500,3.03537548828125,0.22288990020751953,0.347745418548584,0.1225375384092331
1761475874395352600,3.0453525390625,0.19933469593524933,0.5923795104026794,0.19987933337688446
1761475874405329400,3.055329345703125,0.16805507242679596,0.7125266790390015,0.24866391718387604
1761475874415306500,3.065306396484375,0.0970713198184967,0.7114869952201843,0.2779374122619629
1761475874425283300,3.075283447265625,0.05625331401824951,0.6039139032363892,0.30343931913375854
1761475874435260400,3.085260498046875,0.0389338918030262,0.3812932074069977,0.33766427636146545
1761475874445237800,3.09523779296875,-0.0016388320364058018,0.10314067453145981,0.38749760389328003
1761475874455214600,3.105214599609375,-0.0535089410841465,-0.08463571965694427,0.4924114942550659
1761475874465191700,3.115191650390625,-0.07544060051441193,-0.11534836143255234,0.6474274396896362
1761475874475168500,3.12516845703125,-0.020451711490750313,-0.04320476949214935,0.8092675805091858
1761475874485145600,3.1351455078125,0.07100310176610947,0.058067791163921356,0.9850268959999084
1761475874495122400,3.145122314453125,0.12027118355035782,0.13042466342449188,1.162514328956604
1761475874505099500,3.155099609375,0.0675315409898758,0.15786613523960114,1.318573236465454
1761475874515076600,3.16507666015625,-0.12148921191692352,0.20934206247329712,1.4654947519302368
1761475874525053400,3.175053466796875,-0.3503918945789337,0.4112269878387451,1.6265100240707397
1761475874535030500,3.185030517578125,-0.5227749347686768,0.732666015625,1.722737431526184
1761475874545007400,3.19500732421875,-0.6371363997459412,0.9403467774391174,1.6304548978805542
1761475874554984400,3.204984375,-0.6404091715812683,1.0275516510009766,1.3696585893630981
1761475874564961500,3.21496142578125,-0.5610741376876831,0.9638736844062805,1.019169807434082
1761475874574938600,3.224938720703125,-0.5272523164749146,0.7606894373893738,0.6480705738067627
1761475874584915700,3.234915771484375,-0.5525656938552856,0.49442315101623535,0.26189059019088745
1761475874594892500,3.244892578125,-0.5665777325630188,0.32391396164894104,-0.1754838526248932
1761475874604869600,3.25486962890625,-0.6077609062194824,0.2407652884721756,-0.6804735064506531
1761475874614846500,3.264846435546875,-0.6452140212059021,0.21789197623729706,-1.2180447578430176
1761475874624823600,3.274823486328125,-0.6448675394058228,0.1501440852880478,-1.7146397829055786
1761475874634800400,3.28480029296875,-0.5797047019004822,0.012522697448730469,-2.028811454772949
1761475874644777500,3.294777587890625,-0.3879344165325165,-0.22650665044784546,-2.0849719047546387
1761475874654754600,3.304754638671875,-0.060245782136917114,-0.5922660231590271,-2.0002095699310303
1761475874664731400,3.3147314453125,0.2966436445713043,-1.0603502988815308,-1.904850721359253
1761475874674708500,3.32470849609375,0.568210244178772,-1.4779704809188843,-1.7822132110595703
1761475874684685600,3.334685546875,0.7012439370155334,-1.6583653688430786,-1.650970697402954
1761475874694662700,3.34466259765625,0.7377113699913025,-1.6040785312652588,-1.536417007446289
1761475874704639500,3.354639404296875,0.7059792876243591,-1.3473817110061646,-1.396022081375122
1761475874714616600,3.364616455078125,0.6158188581466675,-0.993960440158844,-1.168068528175354
1761475874724593700,3.37459375,0.5015674233436584,-0.6168142557144165,-0.8270102143287659
1761475874734570500,3.384570556640625,0.4206610918045044,-0.3088434338569641,-0.46714019775390625
1761475874744547600,3.394547607421875,0.3901122212409973,-0.15260080993175507,-0.18874451518058777
1761475874754524400,3.4045244140625,0.3957536518573761,-0.07943645119667053,-0.010654623620212078
1761475874764501500,3.41450146484375,0.4098851978778839,-0.08288950473070145,0.08609215915203094
1761475874774478300,3.424478271484375,0.41142597794532776,-0.16396799683570862,0.11243461817502975
1761475874784455400,3.434455322265625,0.3584117591381073,-0.3818659782409668,0.08800890296697617
1761475874794432800,3.444432861328125,0.19915106892585754,-0.6446086168289185,0.038635652512311935
1761475874804409600,3.45440966796875,-0.07415024191141129,-0.7469472289085388,-0.03240203857421875
1761475874814386700,3.46438671875,-0.39271509647369385,-0.6575176119804382,-0.1134064719080925
1761475874824363500,3.474363525390625,-0.6251957416534424,-0.397551029920578,-0.16497300565242767
1761475874834340600,3.484340576171875,-0.7114829421043396,-0.025510840117931366,-0.13947948813438416
1761475874844317400,3.4943173828125,-0.6581557989120483,0.34513619542121887,-0.033271029591560364
1761475874854294500,3.50429443359375,-0.5173833966255188,0.5952933430671692,0.12783075869083405
1761475874864271600,3.514271728515625,-0.3330508768558502,0.6860315203666687,0.288158118724823
1761475874874248400,3.52424853515625,-0.13405925035476685,0.6291351914405823,0.3966773748397827
1761475874884225500,3.5342255859375,0.04073385149240494,0.47164812684059143,0.42485281825065613
1761475874894202400,3.544202392578125,0.1360992193222046,0.2662765085697174,0.3806266784667969
1761475874904179500,3.554179443359375,0.12182547152042389,0.0658203735947609,0.3231487572193146
1761475874914156500,3.564156494140625,0.03229951113462448,-0.09911318868398666,0.3115398585796356
1761475874924133600,3.574133544921875,-0.09712771326303482,-0.14754970371723175,0.36315616965293884
1761475874934110700,3.58411083984375,-0.22797998785972595,-0.10526197403669357,0.4643374979496002
1761475874944087600,3.594087646484375,-0.33037322759628296,-0.028791435062885284,0.5802965760231018
1761475874954064600,3.604064697265625,-0.3733217716217041,0.06522216647863388,0.6914843320846558
1761475874964041500,3.61404150390625,-0.335823655128479,0.15881656110286713,0.7919456958770752
1761475874974018600,3.6240185546875,-0.26061373949050903,0.21406008303165436,0.8934481739997864
1761475874983995400,3.633995361328125,-0.2153213918209076,0.21403184533119202,0.9734090566635132
1761475874993972500,3.643972412109375,-0.21149002015590668,0.17291107773780823,1.0291861295700073
1761475875003949600,3.653949462890625,-0.23579615354537964,0.11149938404560089,1.0744776725769043
1761475875013926400,3.663926513671875,-0.23832805454730988,0.028152773156762123,1.0969133377075195
1761475875023903500,3.673903564453125,-0.22226493060588837,-0.06265542656183243,1.0806387662887573
1761475875033880600,3.683880615234375,-0.1698746681213379,-0.14418527483940125,1.079380750656128
1761475875043857700,3.693857666015625,-0.06298097223043442,-0.21132570505142212,1.1250680685043335
1761475875053834500,3.70383447265625,0.048323314636945724,-0.2628105878829956,1.2301533222198486
1761475875063811600,3.7138115234375,0.08164452016353607,-0.26203453540802,1.4188369512557983
1761475875073788700,3.72378857421875,-0.035008616745471954,-0.18656526505947113,1.6423500776290894
1761475875083765500,3.733765625,-0.2976500988006592,-0.07615727186203003,1.8460211753845215
1761475875093742600,3.74374267578125,-0.5206608772277832,0.04385504871606827,2.02858304977417
1761475875103719400,3.753719482421875,-0.6307881474494934,0.07217110693454742,2.026078939437866
1761475875113696500,3.763696533203125,-0.6863386631011963,-0.14823095500469208,1.6404364109039307
1761475875123673300,3.77367333984375,-0.8302662968635559,-0.5561760663986206,0.8865216374397278
1761475875133650400,3.783650390625,-0.9871396422386169,-0.7385953068733215,0.1237231194972992
1761475875143627500,3.79362744140625,-0.8683844804763794,-0.5793699622154236,-0.32945236563682556
1761475875153604600,3.8036044921875,-0.47867491841316223,-0.19126398861408234,-0.4529050588607788
1761475875163581700,3.813581787109375,-0.03337468206882477,0.28150248527526855,-0.4055767059326172
1761475875173558500,3.82355859375,0.36354875564575195,0.6761950850486755,-0.3342404067516327
1761475875183535600,3.83353564453125,0.6032814383506775,0.84001225233078,-0.3325575590133667
1761475875193512400,3.843512451171875,0.566707193851471,0.5733722448348999,-0.49601122736930847
1761475875203489500,3.853489501953125,0.3812207281589508,0.055080585181713104,-0.7163281440734863
1761475875213466600,3.863466552734375,0.21434944868087769,-0.5291640758514404,-0.8586834073066711
1761475875223443500,3.873443359375,0.19779710471630096,-1.0435932874679565,-0.8995552062988281
1761475875233420500,3.883420654296875,0.30049917101860046,-1.3328282833099365,-0.7950734496116638
1761475875243397400,3.8933974609375,0.4587676227092743,-1.3052046298980713,-0.5813121199607849
1761475875253374500,3.90337451171875,0.6654278039932251,-1.031873345375061,-0.366338312625885
1761475875263351600,3.9133515625,0.8577868342399597,-0.5998363494873047,-0.2041803002357483
1761475875273328600,3.92332861328125,0.9865273237228394,-0.17165346443653107,-0.12217366695404053
1761475875283305700,3.9333056640625,1.0126867294311523,0.09055496752262115,-0.11038625240325928
1761475875293282300,3.9432822265625,0.9734764099121094,0.16348765790462494,-0.14691194891929626
1761475875303259400,3.95325927734375,0.8957792520523071,0.00782029703259468,-0.20468470454216003
1761475875313236200,3.963236328125,0.8025714159011841,-0.2839786410331726,-0.27038493752479553
1761475875323213300,3.97321337890625,0.7199135422706604,-0.53538578748703,-0.3172818720340729
1761475875333190100,3.983190185546875,0.6490721702575684,-0.5938684344291687,-0.3863779902458191
1761475875343167200,3.993167236328125,0.5079494118690491,-0.4269399046897888,-0.5372551083564758
1761475875353144000,4.00314404296875,0.2554539144039154,-0.08730026334524155,-0.7685768604278564
1761475875363121200,4.01312109375,-0.07423022389411926,0.3342363238334656,-1.027723789215088
1761475875373098500,4.023098388671875,-0.3948519825935364,0.7470890879631042,-1.2192697525024414
1761475875383075300,4.033075439453125,-0.6182270646095276,1.0961605310440063,-1.299915075302124
1761475875393052400,4.043052490234375,-0.6985588073730469,1.3616503477096558,-1.2664622068405151
1761475875403029200,4.053029296875,-0.6054155230522156,1.5416604280471802,-1.1507606506347656
1761475875413006300,4.06300634765625,-0.3841862082481384,1.6046220064163208,-1.0124704837799072
1761475875422983200,4.072983154296875,-0.09007522463798523,1.4997433423995972,-0.8613414764404297
1761475875432960300,4.082960205078125,0.23315903544425964,1.239506721496582,-0.6895915269851685
1761475875442937300,4.092937255859375,0.5095610618591309,0.8985094428062439,-0.5025771856307983
1761475875452914200,4.1029140625,0.6624006628990173,0.5574705600738525,-0.2617541253566742
1761475875462891300,4.112891357421875,0.6934709548950195,0.2987407445907593,0.01943627931177616
1761475875472868000,4.1228681640625,0.6388757228851318,0.11347710341215134,0.29331743717193604
1761475875482845200,4.13284521484375,0.49323704838752747,-0.0025685406289994717,0.506626546382904
1761475875492822300,4.142822265625,0.3043515980243683,-0.03256973624229431,0.6608205437660217
1761475875502799400,4.15279931640625,0.11895590275526047,-0.007385553792119026,0.775410532951355
1761475875512776400,4.1627763671875,-0.033067479729652405,-0.004947219975292683,0.8933544754981995
1761475875522753300,4.172753173828125,-0.14574849605560303,-0.05317147448658943,1.0219277143478394
1761475875532730400,4.18273046875,-0.21570423245429993,-0.1563294529914856,1.135812520980835
1761475875542707200,4.192707275390625,-0.2620551884174347,-0.30090367794036865,1.2074276208877563
1761475875552684300,4.202684326171875,-0.27124011516571045,-0.38871848583221436,1.2463098764419556
1761475875562661000,4.2126611328125,-0.2103903442621231,-0.3423541784286499,1.277328610420227
1761475875572638200,4.22263818359375,-0.1244058758020401,-0.23448671400547028,1.2650995254516602
1761475875582615300,4.232615234375,-0.05490988865494728,-0.10170870274305344,1.2395936250686646
1761475875592592100,4.242592041015625,0.025522984564304352,0.024329427629709244,1.2667006254196167
1761475875602569200,4.2525693359375,0.10636776685714722,0.005221779458224773,1.2869644165039062
1761475875612546300,4.26254638671875,0.14224278926849365,-0.20699717104434967,1.2314316034317017
1761475875622523400,4.2725234375,0.07996290922164917,-0.4530479609966278,1.12838613986969
1761475875632500200,4.282500244140625,-0.005112179089337587,-0.5887751579284668,1.0807337760925293
1761475875642477300,4.292477294921875,-0.12967514991760254,-0.5955891609191895,1.0578758716583252
1761475875652454400,4.302454345703125,-0.4234621524810791,-0.5963619351387024,0.9630140066146851
1761475875662431200,4.31243115234375,-0.7428968548774719,-0.48832976818084717,0.8191136121749878
1761475875672408300,4.322408203125,-0.9041327834129333,-0.2874104380607605,0.6900814175605774
1761475875682385200,4.33238525390625,-0.9055436849594116,-0.13426615297794342,0.5100394487380981
1761475875692362200,4.3423623046875,-0.6736112236976624,-0.07118929922580719,0.268463134765625
1761475875702339000,4.352339111328125,-0.3003758490085602,-0.06743956357240677,-0.02485634945333004
1761475875712316200,4.362316162109375,-0.0377928726375103,-0.07215370237827301,-0.4144430160522461
1761475875722293500,4.37229345703125,-0.005600579082965851,-0.10512124001979828,-0.8094981908798218
1761475875732270300,4.382270263671875,-0.13582444190979004,-0.12240758538246155,-1.1290154457092285
1761475875742247400,4.392247314453125,-0.3089602589607239,-0.13218511641025543,-1.3342880010604858
1761475875752224300,4.402224365234375,-0.4832017123699188,-0.09476795047521591,-1.3756071329116821
1761475875762201300,4.412201416015625,-0.609796404838562,-0.013154316693544388,-1.2795122861862183
1761475875772178200,4.42217822265625,-0.6668352484703064,-0.031374476850032806,-1.175384521484375
1761475875782155300,4.4321552734375,-0.647284984588623,-0.2938825190067291,-1.1576443910598755
1761475875792132400,4.44213232421875,-0.5659182071685791,-0.743033230304718,-1.2278947830200195
1761475875802109200,4.452109130859375,-0.4676171839237213,-1.0740233659744263,-1.3235541582107544
1761475875812086300,4.462086181640625,-0.37715959548950195,-1.1277190446853638,-1.3259800672531128
1761475875822063000,4.47206298828125,-0.2771640121936798,-0.9352357983589172,-1.204182505607605
1761475875832040200,4.482040283203125,-0.177729994058609,-0.590572714805603,-1.0551365613937378
1761475875842017300,4.492017333984375,-0.09243559837341309,-0.2287522405385971,-0.982107937335968
1761475875851994400,4.501994384765625,0.02926013246178627,0.07692032307386398,-0.947335958480835
1761475875861971500,4.511971435546875,0.3050435185432434,0.26268061995506287,-0.8929097652435303
1761475875871948300,4.5219482421875,0.7329607009887695,0.3504926264286041,-0.80179762840271
1761475875881925400,4.53192529296875,1.103739857673645,0.3863486349582672,-0.6278820037841797
1761475875891902200,4.541902099609375,1.2731654644012451,0.32802265882492065,-0.41865432262420654
1761475875901879300,4.55187939453125,1.2311540842056274,0.20769278705120087,-0.23741796612739563
1761475875911856000,4.561856201171875,1.0401169061660767,0.04486917704343796,-0.06941309571266174
1761475875921833200,4.571833251953125,0.7550236582756042,-0.12812097370624542,0.11268293857574463
1761475875931810300,4.581810302734375,0.42650604248046875,-0.24594421684741974,0.3131368160247803
1761475875941787100,4.591787109375,0.14712075889110565,-0.2139069139957428,0.5330632925033569
1761475875951764200,4.60176416015625,0.023800162598490715,-0.036074716597795486,0.7967785596847534
1761475875961741300,4.6117412109375,0.07148938626050949,0.1898878514766693,1.0893059968948364
1761475875971718400,4.621718505859375,0.23669815063476562,0.33964014053344727,1.3516689538955688
1761475875981695200,4.6316953125,0.43660858273506165,0.4121207296848297,1.5350297689437866
1761475875991672300,4.64167236328125,0.6278164982795715,0.39603981375694275,1.6471507549285889
1761475876001649400,4.6516494140625,0.7630033493041992,0.3159868121147156,1.6793291568756104
1761475876011626200,4.661626220703125,0.7475669384002686,0.24450816214084625,1.5819344520568848
1761475876021603300,4.671603271484375,0.5660101175308228,0.21308419108390808,1.3664870262145996
1761475876031580200,4.681580078125,0.24999679625034332,0.15637792646884918,1.1160180568695068
1761475876041557200,4.69155712890625,-0.1177511215209961,0.09961237758398056,0.9104968309402466
1761475876051534000,4.7015341796875,-0.44325554370880127,0.077964648604393,0.798188328742981
1761475876061511200,4.71151123046875,-0.6679821610450745,0.10676966607570648,0.7799137234687805
1761475876071488300,4.72148828125,-0.8013094067573547,0.19544661045074463,0.8300397396087646
1761475876081465300,4.73146533203125,-0.8503277897834778,0.316311776638031,0.9153666496276855
1761475876091442400,4.7414423828125,-0.8423537015914917,0.45049479603767395,0.9920123219490051
1761475876101419300,4.751419189453125,-0.7934886813163757,0.5921019911766052,1.0536983013153076
1761475876111396400,4.761396240234375,-0.7319230437278748,0.6287545561790466,1.054979920387268
1761475876121373200,4.771373291015625,-0.6799445152282715,0.4636790454387665,0.9475192427635193
1761475876131350300,4.781350341796875,-0.6432316899299622,0.17325587570667267,0.7676414251327515
1761475876141327400,4.791327392578125,-0.6007190942764282,-0.10532036423683167,0.5884479880332947
1761475876151304200,4.80130419921875,-0.551143229007721,-0.32048389315605164,0.47054994106292725
1761475876161281300,4.81128125,-0.49303194880485535,-0.36933374404907227,0.5140396356582642
1761475876171258000,4.821258056640625,-0.3330555558204651,-0.1408105343580246,0.7733629941940308
1761475876181235200,4.831235107421875,-0.0671977624297142,0.2561328411102295,1.143731951713562
1761475876191212300,4.84121240234375,0.14506813883781433,0.39622053503990173,1.282828450202942
1761475876201189400,4.851189453125,0.19561652839183807,0.2434014230966568,1.0478342771530151
1761475876211166500,4.86116650390625,0.13148023188114166,-0.11053068935871124,0.651246190071106
1761475876221143300,4.871143310546875,-0.04431849718093872,-0.5107523798942566,0.36205965280532837
1761475876231120400,4.881120361328125,-0.2518463730812073,-0.6515361666679382,0.368735671043396
1761475876241097200,4.89109716796875,-0.3981871008872986,-0.6398366093635559,0.5087034106254578
1761475876251074300,4.90107421875,-0.4492736756801605,-0.6439470052719116,0.49397048354148865
1761475876261051100,4.911051025390625,-0.36702194809913635,-0.6250467896461487,0.22503648698329926
1761475876271028200,4.9210283203125,-0.2571191191673279,-0.6690340638160706,-0.2695721983909607
1761475876281005300,4.93100537109375,-0.21854589879512787,-0.8055985569953918,-0.8272472023963928
1761475876290981400,4.9409814453125,-0.221807599067688,-0.8426688313484192,-1.185349464416504
1761475876300959000,4.950958984375,-0.22207552194595337,-0.7969295382499695,-1.292617917060852
1761475876310936000,4.96093603515625,-0.2538473606109619,-0.7297400236129761,-1.3505964279174805
1761475876320913000,4.970912841796875,-0.3811797499656677,-0.8751198649406433,-1.5982624292373657
1761475876330890000,4.980889892578125,-0.5748719573020935,-1.2480844259262085,-1.9855247735977173
1761475876340866800,4.99086669921875,-0.725543200969696,-1.622456669807434,-2.2140212059020996
1761475876350844000,5.000843994140625,-0.7863083481788635,-1.9308196306228638,-2.216143846511841
1761475876360821000,5.010821044921875,-0.6728499531745911,-1.9605735540390015,-1.9956961870193481
1761475876370797800,5.0207978515625,-0.45923641324043274,-1.5898325443267822,-1.5457391738891602
1761475876380775000,5.03077490234375,-0.2404864877462387,-1.0066196918487549,-0.9583297371864319
1761475876390751700,5.040751708984375,0.0077098761685192585,-0.4170340597629547,-0.3331535756587982
1761475876400728000,5.05072802734375,0.24396075308322906,0.08710713684558868,0.17483694851398468
1761475876410705000,5.060704833984375,0.44088852405548096,0.25802990794181824,0.4769732654094696
1761475876420682000,5.070681884765625,0.5879152417182922,-0.0003127148374915123,0.6102186441421509
1761475876430658800,5.080658935546875,0.7107457518577576,-0.40152284502983093,0.6560438275337219
1761475876440636000,5.090635986328125,0.8337147831916809,-0.5943232178688049,0.6078417301177979
1761475876450613000,5.100613037109375,0.9116664528846741,-0.5784469842910767,0.44405537843704224
1761475876460589800,5.11058984375,0.8698106408119202,-0.3980899751186371,0.20972461998462677
1761475876470567000,5.12056689453125,0.6826702356338501,-0.031117450445890427,0.027563029900193214
1761475876480543700,5.130543701171875,0.38278552889823914,0.4790842831134796,-0.0579524002969265
1761475876490520800,5.140520751953125,0.07849394530057907,0.9948880672454834,-0.009414786472916603
1761475876500498000,5.150497802734375,-0.06474923342466354,1.4398598670959473,0.1694130152463913
1761475876510475000,5.16047509765625,0.0034324065782129765,1.7415310144424438,0.4026547968387604
1761475876520452000,5.1704521484375,0.1824311912059784,1.7633239030838013,0.6047266125679016
1761475876530429000,5.180428955078125,0.3758791387081146,1.4784905910491943,0.6896770596504211
1761475876540406000,5.190406005859375,0.5354751944541931,0.9552298188209534,0.7076811194419861
1761475876550382800,5.2003828125,0.5894327759742737,0.42723822593688965,0.7179980874061584
1761475876560360000,5.21035986328125,0.5132855772972107,0.07094559818506241,0.6885717511177063
1761475876570336800,5.220336669921875,0.35611799359321594,-0.009915435686707497,0.6076228618621826
1761475876580313900,5.23031396484375,0.18162128329277039,0.1181836798787117,0.5330737829208374
1761475876590291000,5.240291015625,0.07110258936882019,0.4137040972709656,0.5013330578804016
1761475876600267800,5.250267822265625,0.051869504153728485,0.8052191138267517,0.5220034718513489
1761475876610244900,5.260244873046875,0.08595289289951324,1.1188076734542847,0.5635359883308411
1761475876620222000,5.270221923828125,0.12691709399223328,1.2537263631820679,0.6177960634231567
1761475876630199000,5.280198974609375,0.18276406824588776,1.199161410331726,0.671026349067688
1761475876640175900,5.29017578125,0.19445908069610596,0.9566424489021301,0.6872319579124451
1761475876650153000,5.300153076171875,0.15595708787441254,0.5993696451187134,0.6407288312911987
1761475876660130000,5.310130126953125,0.056731436401605606,0.2834247648715973,0.5395846366882324
1761475876670107000,5.32010693359375,-0.08048807829618454,0.15139228105545044,0.4254985749721527
1761475876680084000,5.330083984375,-0.19334004819393158,0.15866270661354065,0.34554943442344666
1761475876690060800,5.340060791015625,-0.23106200993061066,0.26669222116470337,0.2977270185947418
1761475876700038000,5.350037841796875,-0.1497303992509842,0.4860227108001709,0.29569849371910095
1761475876710014700,5.3600146484375,0.10988985747098923,0.7136253118515015,0.32385745644569397
1761475876719991800,5.36999169921875,0.49076130986213684,0.8113247156143188,0.2964321970939636
1761475876729969200,5.37996923828125,0.7876338958740234,0.600640058517456,0.17122618854045868
1761475876739946000,5.389946044921875,0.7562046051025391,0.060709141194820404,-0.08097836375236511
1761475876749923000,5.399923095703125,0.36285731196403503,-0.5335670709609985,-0.40632951259613037
1761475876759900000,5.40989990234375,-0.2180585414171219,-0.871404230594635,-0.5425757765769958
1761475876769877000,5.419876953125,-0.8080976605415344,-0.8401250243186951,-0.29326847195625305
1761475876779853800,5.429853759765625,-1.1505002975463867,-0.4050910174846649,0.2867451012134552
1761475876789831000,5.439830810546875,-1.1059832572937012,0.12886124849319458,0.7870357632637024
1761475876799808000,5.44980810546875,-0.7488922476768494,0.3189329206943512,0.8704587817192078
1761475876809784800,5.459784912109375,-0.1338682919740677,0.07184083014726639,0.524100124835968
1761475876819762000,5.469761962890625,0.4845408797264099,-0.656221866607666,-0.24256347119808197
1761475876829738800,5.47973876953125,0.7526239156723022,-1.5677995681762695,-1.228164792060852
1761475876839715800,5.4897158203125,0.7172470092773438,-1.9954166412353516,-1.931206226348877
1761475876849693000,5.49969287109375,0.45710650086402893,-1.7974841594696045,-2.1988887786865234
1761475876859670000,5.509669921875,0.04183872044086456,-1.0413936376571655,-2.022590398788452
1761475876869646800,5.519646728515625,-0.30845141410827637,-0.1905526965856552,-1.5992822647094727
1761475876879624000,5.5296240234375,-0.40535691380500793,0.10500785708427429,-1.277420163154602
1761475876889601000,5.53960107421875,-0.4497361481189728,-0.4158715009689331,-1.3592278957366943
1761475876899577900,5.549577880859375,-0.5738285183906555,-1.2709922790527344,-1.5235893726348877
1761475876909555000,5.559554931640625,-0.6714915633201599,-1.7518460750579834,-1.3568549156188965
1761475876919531800,5.56953173828125,-0.7200444340705872,-1.7812409400939941,-0.9808858036994934
1761475876929508900,5.5795087890625,-0.6697247624397278,-1.2330162525177002,-0.5291934609413147
1761475876939485700,5.589485595703125,-0.5296049118041992,-0.3884567618370056,-0.2721903920173645
1761475876949462800,5.599462890625,-0.328095018863678,0.3071036636829376,-0.33324357867240906
1761475876959440000,5.60943994140625,-0.12446840107440948,0.7310629487037659,-0.5863264203071594
1761475876969417000,5.6194169921875,-0.03399358689785004,0.8476590514183044,-0.9013574123382568
1761475876979394000,5.62939404296875,-0.08333077281713486,0.6246927976608276,-1.220767617225647
1761475876989371000,5.639370849609375,-0.2233094871044159,0.25336480140686035,-1.486223816871643
1761475876999348000,5.649347900390625,-0.3644019067287445,-0.02585776336491108,-1.6377214193344116
1761475877009324800,5.65932470703125,-0.47814998030662537,-0.15172716975212097,-1.6874799728393555
1761475877019302000,5.669302001953125,-0.573475182056427,-0.14356352388858795,-1.632773518562317
1761475877029279000,5.679279052734375,-0.6719850897789001,0.04482276365160942,-1.4701907634735107
1761475877039255800,5.689255859375,-0.7539929151535034,0.38686105608940125,-1.2283475399017334
1761475877049233000,5.69923291015625,-0.8112156987190247,0.7043749690055847,-0.9617639780044556
1761475877059209700,5.709209716796875,-0.8459625244140625,0.9590698480606079,-0.6490201950073242
1761475877069186800,5.719186767578125,-0.8654111623764038,1.221569538116455,-0.23018503189086914
1761475877079164000,5.729163818359375,-0.789324939250946,1.3810968399047852,0.26893314719200134
1761475877089141000,5.73914111328125,-0.6147910356521606,1.3341772556304932,0.7655391693115234
1761475877099118000,5.7491181640625,-0.4068050682544708,1.1009639501571655,1.1991419792175293
1761475877109095000,5.759094970703125,-0.18179474771022797,0.7876749038696289,1.5456191301345825
1761475877119072000,5.769072021484375,0.061554521322250366,0.45195311307907104,1.753210425376892
1761475877129048800,5.779048828125,0.25868329405784607,0.10421449691057205,1.7734651565551758
1761475877139026000,5.78902587890625,0.336241751909256,-0.24137645959854126,1.5857127904891968
1761475877149002800,5.799002685546875,0.2793176472187042,-0.46375882625579834,1.28232741355896
1761475877158979800,5.808979736328125,0.1086665689945221,-0.4361088275909424,0.9791845679283142
1761475877168957000,5.81895703125,-0.09334161132574081,-0.19045224785804749,0.7294002175331116
1761475877178933800,5.828933837890625,-0.2522447109222412,0.18611392378807068,0.5910397171974182
1761475877188910800,5.838910888671875,-0.3298233449459076,0.5297914743423462,0.5677534937858582
1761475877198888000,5.848887939453125,-0.33068808913230896,0.7353182435035706,0.6220630407333374
1761475877208865000,5.858864990234375,-0.2782820761203766,0.8256925940513611,0.7251750230789185
1761475877218841900,5.868841796875,-0.17607341706752777,0.7687444090843201,0.8518429398536682
1761475877228819000,5.87881884765625,-0.06421764194965363,0.4997890889644623,0.9357768893241882
1761475877238796000,5.888796142578125,0.022073036059737206,0.10688310116529465,0.9182149171829224
1761475877248772900,5.89877294921875,0.027457116171717644,-0.33206090331077576,0.7734957337379456
1761475877258750000,5.90875,-0.035413991659879684,-0.619144082069397,0.5402746796607971
1761475877268726800,5.918726806640625,-0.11067294329404831,-0.5931993722915649,0.3864533007144928
1761475877278703900,5.928703857421875,-0.1639406979084015,-0.3356578052043915,0.34156784415245056
1761475877288680700,5.9386806640625,-0.1581067591905594,-0.03982119262218475,0.3819163143634796
1761475877298658000,5.948657958984375,-0.044910963624715805,0.2384708821773529,0.5156469345092773
1761475877308635100,5.95863525390625,0.18300922214984894,0.35870102047920227,0.656467854976654
1761475877318612200,5.9686123046875,0.4677131175994873,0.20588992536067963,0.6714468002319336
1761475877328589300,5.97858935546875,0.6073647141456604,-0.11508258432149887,0.5135915279388428
1761475877338566100,5.988566162109375,0.5057704448699951,-0.42913559079170227,0.23530717194080353
1761475877348543200,5.998543212890625,0.17562781274318695,-0.5481176972389221,0.021487293764948845
1761475877358520300,6.008520263671875,-0.23606067895889282,-0.30944815278053284,0.10348282754421234
1761475877368497200,6.0184970703125,-0.5047942996025085,0.1833025962114334,0.5180149078369141
1761475877378474200,6.02847412109375,-0.4584057629108429,0.5194483995437622,0.9180216789245605
1761475877388451000,6.038451171875,-0.17929217219352722,0.4728695750236511,0.9704029560089111
1761475877398428200,6.04842822265625,0.13129739463329315,0.09203223884105682,0.6312885284423828
1761475877408405000,6.058405029296875,0.22598832845687866,-0.549747109413147,-0.0528700016438961
1761475877418382000,6.068382080078125,0.021185921505093575,-1.312309741973877,-0.8615463376045227
1761475877428359200,6.078359130859375,-0.3635708689689636,-1.9877033233642578,-1.4497231245040894
1761475877438336300,6.088336181640625,-0.632369339466095,-2.2912871837615967,-1.6804144382476807
1761475877448313300,6.098313232421875,-0.6661491394042969,-2.1630728244781494,-1.6819993257522583
1761475877458290200,6.108290283203125,-0.5685282945632935,-1.7051496505737305,-1.6423197984695435
1761475877468267300,6.118267333984375,-0.3978806734085083,-1.2933651208877563,-1.7498263120651245
1761475877478244000,6.128244140625,-0.18337741494178772,-1.1706218719482422,-1.996474266052246
1761475877488221200,6.13822119140625,-0.04092761501669884,-1.221664309501648,-2.1692795753479004
1761475877498198300,6.1481982421875,0.016113832592964172,-1.2213703393936157,-2.0733752250671387
1761475877508175000,6.158175048828125,0.06452926993370056,-1.1593666076660156,-1.79848051071167
1761475877518152200,6.168152099609375,0.14418601989746094,-1.011191487312317,-1.4933462142944336
1761475877528129000,6.17812890625,0.25019556283950806,-0.8105553388595581,-1.2955899238586426
1761475877538106000,6.188106201171875,0.3530295193195343,-0.6795065402984619,-1.2562459707260132
1761475877548082200,6.198082275390625,0.3698059916496277,-0.6312751173973083,-1.3853200674057007
1761475877558059300,6.208059326171875,0.24808219075202942,-0.6332021951675415,-1.6313157081604004
1761475877568036000,6.2180361328125,0.027618631720542908,-0.6195356845855713,-1.922603726387024
1761475877578013200,6.22801318359375,-0.24959006905555725,-0.5338969230651855,-2.135594129562378
1761475877587990000,6.237989990234375,-0.5165042281150818,-0.37849730253219604,-2.141939878463745
1761475877597967000,6.247967041015625,-0.6468268036842346,-0.14373911917209625,-1.8832104206085205
1761475877607944200,6.257944091796875,-0.5840368866920471,0.21190112829208374,-1.3893795013427734
1761475877617921000,6.267921142578125,-0.3548619747161865,0.6162994503974915,-0.7584947943687439
1761475877627898000,6.277898193359375,-0.038118258118629456,0.8791834115982056,-0.09852971881628036
1761475877637875200,6.287875244140625,0.263543039560318,0.8621722459793091,0.42765817046165466
1761475877647852300,6.297852294921875,0.48654472827911377,0.5675798058509827,0.7358596324920654
1761475877657829000,6.3078291015625,0.5866265892982483,0.1795005053281784,0.852751612663269
1761475877667806200,6.31780615234375,0.5305556654930115,-0.1873416006565094,0.7979015707969666
1761475877677783300,6.327783203125,0.34498506784439087,-0.4589827060699463,0.6171959638595581
1761475877687760100,6.337760009765625,0.10443273931741714,-0.5099965333938599,0.38646817207336426
1761475877697737200,6.3477373046875,-0.11937452852725983,-0.2736968994140625,0.14653652906417847
1761475877707714000,6.357714111328125,-0.2549925446510315,0.1660703420639038,-0.060884296894073486
1761475877717691100,6.367691162109375,-0.3119027018547058,0.6961619257926941,-0.22511452436447144
1761475877727668000,6.37766796875,-0.2833452522754669,1.1608213186264038,-0.317491739988327
1761475877737645000,6.38764501953125,-0.2188866287469864,1.4763761758804321,-0.3414149284362793
1761475877747622100,6.3976220703125,-0.14363941550254822,1.5860270261764526,-0.3184207081794739
1761475877757599200,6.40759912109375,-0.07215271890163422,1.4584972858428955,-0.2904282212257385
1761475877767576300,6.417576416015625,-0.04426374286413193,1.132248044013977,-0.31146547198295593
1761475877777553200,6.42755322265625,-0.08940059691667557,0.7972002029418945,-0.32783058285713196
1761475877787530200,6.4375302734375,-0.12461386620998383,0.591625452041626,-0.2495173215866089
1761475877797507000,6.447507080078125,-0.04322819039225578,0.539701521396637,-0.03175170719623566
1761475877807484200,6.457484130859375,0.18242155015468597,0.6071072220802307,0.3169022798538208
1761475877817461200,6.467461181640625,0.4795309603214264,0.6878899931907654,0.6705442070960999
1761475877827438000,6.47743798828125,0.7804043889045715,0.6483730673789978,0.9211976528167725
1761475877837415200,6.487415283203125,0.9973905086517334,0.44861388206481934,1.0444955825805664
1761475877847392000,6.49739208984375,1.0420379638671875,0.17354924976825714,1.0217344760894775
1761475877857369000,6.507369140625,0.8838264346122742,-0.06182679533958435,0.914402186870575
1761475877867346200,6.51734619140625,0.5047536492347717,-0.06106004863977432,0.8794656991958618
1761475877877323300,6.5273232421875,0.0817810669541359,0.315012127161026,1.0834307670593262
1761475877887300400,6.53730029296875,-0.2251141220331192,0.6613659858703613,1.305110216140747
1761475877897277200,6.547277099609375,-0.3065298795700073,0.6689562797546387,1.307725191116333
1761475877907254300,6.557254150390625,-0.25844767689704895,0.6158835291862488,1.101123571395874
1761475877917231000,6.567231201171875,-0.21766722202301025,0.5318658947944641,0.9211717247962952
1761475877927208200,6.577208251953125,-0.2164422869682312,0.4887574315071106,0.8527098894119263
1761475877937185000,6.58718505859375,-0.21086856722831726,0.4366428256034851,0.7776755690574646
1761475877947162000,6.597162109375,-0.1947866827249527,0.27643701434135437,0.5690054297447205
1761475877957139200,6.60713916015625,-0.17913635075092316,-0.15199528634548187,0.07088539004325867
1761475877967116000,6.617115966796875,-0.12773048877716064,-0.7788979411125183,-0.6690270900726318
1761475877977093000,6.627093017578125,-0.09349794685840607,-1.1934387683868408,-1.402225136756897
1761475877987070200,6.6370703125,-0.12399846315383911,-1.1893727779388428,-1.8705096244812012
1761475877997047300,6.64704736328125,-0.11876828223466873,-0.8552237153053284,-1.8907331228256226
1761475878007024000,6.657024169921875,-0.013448487035930157,-0.508647620677948,-1.624157428741455
1761475878017001200,6.667001220703125,0.2420884668827057,-0.2114068865776062,-1.2578153610229492
1761475878026978300,6.676978271484375,0.6329182386398315,0.01119917817413807,-0.9009354114532471
1761475878036955100,6.686955078125,1.021292805671692,0.2395593822002411,-0.5631158351898193
1761475878046932200,6.69693212890625,1.289682149887085,0.34778910875320435,-0.29464420676231384
1761475878056909000,6.706908935546875,1.33588445186615,0.19159072637557983,-0.13286195695400238
1761475878066886100,6.71688623046875,1.2034879922866821,-0.11257709562778473,-0.01875348761677742
1761475878076863000,6.726863037109375,0.9764297604560852,-0.48057880997657776,-0.004640864674001932
1761475878086840000,6.736840087890625,0.7494952082633972,-0.7760716080665588,-0.10100796818733215
1761475878096817200,6.746817138671875,0.5746341943740845,-0.9218956828117371,-0.27589109539985657
1761475878106794200,6.756794189453125,0.4633753299713135,-0.8765854239463806,-0.520893931388855
1761475878116771300,6.766771240234375,0.36502742767333984,-0.7166380882263184,-0.8510886430740356
1761475878126748200,6.776748046875,0.18352171778678894,-0.46057823300361633,-1.2096683979034424
1761475878136725200,6.786725341796875,0.004396161995828152,-0.1760929673910141,-1.478406310081482
1761475878146702000,6.7967021484375,-0.14183904230594635,0.008604243397712708,-1.6355758905410767
1761475878156679200,6.80667919921875,-0.24380561709403992,0.04273824393749237,-1.7030701637268066
1761475878166656300,6.81665625,-0.2903725504875183,-0.03000871278345585,-1.6662629842758179
1761475878176633000,6.826633056640625,-0.27577951550483704,-0.17817528545856476,-1.5370663404464722
1761475878186610200,6.836610107421875,-0.1852974146604538,-0.35360902547836304,-1.3617863655090332
1761475878196587000,6.8465869140625,-0.06544264405965805,-0.3781444728374481,-1.1690675020217896
1761475878206564000,6.856564208984375,0.0522734634578228,-0.18252012133598328,-0.9818699359893799
1761475878216541000,6.866541015625,0.1315658986568451,0.08870738744735718,-0.8072547316551208
1761475878226518300,6.876518310546875,0.17204101383686066,0.3738540709018707,-0.6511397957801819
1761475878236495400,6.886495361328125,0.19969767332077026,0.6450123190879822,-0.5376574397087097
1761475878246472200,6.89647216796875,0.20691677927970886,0.8000032305717468,-0.5184404253959656
1761475878256449300,6.90644921875,0.1956968903541565,0.8171632885932922,-0.5707255005836487
1761475878266426000,6.916426025390625,0.21376490592956543,0.7184935212135315,-0.6226177215576172
1761475878276403200,6.9264033203125,0.2642499506473541,0.4981536865234375,-0.6606455445289612
1761475878286380000,6.936380126953125,0.2940883934497833,0.22526361048221588,-0.6923191547393799
1761475878296357400,6.946357421875,0.30583587288856506,0.05303964391350746,-0.6825754046440125
1761475878306334200,6.956334228515625,0.33486080169677734,-0.1777055263519287,-0.6910439133644104
1761475878316311300,6.966311279296875,0.2545963227748871,0.13093912601470947,-0.5683717727661133
1761475878326288100,6.9762880859375,0.2161678969860077,0.4093436896800995,-0.41524413228034973
1761475878336265200,6.98626513671875,0.19006972014904022,0.6314393281936646,-0.2879437208175659
1761475878346242300,6.9962421875,0.15885451436042786,0.7721382975578308,-0.16945059597492218
1761475878356219400,7.006219482421875,0.13382771611213684,0.5085801482200623,-0.2189406454563141
1761475878366196500,7.016196533203125,-0.06853765994310379,0.6158352494239807,-0.1312195360660553
1761475878376172300,7.02617236328125,-0.314666211605072,0.5967211723327637,0.06148919463157654
1761475878386149000,7.036149169921875,-0.37774857878685,0.11430422216653824,0.09153439104557037
1761475878396126200,7.046126220703125,-0.3897540867328644,-0.27144214510917664,0.07015080004930496
1761475878406103300,7.056103271484375,-0.3107147216796875,-0.41667497158050537,0.08757410943508148
1761475878416080100,7.066080078125,-0.1342448890209198,-0.3201015591621399,0.23226872086524963
1761475878426057200,7.07605712890625,0.06027963012456894,-0.05263235419988632,0.45869484543800354
1761475878436034300,7.086034423828125,0.18916037678718567,0.14603334665298462,0.6246234178543091
1761475878446011400,7.096011474609375,0.2402910590171814,0.20248860120773315,0.6796471476554871
1761475878455988200,7.10598828125,0.31083181500434875,0.28088220953941345,0.6765483021736145
1761475878465965300,7.11596533203125,0.4209615886211395,0.40106040239334106,0.6283234357833862
1761475878475942400,7.1259423828125,0.4407193064689636,0.49930599331855774,0.6276259422302246
1761475878485919200,7.135919189453125,0.32909247279167175,0.49476689100265503,0.7620863914489746
1761475878495896300,7.145896240234375,0.062650665640831,0.2967456877231598,0.9822549819946289
1761475878505873200,7.155873046875,-0.25453439354896545,0.05432038754224777,1.2518612146377563
1761475878515850200,7.165850341796875,-0.5077312588691711,-0.18739476799964905,1.4228872060775757
1761475878525827000,7.1758271484375,-0.6691877245903015,-0.5948733687400818,1.3416191339492798
1761475878535804200,7.18580419921875,-0.7704349756240845,-1.060097575187683,1.193814754486084
1761475878545781200,7.19578125,-0.7170515060424805,-1.345672607421875,1.176757574081421
1761475878555758300,7.20575830078125,-0.5452517867088318,-1.4341942071914673,1.1624749898910522
1761475878565735400,7.2157353515625,-0.3357018530368805,-1.371742844581604,0.96232008934021
1761475878575712300,7.225712158203125,-0.14239229261875153,-1.1100406646728516,0.6350842118263245
1761475878585689300,7.235689453125,-0.020060330629348755,-0.7151445150375366,0.25229713320732117
1761475878595666200,7.245666259765625,0.0574704110622406,-0.40159136056900024,-0.16924506425857544
1761475878605643300,7.255643310546875,0.10062451660633087,-0.3389778435230255,-0.6325391530990601
1761475878615620400,7.265620361328125,0.05516861379146576,-0.45923927426338196,-1.0695862770080566
1761475878625597200,7.27559716796875,-0.015194246545433998,-0.5677800178527832,-1.3836860656738281
1761475878635574300,7.28557421875,-0.026243701577186584,-0.5517691373825073,-1.571823000907898
1761475878645551000,7.295551025390625,0.0840010792016983,-0.3450579345226288,-1.6211237907409668
1761475878655528200,7.305528076171875,0.2682798206806183,-0.08733239769935608,-1.5528899431228638
1761475878665505300,7.31550537109375,0.4602351486682892,0.05559210106730461,-1.4419629573822021
1761475878675482400,7.325482421875,0.6031289100646973,0.05480274185538292,-1.3348349332809448
1761475878685459500,7.33545947265625,0.6264153122901917,-0.14627763628959656,-1.2514657974243164
1761475878695436300,7.345436279296875,0.48365074396133423,-0.4365326464176178,-1.2242573499679565
1761475878705413400,7.355413330078125,0.19658343493938446,-0.7197800278663635,-1.226686716079712
1761475878715390200,7.36539013671875,-0.11105827242136002,-0.8895764946937561,-1.2588415145874023
1761475878725367300,7.3753671875,-0.34757497906684875,-0.9228317737579346,-1.2773151397705078
1761475878735344000,7.38534423828125,-0.4154096841812134,-0.783967912197113,-1.1789486408233643
1761475878745321200,7.3953212890625,-0.2767198979854584,-0.3494613766670227,-0.8907960653305054
1761475878755298300,7.40529833984375,0.009399207308888435,0.18106190860271454,-0.5308935642242432
1761475878765275100,7.415275146484375,0.329884797334671,0.5651406049728394,-0.21678291261196136
1761475878775252200,7.425252197265625,0.5476049184799194,0.776308000087738,-0.019441071897745132
1761475878785229300,7.435229248046875,0.6131384372711182,0.7844651341438293,0.07291992753744125
1761475878795206400,7.445206298828125,0.4891027510166168,0.5403128862380981,0.07689869403839111
1761475878805183200,7.455183349609375,0.2592867314815521,0.1497156322002411,0.014874850399792194
1761475878815160300,7.465160400390625,0.0274801068007946,-0.19307154417037964,-0.021986760199069977
1761475878825137400,7.475137451171875,-0.16397228837013245,-0.35028502345085144,-0.012100335210561752
1761475878835114200,7.4851142578125,-0.24665652215480804,-0.36490127444267273,0.06325753778219223
1761475878845091300,7.49509130859375,-0.22570623457431793,-0.2901463210582733,0.2051241248846054
1761475878855068200,7.505068115234375,-0.1480676233768463,-0.11538013070821762,0.3551088273525238
1761475878865045200,7.515045166015625,-0.05984244868159294,0.12786073982715607,0.4555272161960602
1761475878875022000,7.52502197265625,-0.016247831284999847,0.35895252227783203,0.4811292290687561
1761475878884999200,7.534999267578125,-0.03583161532878876,0.5502943396568298,0.43875759840011597
1761475878894976300,7.544976318359375,-0.10207348316907883,0.6360486745834351,0.33448126912117004
1761475878904953300,7.554953369140625,-0.17802488803863525,0.6080478429794312,0.19705350697040558
1761475878914930400,7.564930419921875,-0.2592771351337433,0.5287735462188721,0.04990613833069801
1761475878924907300,7.5749072265625,-0.3308357298374176,0.4206821918487549,-0.07132415473461151
1761475878934884400,7.58488427734375,-0.3135925829410553,0.39567962288856506,-0.051776282489299774
1761475878944861200,7.594861083984375,-0.23210442066192627,0.44476041197776794,0.09311066567897797
1761475878954838300,7.60483837890625,-0.12233450263738632,0.5051934123039246,0.2810201048851013
1761475878964815400,7.6148154296875,0.030769910663366318,0.5189109444618225,0.44932085275650024
1761475878974792200,7.624792236328125,0.21300069987773895,0.5020118951797485,0.571805477142334
1761475878984769300,7.634769287109375,0.33287227153778076,0.42806950211524963,0.6645641326904297
1761475878994746000,7.64474609375,0.29523247480392456,0.3708895742893219,0.744038999080658
1761475879004723200,7.65472314453125,0.1841917634010315,0.3692685067653656,0.8562216758728027
1761475879014700300,7.6647001953125,0.004625729285180569,0.32267943024635315,0.9454077482223511
1761475879024677400,7.674677490234375,-0.1579790711402893,0.31897199153900146,1.0610679388046265
1761475879034654500,7.684654541015625,-0.16578373312950134,0.39490482211112976,1.2131788730621338
1761475879044630300,7.69463037109375,-0.1291591078042984,0.4009169340133667,1.2527209520339966
1761475879054608400,7.7046083984375,-0.19499538838863373,0.34056732058525085,1.1006652116775513
1761475879064585200,7.714585205078125,-0.27802547812461853,0.15726043283939362,0.7872986197471619
1761475879074561300,7.724561279296875,-0.2937120199203491,0.000271340599283576,0.4680321514606476
1761475879084538000,7.7345380859375,-0.2250470668077469,-0.06161388382315636,0.24616816639900208
1761475879094515200,7.74451513671875,-0.09928566962480545,-0.08765986561775208,0.08292118459939957
1761475879104492300,7.7544921875,0.1134469136595726,-0.06417527794837952,-0.05566144362092018
1761475879114469400,7.764469482421875,0.37183907628059387,0.024634486064314842,-0.1647421270608902
1761475879124446500,7.774446533203125,0.5204211473464966,0.08823341876268387,-0.24395063519477844
1761475879134423300,7.78442333984375,0.5353420376777649,0.14803098142147064,-0.20774628221988678
1761475879144400400,7.794400390625,0.38556021451950073,0.05893603339791298,-0.0765804722905159
1761475879154377200,7.804377197265625,0.08298595994710922,-0.19868245720863342,0.11168291419744492
1761475879164354300,7.814354248046875,-0.22335347533226013,-0.37216758728027344,0.35786154866218567
1761475879174331100,7.8243310546875,-0.4193999469280243,-0.3917436897754669,0.5813614726066589
1761475879184308200,7.83430810546875,-0.4510335326194763,-0.30671924352645874,0.746408998966217
1761475879194285300,7.844285400390625,-0.3131374418735504,-0.12393716722726822,0.8719320297241211
1761475879204262100,7.85426220703125,-0.1008758619427681,0.03911110758781433,0.9722991585731506
1761475879214239200,7.8642392578125,0.12618286907672882,0.1305597871541977,1.0924098491668701
1761475879224216300,7.87421630859375,0.2794547975063324,0.17162103950977325,1.1913371086120605
1761475879234193400,7.884193359375,0.28332170844078064,0.09199278801679611,1.190305471420288
1761475879244170200,7.894170166015625,0.17558987438678741,-0.07805708795785904,1.0996123552322388
1761475879254147300,7.904147216796875,0.017629535868763924,-0.27735501527786255,0.9382416009902954
1761475879264124400,7.91412451171875,-0.119908407330513,-0.5624819397926331,0.6980118155479431
1761475879274101200,7.924101318359375,-0.22608359158039093,-0.8314910531044006,0.4099094569683075
1761475879284078300,7.934078369140625,-0.28519269824028015,-0.9854410886764526,0.08914337307214737
1761475879294055200,7.94405517578125,-0.30389899015426636,-1.0574383735656738,-0.3082577884197235
1761475879304031500,7.954031494140625,-0.2922546863555908,-1.0857293605804443,-0.759764552116394
1761475879314008600,7.964008544921875,-0.27078479528427124,-1.0669416189193726,-1.1492153406143188
1761475879323985700,7.973985595703125,-0.22619856894016266,-0.8936699032783508,-1.3817999362945557
1761475879333962500,7.98396240234375,-0.17701318860054016,-0.5642046332359314,-1.474441409111023
1761475879343939600,7.993939697265625,-0.15587502717971802,-0.13507886230945587,-1.491377592086792
1761475879353916700,8.003916748046874,-0.19176484644412994,0.17133831977844238,-1.4728726148605347
1761475879363893500,8.0138935546875,-0.28144732117652893,0.22532512247562408,-1.4097315073013306
1761475879373870600,8.02387060546875,-0.3378605246543884,0.2122921496629715,-1.2673059701919556
1761475879383847400,8.033847412109376,-0.35070210695266724,0.20928652584552765,-1.0677313804626465
1761475879393824500,8.043824462890624,-0.32324889302253723,0.20575863122940063,-0.8005439043045044
1761475879403801300,8.05380126953125,-0.1974700391292572,0.24025513231754303,-0.4463505148887634
1761475879413778400,8.0637783203125,-0.012456248514354229,0.29449495673179626,-0.05729356408119202
1761475879423755500,8.073755615234376,0.17436115443706512,0.3331369459629059,0.28290843963623047
1761475879433732600,8.083732666015624,0.2937423884868622,0.38358229398727417,0.5181878209114075
1761475879443709700,8.093709716796875,0.31451234221458435,0.4702552855014801,0.6509485840797424
1761475879453686500,8.1036865234375,0.25397947430610657,0.5652009844779968,0.6749391555786133
1761475879463663600,8.11366357421875,0.11706129461526871,0.5627284646034241,0.5853866934776306
1761475879473640400,8.123640380859374,-0.03378468006849289,0.420021116733551,0.40529096126556396
1761475879483617500,8.133617431640625,-0.15318873524665833,0.25256770849227905,0.20129293203353882
1761475879493594600,8.1435947265625,-0.1932365596294403,0.16935591399669647,0.08033082634210587
1761475879503571500,8.153571533203126,-0.12986983358860016,0.23140837252140045,0.1104370653629303
1761475879513548500,8.163548583984374,-0.012731759808957577,0.4003180265426636,0.2717577815055847
1761475879523525400,8.173525390625,0.08841689676046371,0.5849138498306274,0.4518822431564331
1761475879533502500,8.18350244140625,0.0947035551071167,0.7006268501281738,0.5842540860176086
1761475879543479600,8.1934794921875,0.01638066954910755,0.729064404964447,0.6595434546470642
1761475879553456600,8.20345654296875,-0.06102730333805084,0.6564540863037109,0.7158674597740173
1761475879563433700,8.213433837890625,-0.11549616605043411,0.3872223198413849,0.7308771014213562
1761475879573410600,8.22341064453125,-0.1629164069890976,-0.026405487209558487,0.7180798053741455
1761475879583386400,8.233386474609375,-0.09193049371242523,-0.32631680369377136,0.8200142979621887
1761475879593363500,8.243363525390626,0.15633176267147064,-0.30737239122390747,1.0855234861373901
1761475879603340500,8.253340576171874,0.4577619731426239,-0.09303352236747742,1.3413069248199463
1761475879613317400,8.2633173828125,0.5896797776222229,0.12040045857429504,1.4717121124267578
1761475879623294500,8.27329443359375,0.4751252233982086,0.21973295509815216,1.5027862787246704
1761475879633271600,8.283271484375,0.200927734375,0.22589896619319916,1.5813875198364258
1761475879643248600,8.29324853515625,-0.11576579511165619,0.2472575157880783,1.6859104633331299
1761475879653225500,8.3032255859375,-0.36176517605781555,0.27562499046325684,1.6579684019088745
1761475879663202600,8.31320263671875,-0.5280690789222717,0.28475719690322876,1.4285008907318115
1761475879673179600,8.3231796875,-0.5837597846984863,0.4338817000389099,1.1121234893798828
1761475879683156500,8.333156494140624,-0.5932297706604004,0.6627181768417358,0.9115447402000427
1761475879693133600,8.343133544921875,-0.5842770338058472,0.711132287979126,0.8653399348258972
1761475879703110400,8.3531103515625,-0.568612813949585,0.4405115842819214,0.897132933139801
1761475879713088500,8.363088623046876,-0.5604491233825684,0.0024458118714392185,0.8226097226142883
1761475879723065600,8.373065673828124,-0.5257870554924011,-0.4689284861087799,0.5476996898651123
1761475879733042400,8.38304248046875,-0.42417627573013306,-0.8526127338409424,0.18526716530323029
1761475879743018800,8.393018798828125,-0.36014655232429504,-1.1546969413757324,-0.24031732976436615
1761475879752995600,8.40299560546875,-0.40520429611206055,-1.485673189163208,-0.7429317235946655
1761475879762972700,8.41297265625,-0.4598792791366577,-1.695483684539795,-1.161268949508667
1761475879772949500,8.422949462890625,-0.3806137442588806,-1.5735015869140625,-1.39176344871521
1761475879782926600,8.432926513671875,-0.2909175455570221,-1.1080142259597778,-1.4553848505020142
1761475879792903400,8.4429033203125,-0.25852176547050476,-0.42114800214767456,-1.3978989124298096
1761475879802880500,8.452880615234376,-0.21938997507095337,0.24320954084396362,-1.2857400178909302
1761475879812857600,8.462857666015625,-0.1437719166278839,0.812304675579071,-1.137520432472229
1761475879822834400,8.47283447265625,0.010975741781294346,1.1273311376571655,-0.9552807211875916
1761475879832811500,8.4828115234375,0.21833878755569458,1.0247403383255005,-0.7840807437896729
1761475879842788400,8.492788330078126,0.44005030393600464,0.5991217494010925,-0.6006585955619812
1761475879852765400,8.502765380859374,0.6099749207496643,0.08553962409496307,-0.37246134877204895
1761475879862742500,8.512742431640625,0.6485433578491211,-0.1774439960718155,-0.15178313851356506
1761475879872719600,8.5227197265625,0.5866314768791199,-0.1817425936460495,-0.0231119804084301
1761475879882696700,8.53269677734375,0.49142399430274963,0.03814220055937767,0.04071628674864769
1761475879892673500,8.542673583984374,0.4110471308231354,0.4063316583633423,0.08151591569185257
1761475879902650600,8.552650634765625,0.351667582988739,0.7362181544303894,0.049186091870069504
1761475879912627500,8.56262744140625,0.2919169068336487,0.869840145111084,-0.03898264840245247
1761475879922604500,8.5726044921875,0.2276839017868042,0.8103616237640381,-0.13669516146183014
1761475879932581400,8.582581298828124,0.1536024957895279,0.6366244554519653,-0.21226689219474792
1761475879942558500,8.592558349609375,0.09013400971889496,0.46507593989372253,-0.23198489844799042
1761475879952535600,8.60253564453125,0.008131290785968304,0.3724440038204193,-0.18114648759365082
1761475879962512400,8.612512451171876,-0.10289188474416733,0.33768564462661743,-0.09185205399990082
1761475879972489500,8.622489501953124,-0.2366022765636444,0.33705875277519226,-0.00359329953789711
1761475879982466600,8.632466552734375,-0.36748814582824707,0.37932729721069336,0.09599778056144714
1761475879992443600,8.642443603515625,-0.4712451696395874,0.4803154468536377,0.22561143338680267
1761475880002420500,8.65242041015625,-0.4928228259086609,0.5684395432472229,0.382866233587265
1761475880012397600,8.6623974609375,-0.44985780119895935,0.5806205868721008,0.5196402668952942
1761475880022374700,8.672374755859375,-0.35382384061813354,0.5193334817886353,0.6382525563240051
1761475880032351500,8.6823515625,-0.23057277500629425,0.4026283919811249,0.7125771045684814
1761475880042328600,8.69232861328125,-0.14689242839813232,0.26391422748565674,0.7168059945106506
1761475880052305400,8.702305419921874,-0.15254312753677368,0.15943841636180878,0.6171246767044067
1761475880062282500,8.712282470703125,-0.29291775822639465,0.08169323951005936,0.42059212923049927
1761475880072259300,8.72225927734375,-0.5818385481834412,0.011597773060202599,0.21828293800354004
1761475880082236400,8.732236328125,-0.8067121505737305,-0.04452856257557869,0.0292302668094635
1761475880092213500,8.742213623046876,-0.696243166923523,-0.04513869434595108,-0.03667204827070236
1761475880102190600,8.752190673828125,-0.2695818841457367,0.13902166485786438,0.0964125245809555
1761475880112167700,8.762167724609375,0.2903679609298706,0.28658607602119446,0.29695627093315125
1761475880122144500,8.77214453125,0.5941143035888672,-0.033826280385255814,0.2140320986509323
1761475880132121600,8.78212158203125,0.46992227435112,-0.805945098400116,-0.23619578778743744
1761475880142098400,8.792098388671874,-0.17944200336933136,-1.7117058038711548,-0.8547942638397217
1761475880152075500,8.802075439453125,-1.0936694145202637,-2.131486415863037,-1.1641629934310913
1761475880162052600,8.812052490234375,-1.6374547481536865,-1.8699711561203003,-0.9088470935821533
1761475880172029400,8.822029541015626,-1.6270159482955933,-1.1686809062957764,-0.21086880564689636
1761475880182006500,8.832006591796874,-0.9867629408836365,-0.37969815731048584,0.5938163995742798
1761475880191983400,8.8419833984375,0.13948360085487366,0.11326092481613159,1.0867635011672974
1761475880201960400,8.85196044921875,1.0529533624649048,-0.007430866826325655,0.8633658289909363
1761475880211937500,8.8619375,1.3509379625320435,-0.8226268291473389,-0.14690858125686646
1761475880221914600,8.87191455078125,1.1895191669464111,-1.8656281232833862,-1.4793195724487305
1761475880231891700,8.8818916015625,0.9157648682594299,-2.2713375091552734,-2.467318534851074
1761475880241868500,8.89186865234375,0.6530065536499023,-1.9296602010726929,-2.865633726119995
1761475880251844600,8.9018447265625,0.5795166492462158,-0.9885296821594238,-2.7204267978668213
1761475880261821400,8.911821533203126,0.6938594579696655,0.19996832311153412,-2.3023736476898193
1761475880271798500,8.921798583984375,0.8349891304969788,1.2386902570724487,-1.752276062965393
1761475880281775400,8.931775390625,0.8096566200256348,1.9324144124984741,-1.1784409284591675
1761475880291752700,8.941752685546875,0.6010421514511108,2.220818042755127,-0.6703497767448425
1761475880301730000,8.95172998046875,0.29029157757759094,2.052006483078003,-0.24470090866088867
1761475880311707100,8.96170703125,-0.0741918534040451,1.5543794631958008,0.11879288405179977
1761475880321684200,8.971684326171875,-0.3611184060573578,0.8251922726631165,0.3721558451652527
1761475880331661300,8.981661376953125,-0.47767218947410583,0.03540819138288498,0.4643954932689667
1761475880341638100,8.99163818359375,-0.5367007851600647,-0.5388439893722534,0.4091245234012604
1761475880351615200,9.001615234375,-0.5504448413848877,-0.7898775339126587,0.2886633574962616
1761475880361592000,9.011592041015625,-0.476988822221756,-0.6500861644744873,0.15798525512218475
1761475880371569200,9.021569091796875,-0.3839416801929474,-0.2223942130804062,0.0015053653623908758
1761475880381546200,9.031546142578126,-0.28661778569221497,0.31049010157585144,-0.18204264342784882
1761475880391523000,9.041523193359374,-0.16624316573143005,0.7247838973999023,-0.34263819456100464
1761475880401500200,9.051500244140625,0.006474075838923454,0.9820756912231445,-0.4181112051010132
1761475880411477000,9.06147705078125,0.2522470951080322,1.1302590370178223,-0.37781253457069397
1761475880421454000,9.0714541015625,0.5293605923652649,1.1139276027679443,-0.25679951906204224
1761475880431431200,9.08143115234375,0.7849298119544983,0.910713791847229,-0.10967451333999634
1761475880441408300,9.091408203125,0.9690711498260498,0.6263855695724487,0.02131262607872486
1761475880451385300,9.10138525390625,1.0423812866210938,0.3923211395740509,0.13205404579639435
1761475880461362200,9.111362060546876,0.9895172119140625,0.2168177366256714,0.21884407103061676
1761475880471339300,9.12133935546875,0.8320764899253845,0.16479767858982086,0.2772647440433502
1761475880481316000,9.131316162109375,0.6471796035766602,0.22271506488323212,0.3046506941318512
1761475880491293200,9.141293212890625,0.5110809206962585,0.30115795135498047,0.32640498876571655
1761475880501270000,9.15127001953125,0.43777409195899963,0.3760211765766144,0.3397327959537506
1761475880511247000,9.1612470703125,0.37729209661483765,0.4110585153102875,0.34732893109321594
1761475880521224200,9.17122412109375,0.29472437500953674,0.34664425253868103,0.35620880126953125
1761475880531201000,9.181200927734375,0.20852716267108917,0.1956816166639328,0.40547993779182434
1761475880541178000,9.19117822265625,0.1477205604314804,0.018054388463497162,0.506671130657196
1761475880551155200,9.2011552734375,0.06837140768766403,-0.15489022433757782,0.6014274954795837
1761475880561132300,9.21113232421875,-0.0348355732858181,-0.29349836707115173,0.6350070834159851
1761475880571109000,9.221109130859375,-0.08755018562078476,-0.3559492528438568,0.6506901979446411
1761475880581086200,9.231086181640626,-0.048367518931627274,-0.3821956515312195,0.6822254657745361
1761475880591063300,9.241063232421874,0.06578435003757477,-0.48526984453201294,0.6821442246437073
1761475880601040100,9.2510400390625,0.19497372210025787,-0.7208081483840942,0.709144651889801
1761475880611017200,9.261017333984375,0.38513487577438354,-0.8382186889648438,0.9129422307014465
1761475880620994000,9.270994140625,0.6068503856658936,-0.7248092889785767,1.2403663396835327
1761475880630971100,9.28097119140625,0.6951562762260437,-0.6684468984603882,1.5329859256744385
1761475880640948000,9.290947998046875,0.49098265171051025,-0.8588419556617737,1.6869605779647827
1761475880650925000,9.300925048828125,0.0011447679717093706,-1.2681022882461548,1.6413342952728271
1761475880660902100,9.310902099609375,-0.37269696593284607,-1.251349687576294,1.7080532312393188
1761475880670879200,9.320879150390626,-0.5645742416381836,-0.8731817007064819,1.9033594131469727
1761475880680856300,9.330856201171875,-0.5707910060882568,-0.5052562952041626,1.9888291358947754
1761475880690833200,9.340833251953125,-0.24737481772899628,-0.2123672068119049,1.8637140989303589
1761475880700810200,9.350810302734375,0.19518636167049408,-0.17275214195251465,1.439081072807312
1761475880710787000,9.360787109375,0.4775125980377197,-0.49909138679504395,0.615082859992981
1761475880720764200,9.37076416015625,0.5222055912017822,-0.7496699094772339,-0.3777664005756378
1761475880730741200,9.3807412109375,0.47480344772338867,-0.42982718348503113,-1.074214220046997
1761475880740717000,9.390717041015625,0.4722757637500763,0.13559317588806152,-1.3945108652114868
1761475880750695200,9.400695068359376,0.5494325757026672,0.6260398626327515,-1.4211461544036865
1761475880760671200,9.410671142578124,0.6245616674423218,0.8824872970581055,-1.3005077838897705
1761475880770648300,9.4206484375,0.6128807663917542,0.8909609317779541,-1.1683415174484253
1761475880780625200,9.430625244140625,0.5514273047447205,0.7238267064094543,-1.060662865638733
1761475880790602200,9.440602294921876,0.4435461759567261,0.46196579933166504,-1.0170408487319946
1761475880800579000,9.4505791015625,0.34140339493751526,0.1418389081954956,-1.0586134195327759
1761475880810556200,9.46055615234375,0.2610853910446167,-0.1361815184354782,-1.1835370063781738
1761475880820533000,9.470532958984375,0.2190084457397461,-0.3019842207431793,-1.3340857028961182
1761475880830510000,9.480510009765625,0.2637420892715454,-0.31008049845695496,-1.462914228439331
1761475880840487200,9.490487060546876,0.39437994360923767,-0.15904071927070618,-1.5226328372955322
1761475880850464000,9.500464111328125,0.5609620213508606,0.15959931910037994,-1.4850894212722778
1761475880860441000,9.510441162109375,0.7184505462646484,0.6276141405105591,-1.323476791381836
1761475880870418200,9.520418212890625,0.8517199158668518,1.129341959953308,-1.0505789518356323
1761475880880395300,9.530395263671876,0.9432647228240967,1.475234031677246,-0.7334636449813843
1761475880890372000,9.5403720703125,0.9854419827461243,1.5606101751327515,-0.3900703489780426
1761475880900349200,9.55034912109375,0.9240459203720093,1.4172704219818115,-0.08711665123701096
1761475880910326300,9.560326171875,0.7619752287864685,1.0946451425552368,0.07492125779390335
1761475880920303000,9.57030322265625,0.5515460968017578,0.6032658219337463,0.12090438604354858
1761475880930280200,9.5802802734375,0.3252503275871277,0.10112384706735611,0.1276264637708664
1761475880940257000,9.590257080078125,0.10928881168365479,-0.23467746376991272,0.1521930992603302
1761475880950234000,9.600234130859375,-0.035124558955430984,-0.3170461058616638,0.23405973613262177
1761475880960211000,9.6102109375,-0.09997719526290894,-0.23721931874752045,0.3320159316062927
1761475880970188000,9.62018798828125,-0.08688989281654358,-0.03818584978580475,0.40915387868881226
1761475880980165000,9.6301650390625,-0.029846761375665665,0.1964503973722458,0.4720127284526825
1761475880990142200,9.64014208984375,0.02812759205698967,0.3867579996585846,0.5117799043655396
1761475881000119300,9.650119384765626,0.05407654121518135,0.44072356820106506,0.5405233502388
1761475881010096000,9.66009619140625,-0.010599926114082336,0.3571493327617645,0.5638241171836853
1761475881020073200,9.6700732421875,-0.13357214629650116,0.16858789324760437,0.6032122373580933
1761475881030050000,9.680050048828125,-0.2595308721065521,0.006402446888387203,0.6489541530609131
1761475881040027100,9.690027099609376,-0.3376976549625397,-0.06969669461250305,0.7252171039581299
1761475881050004200,9.700004150390624,-0.32267528772354126,-0.00921337679028511,0.8664754033088684
1761475881059981000,9.70998095703125,-0.17669899761676788,0.14181627333164215,1.0739818811416626
1761475881069958100,9.719958251953125,0.035281963646411896,0.2594694197177887,1.2611651420593262
1761475881079935000,9.72993505859375,0.25735801458358765,0.28661030530929565,1.3925836086273193
1761475881089912000,9.739912109375,0.39499548077583313,0.20604939758777618,1.4660298824310303
1761475881099889200,9.74988916015625,0.3277735412120819,0.04030245169997215,1.4654579162597656
1761475881109866200,9.7598662109375,0.13522113859653473,-0.1013239175081253,1.4625641107559204
1761475881119843300,9.76984326171875,0.026803653687238693,-0.13876305520534515,1.6112065315246582
1761475881129820200,9.779820068359374,-0.03792447969317436,-0.0417502224445343,1.8558915853500366
1761475881139797200,9.78979736328125,-0.19672329723834991,0.09790635108947754,1.9548535346984863
1761475881149774000,9.799774169921875,-0.34277957677841187,0.2681451737880707,1.8804957866668701
1761475881159751200,9.809751220703125,-0.4536972939968109,0.3470199406147003,1.7351570129394531
1761475881169728000,9.81972802734375,-0.4916883707046509,0.3105047941207886,1.638188123703003
1761475881179705000,9.829705078125,-0.41847553849220276,0.12355697154998779,1.5097568035125732
1761475881189681200,9.83968115234375,-0.3675154149532318,-0.26438063383102417,1.2640740871429443
1761475881199658200,9.849658203125,-0.30721163749694824,-0.6484774947166443,1.0155143737792969
1761475881209635300,9.85963525390625,-0.20308257639408112,-0.7574050426483154,0.8162372708320618
1761475881219612200,9.869612060546874,-0.11351560056209564,-0.7452684640884399,0.5349245071411133
1761475881229589200,9.87958935546875,-0.11438564956188202,-0.763125479221344,0.1155991479754448
1761475881239566000,9.889566162109375,-0.174984872341156,-0.7731675505638123,-0.3423885703086853
1761475881249543200,9.899543212890626,-0.2200615406036377,-0.6266217827796936,-0.6607580184936523
1761475881259520000,9.90952001953125,-0.22648411989212036,-0.40565773844718933,-0.8509427309036255
1761475881269497000,9.9194970703125,-0.24630390107631683,-0.3630138635635376,-0.9727775454521179
1761475881279474200,9.92947412109375,-0.24571864306926727,-0.3995608687400818,-0.9932553768157959
1761475881289451000,9.939450927734375,-0.15052129328250885,-0.376384437084198,-0.9235982298851013
1761475881299428400,9.949428466796874,0.03302184119820595,-0.26639243960380554,-0.8351806402206421
1761475881309405400,9.959405517578125,0.20751188695430756,-0.08717315644025803,-0.7576094269752502
1761475881319382300,9.96938232421875,0.2938787043094635,0.03801639378070831,-0.7117697596549988
1761475881329359400,9.979359375,0.2649762034416199,0.07096289843320847,-0.6980672478675842
1761475881339336400,9.98933642578125,0.11004564166069031,0.0622330904006958,-0.6786350607872009
1761475881349313300,9.999313232421875,-0.12712909281253815,0.02425668016076088,-0.6548511981964111
1761475881359290400,10.009290283203125,-0.329365611076355,-0.05406792461872101,-0.6069568991661072
1761475881369267200,10.01926708984375,-0.4749622344970703,-0.16113951802253723,-0.5591358542442322
1761475881379244300,10.029244384765626,-0.5439422130584717,-0.31765294075012207,-0.5007072687149048
1761475881389221000,10.03922119140625,-0.538384735584259,-0.4572851359844208,-0.4199400246143341
1761475881399198200,10.0491982421875,-0.451585590839386,-0.5386734008789062,-0.3398427963256836
1761475881409175300,10.05917529296875,-0.30002883076667786,-0.6674750447273254,-0.30097901821136475
1761475881419152400,10.06915234375,-0.20677441358566284,-0.7377143502235413,-0.2927878499031067
1761475881429129500,10.07912939453125,-0.23088426887989044,-0.7030096650123596,-0.28716912865638733
1761475881439106300,10.089106201171875,-0.3622313439846039,-0.6127741932868958,-0.30340340733528137
1761475881449083400,10.09908349609375,-0.5937513709068298,-0.4241020381450653,-0.34977543354034424
1761475881459060200,10.109060302734376,-0.8292820453643799,-0.07743531465530396,-0.39407679438591003
1761475881469037300,10.119037353515624,-0.9483966827392578,0.4242970645427704,-0.38155460357666016
1761475881479014400,10.129014404296875,-0.8512324094772339,0.9446001648902893,-0.302402138710022
1761475881488991200,10.1389912109375,-0.6133737564086914,1.3617933988571167,-0.13273589313030243
1761475881498968300,10.14896826171875,-0.33327198028564453,1.665084719657898,0.08821181952953339
1761475881508945200,10.158945068359374,-0.044286515563726425,1.8112685680389404,0.2894836664199829
1761475881518922200,10.168922119140625,0.22251175343990326,1.7059606313705444,0.41654688119888306
1761475881528899000,10.178899169921875,0.34475669264793396,1.3913350105285645,0.4705730974674225
1761475881538876400,10.18887646484375,0.2672566771507263,0.9737324118614197,0.4708554148674011
1761475881548853500,10.198853515625,0.014983688481152058,0.4550032615661621,0.4274458885192871
1761475881558830300,10.208830322265625,-0.3192553222179413,-0.07019338011741638,0.37555399537086487
1761475881568807400,10.218807373046875,-0.604134738445282,-0.3918592929840088,0.33335673809051514
1761475881578784300,10.2287841796875,-0.7325413227081299,-0.47480908036231995,0.31127282977104187
1761475881588761300,10.23876123046875,-0.7284877300262451,-0.4209434688091278,0.3482031524181366
1761475881598738200,10.24873828125,-0.6353062391281128,-0.2405950278043747,0.43919599056243896
1761475881608714200,10.25871435546875,-0.48033028841018677,0.011495276354253292,0.5194176435470581
1761475881618691300,10.26869140625,-0.2899613678455353,0.2476765364408493,0.5352486968040466
1761475881628668400,10.27866845703125,-0.08220391720533371,0.34592241048812866,0.5002478361129761
1761475881638645200,10.288645263671874,0.0539628230035305,0.14190466701984406,0.45138388872146606
1761475881648622300,10.298622314453125,0.10963007807731628,-0.3076672852039337,0.3272361159324646
1761475881658599400,10.308599365234375,0.03418160229921341,-0.7912319302558899,0.10233917087316513
1761475881668576300,10.318576171875,-0.11633306741714478,-1.126549243927002,-0.09450944513082504
1761475881678553300,10.32855322265625,-0.21705447137355804,-1.158980369567871,-0.13510741293430328
1761475881688530200,10.3385302734375,-0.18337774276733398,-0.9328010082244873,0.027705201879143715
1761475881698507300,10.34850732421875,-0.005440612323582172,-0.6900003552436829,0.17808157205581665
1761475881708484000,10.358484130859376,0.2469215989112854,-0.8473321795463562,0.18889932334423065
1761475881718461200,10.368461181640624,0.242654487490654,-1.395848274230957,-0.06474664062261581
1761475881728438300,10.378438232421875,-0.14176908135414124,-2.1015665531158447,-0.4289214015007019
1761475881738415400,10.388415283203125,-0.7239643335342407,-1.9561809301376343,-0.5826952457427979
1761475881748392400,10.398392333984376,-1.292359709739685,-1.3919875621795654,-0.6818431615829468
1761475881758369300,10.408369384765624,-1.684141755104065,-1.5546183586120605,-0.7291783094406128
1761475881768346400,10.418346435546875,-1.8066104650497437,-1.4461315870285034,-0.53400057554245
1761475881778323200,10.4283232421875,-1.5878536701202393,-1.1731199026107788,-0.4387984573841095
1761475881788300300,10.43830029296875,-1.118120551109314,-1.7712478637695312,-0.9044974446296692
1761475881798277400,10.44827734375,-0.5271032452583313,-3.0220563411712646,-1.9635348320007324
1761475881808254200,10.458254150390625,0.036763597279787064,-3.9693174362182617,-3.3301773071289062
1761475881818231300,10.468231201171875,0.5263260006904602,-3.867487907409668,-4.4030985832214355
1761475881828208000,10.4782080078125,0.8950508236885071,-2.7674355506896973,-4.947686195373535
1761475881838185200,10.488185302734376,1.1553318500518799,-0.8950034379959106,-4.982212066650391
1761475881848162000,10.498162109375,1.3398622274398804,1.1033971309661865,-4.60828161239624
1761475881858139400,10.508139404296875,1.4065442085266113,2.599060297012329,-3.904911756515503
1761475881868116500,10.518116455078125,1.2796381711959839,3.1792211532592773,-3.027451515197754
1761475881878093300,10.52809326171875,1.054066777229309,2.7854244709014893,-2.0993103981018066
1761475881888070400,10.5380703125,0.8655098080635071,1.7960416078567505,-1.0993599891662598
1761475881898047200,10.548047119140625,0.708954930305481,0.50295090675354,-0.08012278378009796
1761475881908024300,10.5580244140625,0.5804752707481384,-0.7377369999885559,0.8572593331336975
1761475881918001200,10.568001220703126,0.5991418361663818,-1.4417026042938232,1.6333444118499756
1761475881927978200,10.577978271484374,0.6664052605628967,-1.303436040878296,2.094923496246338
1761475881937955300,10.587955322265625,0.6765303611755371,-0.7548712491989136,2.4160516262054443
1761475881947932200,10.59793212890625,0.5784083008766174,0.08283858746290207,2.594128131866455
1761475881957909200,10.6079091796875,0.4255964457988739,1.1222448348999023,2.6079094409942627
1761475881967886300,10.61788623046875,0.38927146792411804,1.5285723209381104,2.4631221294403076
1761475881977863400,10.627863525390625,0.4022081196308136,1.1098955869674683,2.1536216735839844
1761475881987839200,10.637839111328125,0.3273666501045227,0.4324263632297516,1.7660651206970215
1761475881997816300,10.64781640625,0.14485490322113037,-0.14116325974464417,1.354779839515686
1761475882007793200,10.657793212890626,-0.07458849996328354,-0.4290296733379364,1.0171141624450684
1761475882017770200,10.667770263671875,-0.24856193363666534,-0.3212765157222748,0.8237058520317078
1761475882027747300,10.677747314453125,-0.3394324481487274,0.17147883772850037,0.6865120530128479
1761475882037724200,10.68772412109375,-0.2900935411453247,0.7465139031410217,0.6025109887123108
1761475882047701200,10.697701171875,-0.11083963513374329,1.0845310688018799,0.5932122468948364
1761475882057678300,10.70767822265625,0.1403532773256302,1.1543461084365845,0.6364874243736267
1761475882067655400,10.717655517578125,0.3854306936264038,1.0333229303359985,0.6630468964576721
1761475882077632300,10.72763232421875,0.5643175840377808,0.8448145985603333,0.6525905132293701
1761475882087609300,10.737609375,0.6464444398880005,0.7404295802116394,0.6115629076957703
1761475882097586400,10.74758642578125,0.6726280450820923,0.6103389263153076,0.5479368567466736
1761475882107563300,10.757563232421875,0.6722021698951721,0.5529560446739197,0.48023268580436707
1761475882117540400,10.767540283203125,0.6775801181793213,0.6120366454124451,0.38668638467788696
1761475882127517200,10.77751708984375,0.6045026779174805,0.7425669431686401,0.2513677179813385
1761475882137494300,10.787494384765624,0.5616239905357361,0.8288251161575317,0.1977442502975464
1761475882147471000,10.79747119140625,0.6104746460914612,0.9605714082717896,0.2194223701953888
1761475882157448200,10.8074482421875,0.7504353523254395,1.0640816688537598,0.283015638589859
1761475882167425300,10.81742529296875,0.8252467513084412,0.8234204053878784,0.21925079822540283
1761475882177402400,10.82740234375,0.6821401119232178,-0.12888947129249573,-0.14545844495296478
1761475882187379500,10.83737939453125,0.3439761698246002,-0.728802502155304,-0.45861902832984924
1761475882197356300,10.847356201171875,0.030138013884425163,0.21916809678077698,-0.19065618515014648
1761475882207333400,10.85733349609375,-0.19646050035953522,1.2766083478927612,0.26319918036460876
1761475882217310200,10.867310302734374,-0.29192817211151123,1.152789831161499,0.5467162132263184
1761475882227287300,10.877287353515625,-0.36200711131095886,0.10460264980792999,0.46234169602394104
1761475882237264400,10.887264404296875,-0.8554420471191406,-1.5935059785842896,-0.3425357937812805
1761475882247241200,10.8972412109375,-1.5591998100280762,-3.188607931137085,-1.6133041381835938
1761475882257218300,10.90721826171875,-1.8693846464157104,-3.6063923835754395,-2.8152551651000977
1761475882267195100,10.917195068359375,-1.6223660707473755,-2.4599361419677734,-3.4802348613739014
1761475882277172200,10.927172119140625,-1.1825472116470337,-0.3187054693698883,-3.6205198764801025
1761475882287149300,10.9371494140625,-0.3583073019981384,1.396144151687622,-3.368114471435547
1761475882297126100,10.947126220703124,0.6770617961883545,2.287445306777954,-2.900876045227051
1761475882307103000,10.95710302734375,1.5565651655197144,2.491443157196045,-2.344834327697754
1761475882317080000,10.967080078125,1.758118748664856,2.2796075344085693,-1.9243477582931519
1761475882327057200,10.97705712890625,1.4611926078796387,1.7178624868392944,-1.4769940376281738
1761475882337034000,10.987033935546876,0.89544278383255,1.1739152669906616,-0.9539542198181152
1761475882347010000,10.997010009765624,0.31073886156082153,0.7403605580329895,-0.3651241958141327
1761475882356987000,11.00698681640625,-0.08137724548578262,0.2945042848587036,0.2766147255897522
1761475882366964200,11.016964111328125,-0.26666346192359924,-0.19795572757720947,0.89497971534729
1761475882376941000,11.026941162109376,-0.324293851852417,-0.5559606552124023,1.4238345623016357
1761475882386918100,11.036918212890624,-0.30778464674949646,-0.7035288214683533,1.826542615890503
1761475882396895000,11.04689501953125,-0.28589552640914917,-0.7417398691177368,2.0819592475891113
1761475882406872000,11.0568720703125,-0.3455228805541992,-0.7474568486213684,2.1416449546813965
1761475882416849200,11.06684912109375,-0.4891529977321625,-0.7444435358047485,2.007263422012329
1761475882426826000,11.076825927734374,-0.65957111120224,-0.6801639199256897,1.774315595626831
1761475882436803000,11.086802978515625,-0.8102381825447083,-0.5084198713302612,1.5490583181381226
1761475882446780000,11.09677978515625,-0.9111937880516052,-0.26135921478271484,1.3430231809616089
1761475882456757000,11.106757080078125,-0.8983971476554871,-0.0971820056438446,1.1756912469863892
1761475882466733800,11.11673388671875,-0.7998056411743164,-0.006387126166373491,1.0166765451431274
1761475882476711000,11.1267109375,-0.6335917711257935,0.07756009697914124,0.8236271142959595
1761475882486688300,11.136688232421875,-0.45009517669677734,0.1336561143398285,0.6057040691375732
1761475882496665000,11.1466650390625,-0.30491507053375244,0.24563048779964447,0.4579566717147827
1761475882506642200,11.15664208984375,-0.2015753537416458,0.368633896112442,0.4152020215988159
1761475882516619000,11.166618896484374,-0.10627333074808121,0.3485807180404663,0.42387858033180237
1761475882526596000,11.17659619140625,-0.01939781941473484,0.03788357973098755,0.4377445876598358
1761475882536573000,11.186572998046875,0.04926056042313576,-0.3750637173652649,0.37011900544166565
1761475882546550000,11.196550048828126,0.03870618715882301,-0.5712228417396545,0.24102546274662018
1761475882556527000,11.206527099609374,-0.09900382161140442,-0.5877528786659241,0.06805261224508286
1761475882566504000,11.21650390625,-0.22297769784927368,-0.5605542659759521,-0.07639405131340027
1761475882576481000,11.22648095703125,-0.2450261116027832,-0.5077783465385437,-0.1468896120786667
1761475882586457900,11.236457763671876,-0.16861256957054138,-0.48964303731918335,-0.12154138088226318
