time,seconds_elapsed,z,y,x
1761475857559360500,0.067360595703125,0.2770861089229584,-0.3520987629890442,-0.2173852175474167
1761475857569337600,0.077337646484375,0.3465901017189026,-0.3663695752620697,-0.1004420816898346
1761475857579314400,0.087314453125,0.4295418858528137,-0.33002081513404846,0.05805777758359909
1761475857589292500,0.09729248046875,0.4783901274204254,-0.20620618760585785,0.19379670917987823
1761475857599269400,0.107269287109375,0.4814201295375824,-0.029185395687818527,0.2569012939929962
1761475857609246500,0.11724658203125,0.4410226345062256,0.032376233488321304,0.25252917408943176
1761475857619223600,0.1272236328125,0.3668196499347687,0.043529123067855835,0.22634443640708923
1761475857629200400,0.137200439453125,0.2820182144641876,0.01402183249592781,0.21221956610679626
1761475857639177500,0.147177490234375,0.2062048465013504,-0.10243788361549377,0.21421131491661072
1761475857649154300,0.157154296875,0.1447358876466751,-0.28712037205696106,0.22527967393398285
1761475857659131600,0.167131591796875,0.11167531460523605,-0.4567915201187134,0.2656630575656891
1761475857669108500,0.1771083984375,0.11706235259771347,-0.6321516633033752,0.36572760343551636
1761475857679085600,0.18708544921875,0.15130741894245148,-0.6808593273162842,0.5162149667739868
1761475857689062700,0.197062744140625,0.15089382231235504,-0.5797918438911438,0.6571952700614929
1761475857699039500,0.20703955078125,0.11190859228372574,-0.4514879882335663,0.7723619341850281
1761475857709016600,0.2170166015625,0.04144240915775299,-0.2997701168060303,0.8278547525405884
1761475857718994700,0.22699462890625,-0.035939354449510574,-0.24436944723129272,0.8242549300193787
1761475857728971500,0.236971435546875,-0.11505494266748428,-0.1781957596540451,0.7891438007354736
1761475857738948600,0.246948486328125,-0.18665893375873566,-0.14277145266532898,0.7248029112815857
1761475857748925400,0.256925537109375,-0.2605624496936798,-0.1189875528216362,0.6279424428939819
1761475857758902500,0.266902587890625,-0.31812065839767456,-0.15120846033096313,0.5138121843338013
1761475857768879400,0.27687939453125,-0.36035946011543274,-0.20038878917694092,0.38692912459373474
1761475857778856400,0.2868564453125,-0.3934975266456604,-0.2198961228132248,0.28210148215293884
1761475857788833500,0.29683349609375,-0.4145815074443817,-0.21272210776805878,0.1972654014825821
1761475857798810400,0.306810302734375,-0.4429645240306854,-0.17552967369556427,0.13426905870437622
1761475857808787700,0.31678759765625,-0.4649904668331146,-0.1542281210422516,0.07569362968206406
1761475857818764500,0.3267646484375,-0.4627567529678345,-0.07795160263776779,0.036483149975538254
1761475857828741600,0.33674169921875,-0.42246100306510925,0.043037932366132736,0.027938399463891983
1761475857838718500,0.346718505859375,-0.34993818402290344,0.14751464128494263,0.0203178059309721
1761475857848696600,0.356696533203125,-0.2587110698223114,0.21980376541614532,0.014535550959408283
1761475857858673700,0.366673583984375,-0.1939464807510376,0.2921310067176819,0.0036885698791593313
1761475857868650500,0.376650390625,-0.16341440379619598,0.32495686411857605,-0.029580170288681984
1761475857878627600,0.386627685546875,-0.15693894028663635,0.31234943866729736,-0.06757894903421402
1761475857888604400,0.3966044921875,-0.1663031429052353,0.29225748777389526,-0.08661043643951416
1761475857898581500,0.40658154296875,-0.1850006878376007,0.2805752158164978,-0.09401929378509521
1761475857908558600,0.41655859375,-0.20247076451778412,0.25880149006843567,-0.10841740667819977
1761475857918535400,0.426535400390625,-0.21575887501239777,0.2121010422706604,-0.1149664968252182
1761475857928512500,0.436512451171875,-0.21508429944515228,0.20667964220046997,-0.10024427622556686
1761475857938489300,0.4464892578125,-0.21121683716773987,0.2640385031700134,-0.07241043448448181
1761475857948466400,0.456466552734375,-0.17843784391880035,0.270418643951416,-0.0881771519780159
1761475857958443500,0.466443603515625,-0.13645410537719727,0.3812119960784912,-0.09311237186193466
1761475857968420600,0.476420654296875,-0.1344090700149536,0.43959060311317444,-0.0998416468501091
1761475857978398500,0.4863984375,-0.17733073234558105,0.36610329151153564,-0.12987247109413147
1761475857988375600,0.49637548828125,-0.20324808359146118,0.27853721380233765,-0.1870233714580536
1761475857998352600,0.5063525390625,-0.2449645698070526,0.41789180040359497,-0.22538265585899353
1761475858008329500,0.51632958984375,-0.34278249740600586,0.45697396993637085,-0.29907017946243286
1761475858018306600,0.526306640625,-0.438315212726593,0.3716900050640106,-0.356425404548645
1761475858028283600,0.53628369140625,-0.472389280796051,0.2986898422241211,-0.3506245017051697
1761475858038260500,0.546260498046875,-0.46713492274284363,0.2541402578353882,-0.3186310827732086
1761475858048237600,0.556237548828125,-0.47103485465049744,0.3649842143058777,-0.26823288202285767
1761475858058214400,0.56621435546875,-0.48003876209259033,0.48508182168006897,-0.21672995388507843
1761475858068191500,0.57619140625,-0.455289751291275,0.4612569212913513,-0.21109791100025177
1761475858078168300,0.586168212890625,-0.4323281943798065,0.3952919542789459,-0.2026435136795044
1761475858088145400,0.5961455078125,-0.4202856719493866,0.3135552704334259,-0.1602364033460617
1761475858098122500,0.60612255859375,-0.378396213054657,0.27411967515945435,-0.1074552834033966
1761475858108099600,0.616099609375,-0.3526306450366974,0.11583416908979416,-0.06471048295497894
1761475858118077400,0.626077392578125,-0.3575272560119629,0.08114324510097504,0.039854712784290314
1761475858128054500,0.636054443359375,-0.34114590287208557,0.05110757797956467,0.1449369192123413
1761475858138031400,0.64603125,-0.3122634291648865,0.03419842943549156,0.22272837162017822
1761475858148008700,0.6560087890625,-0.26691779494285583,0.028020959347486496,0.29607290029525757
1761475858157985500,0.665985595703125,-0.20443853735923767,-0.0026034247130155563,0.3669346868991852
1761475858167962600,0.675962646484375,-0.12192928045988083,-0.06665431708097458,0.44113889336586
1761475858177939500,0.685939453125,-0.03565359488129616,-0.16434812545776367,0.4921811521053314
1761475858187916500,0.69591650390625,0.03195953741669655,-0.2581568956375122,0.5288206338882446
1761475858197893600,0.7058935546875,0.08228113502264023,-0.3515019714832306,0.555953860282898
1761475858207870500,0.715870361328125,0.10794548690319061,-0.45136597752571106,0.548556387424469
1761475858217847600,0.72584765625,0.10515689104795456,-0.580439567565918,0.4683305025100708
1761475858227824400,0.735824462890625,0.07185539603233337,-0.7024056911468506,0.3074486553668976
1761475858237801500,0.745801513671875,0.018717406317591667,-0.7851728796958923,0.07131220400333405
1761475858247779600,0.755779541015625,-0.022395409643650055,-0.8220674991607666,-0.18661627173423767
1761475858257756400,0.76575634765625,-0.029557716101408005,-0.8310767412185669,-0.43776968121528625
1761475858267733500,0.7757333984375,-0.015616065822541714,-0.7484092712402344,-0.6239411234855652
1761475858277710600,0.785710693359375,0.019408373162150383,-0.503817081451416,-0.7178030014038086
1761475858287687400,0.7956875,0.06245783716440201,-0.1370246708393097,-0.760739803314209
1761475858297664800,0.805664794921875,0.11613406985998154,0.26706966757774353,-0.7685445547103882
1761475858307641900,0.815641845703125,0.15829616785049438,0.6023858785629272,-0.7839240431785583
1761475858317618700,0.82561865234375,0.15993501245975494,0.7827044129371643,-0.7954277992248535
1761475858327595800,0.835595703125,0.13613833487033844,0.858871340751648,-0.7285451889038086
1761475858337572600,0.845572509765625,0.13649043440818787,0.8474254608154297,-0.5686860680580139
1761475858347549700,0.8555498046875,0.1776309460401535,0.7424409985542297,-0.32392746210098267
1761475858357526500,0.865526611328125,0.24577130377292633,0.6024598479270935,-0.021654196083545685
1761475858367503600,0.875503662109375,0.29503312706947327,0.3901321589946747,0.2575833201408386
1761475858377480700,0.885480712890625,0.26151567697525024,0.10022734850645065,0.47792378067970276
1761475858387458600,0.89545849609375,0.14861097931861877,-0.19962994754314423,0.7414169311523438
1761475858397435600,0.905435546875,0.03042619861662388,-0.4687982499599457,1.1363482475280762
1761475858407412500,0.91541259765625,-0.06279003620147705,-0.5438122749328613,1.614608883857727
1761475858417389600,0.9253896484375,-0.050714801996946335,-0.4006468951702118,2.0393030643463135
1761475858427366700,0.93536669921875,0.04366336390376091,-0.15336571633815765,2.2988431453704834
1761475858437343500,0.945343505859375,0.13212095201015472,0.09203013777732849,2.2948172092437744
1761475858447320600,0.955320556640625,0.17860695719718933,0.11626889556646347,1.9765102863311768
1761475858457297700,0.965297607421875,0.12724266946315765,-0.1976509988307953,1.4520877599716187
1761475858467274800,0.975274658203125,0.017586469650268555,-0.6286894679069519,0.9991768002510071
1761475858477251600,0.98525146484375,-0.08031974732875824,-0.8497140407562256,0.8171579837799072
1761475858487228700,0.995228759765625,-0.1172492653131485,-0.7053714990615845,0.8849332928657532
1761475858497205800,1.005205810546875,-0.0877351239323616,-0.32058703899383545,1.0098085403442383
1761475858507182600,1.0151826171875,-0.007708998396992683,-0.0215366892516613,0.9508886933326721
1761475858517159700,1.02515966796875,0.09825775772333145,0.008479589596390724,0.6780136227607727
1761475858527137500,1.035137451171875,0.171452596783638,-0.16496676206588745,0.2982572317123413
1761475858537114600,1.045114501953125,0.18769541382789612,-0.29769253730773926,-0.0026320619508624077
1761475858547091700,1.055091796875,0.18653933703899384,-0.3655410706996918,-0.11414606869220734
1761475858557068500,1.065068603515625,0.23253867030143738,-0.4213423430919647,-0.026466384530067444
1761475858567045600,1.075045654296875,0.3573261499404907,-0.4913134276866913,0.19308409094810486
1761475858577022500,1.0850224609375,0.4958238899707794,-0.557015061378479,0.4492999017238617
1761475858586999600,1.09499951171875,0.5789600610733032,-0.649220883846283,0.6458470225334167
1761475858596976600,1.1049765625,0.5829426050186157,-0.785765528678894,0.702518105506897
1761475858606953700,1.11495361328125,0.47147706151008606,-0.935418963432312,0.5896804928779602
1761475858616930800,1.124930908203125,0.22903096675872803,-1.1174265146255493,0.3012087941169739
1761475858626907600,1.13490771484375,-0.062343355268239975,-1.3175034523010254,-0.11324805021286011
1761475858636884700,1.144884765625,-0.2833084762096405,-1.4484678506851196,-0.5894748568534851
1761475858646861600,1.154861572265625,-0.3715163767337799,-1.3568809032440186,-1.0558621883392334
1761475858656839700,1.164839599609375,-0.30294889211654663,-1.0206325054168701,-1.4979687929153442
1761475858666816800,1.174816650390625,-0.15697410702705383,-0.5057764053344727,-1.885025143623352
1761475858676793600,1.184793701171875,-0.003961773589253426,0.13401903212070465,-2.1958563327789307
1761475858686770700,1.194770751953125,0.13944493234157562,0.7863838076591492,-2.3708105087280273
1761475858696747500,1.20474755859375,0.27274540066719055,1.328437089920044,-2.397198438644409
1761475858706724600,1.214724609375,0.3638457655906677,1.6889026165008545,-2.3181891441345215
1761475858716701700,1.22470166015625,0.4001905024051666,1.8075984716415405,-2.159193754196167
1761475858726678500,1.234678466796875,0.35402965545654297,1.7072793245315552,-1.961213231086731
1761475858736655600,1.244655517578125,0.2599874436855316,1.3738001585006714,-1.7220523357391357
1761475858746632400,1.254632568359375,0.1690404862165451,0.8815008997917175,-1.4273560047149658
1761475858756609800,1.26460986328125,0.10136408358812332,0.38662439584732056,-1.132918119430542
1761475858766586600,1.274586669921875,0.05332305282354355,0.0553753525018692,-0.883144199848175
1761475858776563700,1.284563720703125,0.05598951876163483,-0.004238385707139969,-0.6681101322174072
1761475858786540800,1.294540771484375,0.12403195351362228,0.1191549226641655,-0.42931032180786133
1761475858796518700,1.3045185546875,0.19865484535694122,0.3246578872203827,-0.18504856526851654
1761475858806495700,1.314495849609375,0.27289339900016785,0.5677198171615601,0.04314998537302017
1761475858816472600,1.32447265625,0.3504498302936554,0.8132531642913818,0.2409570962190628
1761475858826449700,1.33444970703125,0.415740430355072,1.051160216331482,0.3819003403186798
1761475858836426800,1.3444267578125,0.47191867232322693,1.2539628744125366,0.4584365785121918
1761475858846403600,1.354403564453125,0.4623320698738098,1.4310194253921509,0.4379238486289978
1761475858856380700,1.364380615234375,0.41924113035202026,1.486385464668274,0.3820522427558899
1761475858866357500,1.374357421875,0.45320814847946167,1.3375099897384644,0.43072283267974854
1761475858876334600,1.38433447265625,0.572825014591217,1.0994682312011719,0.6189078092575073
1761475858886311400,1.3943115234375,0.7057047486305237,0.919322669506073,0.8717331290245056
1761475858896288500,1.40428857421875,0.7473621368408203,0.9057906270027161,1.126665711402893
1761475858906265900,1.414265869140625,0.7593591213226318,1.1261193752288818,1.4576057195663452
1761475858916242700,1.42424267578125,0.7414563298225403,1.1706786155700684,1.7918660640716553
1761475858926219800,1.4342197265625,0.5021510720252991,0.6014521718025208,1.8704687356948853
1761475858936197600,1.44419775390625,0.09839586168527603,-0.4746636152267456,1.7440918684005737
1761475858946174700,1.4541748046875,-0.2819403111934662,-1.2909449338912964,1.6779091358184814
1761475858956151800,1.46415185546875,-0.3612232804298401,-1.2744529247283936,1.936847448348999
1761475858966128600,1.474128662109375,-0.5470304489135742,-0.7975209355354309,2.227985382080078
1761475858976105700,1.484105712890625,-0.49131888151168823,-0.24038642644882202,2.2451393604278564
1761475858986082600,1.49408251953125,0.00038932712050154805,-0.23047307133674622,1.8813273906707764
1761475858996059600,1.5040595703125,0.6116918325424194,-0.449609637260437,1.372950553894043
1761475859006036500,1.514036376953125,1.2264100313186646,-0.48258116841316223,0.9745916724205017
1761475859016013600,1.524013671875,1.710733413696289,-0.6191631555557251,0.6515169739723206
1761475859025990700,1.53399072265625,2.0230491161346436,-0.8310056328773499,0.423913836479187
1761475859035967500,1.543967529296875,2.1026225090026855,-1.2656188011169434,0.21894192695617676
1761475859045944600,1.553944580078125,1.9609099626541138,-2.2631008625030518,-0.2100624293088913
1761475859055921700,1.563921630859375,1.7330856323242188,-3.4446969032287598,-0.8854506015777588
1761475859065898800,1.573898681640625,1.4624680280685425,-4.046227931976318,-1.5465103387832642
1761475859075876600,1.583876708984375,1.1178910732269287,-3.849377155303955,-2.083829402923584
1761475859085853700,1.593853759765625,0.7537083029747009,-3.1810286045074463,-2.5360755920410156
1761475859095830800,1.603830810546875,0.44047340750694275,-2.1676716804504395,-2.9165706634521484
1761475859105807600,1.6138076171875,0.22065076231956482,-0.9139926433563232,-3.174530506134033
1761475859115784700,1.62378466796875,0.07489188015460968,0.3118486702442169,-3.305485486984253
1761475859125761800,1.63376171875,-0.03305109590291977,1.3358829021453857,-3.2874345779418945
1761475859135738600,1.643738525390625,-0.09813414514064789,2.1542937755584717,-3.100270986557007
1761475859145715700,1.6537158203125,-0.0888248011469841,2.7301433086395264,-2.7058093547821045
1761475859155692500,1.663692626953125,0.025773467496037483,3.0582776069641113,-2.1021015644073486
1761475859165669600,1.673669677734375,0.2007945477962494,3.115171194076538,-1.4204089641571045
1761475859175646500,1.683646484375,0.4131830036640167,2.8051295280456543,-0.7285676598548889
1761475859185623600,1.69362353515625,0.556724488735199,2.2313413619995117,-0.09724509716033936
1761475859195600600,1.7036005859375,0.5198843479156494,1.537929892539978,0.32275429368019104
1761475859205577700,1.71357763671875,0.32327091693878174,0.7743273973464966,0.5245140790939331
1761475859215554800,1.723554931640625,0.04008673131465912,0.09096179157495499,0.5996347069740295
1761475859225532400,1.733532470703125,-0.24681879580020905,-0.3633479177951813,0.6115862131118774
1761475859235509800,1.743509765625,-0.48653289675712585,-0.5813059210777283,0.5443925261497498
1761475859245486800,1.75348681640625,-0.634511411190033,-0.6161581873893738,0.4227619469165802
1761475859255463700,1.763463623046875,-0.6523390412330627,-0.4733366370201111,0.31077253818511963
1761475859265440800,1.773440673828125,-0.5717874765396118,-0.14503438770771027,0.25246554613113403
1761475859275417600,1.78341748046875,-0.44824713468551636,0.30104169249534607,0.22626905143260956
1761475859285394400,1.79339453125,-0.31562304496765137,0.7318479418754578,0.21127651631832123
1761475859295371500,1.80337158203125,-0.16196498274803162,1.0756863355636597,0.20986336469650269
1761475859305348400,1.813348388671875,0.005794463213533163,1.3182207345962524,0.23650269210338593
1761475859315325400,1.823325439453125,0.17054477334022522,1.4608025550842285,0.29855650663375854
1761475859325302500,1.833302490234375,0.32206881046295166,1.517953634262085,0.3634459972381592
1761475859335279400,1.843279296875,0.41021212935447693,1.5327520370483398,0.44132593274116516
1761475859345256400,1.85325634765625,0.4417330324649811,1.4274439811706543,0.4802600145339966
1761475859355233500,1.863233642578125,0.4190586805343628,1.146644949913025,0.4839259088039398
1761475859365211400,1.87321142578125,0.3968215584754944,0.8236418962478638,0.596616804599762
1761475859375188500,1.8831884765625,0.4524950683116913,0.6246233582496643,0.9160131812095642
1761475859385165600,1.89316552734375,0.530561089515686,0.5797789096832275,1.4033998250961304
1761475859395142700,1.903142578125,0.6160067915916443,0.637047529220581,1.975980281829834
1761475859405119500,1.913119384765625,0.7420584559440613,0.6612306237220764,2.518984794616699
1761475859415096600,1.9230966796875,0.7583993673324585,0.3634178042411804,2.7351458072662354
1761475859425073700,1.93307373046875,0.4046010673046112,-0.42705366015434265,2.4238293170928955
1761475859435050500,1.943050537109375,-0.1529427468776703,-1.3495475053787231,1.8906712532043457
1761475859445027600,1.953027587890625,-0.4646947681903839,-1.5070644617080688,1.8312358856201172
1761475859455004400,1.96300439453125,-0.37340423464775085,-1.0406230688095093,2.2588226795196533
1761475859464981500,1.9729814453125,-0.31734174489974976,-0.6589635610580444,2.4888973236083984
1761475859474958300,1.982958251953125,-0.5059760808944702,-0.6720517873764038,2.079355239868164
1761475859484935400,1.992935302734375,-0.7395342588424683,-0.8604099750518799,1.1922470331192017
1761475859494912500,2.00291259765625,-0.8882808685302734,-0.8764356970787048,0.25692030787467957
1761475859504890400,2.012890380859375,-0.8151544332504272,-0.5804913640022278,-0.4390140175819397
1761475859514867500,2.022867431640625,-0.48752570152282715,-0.05821442976593971,-0.8186284899711609
1761475859524844300,2.03284423828125,-0.15387079119682312,0.4383338391780853,-0.9085599780082703
1761475859534821600,2.042821533203125,0.010906805284321308,0.5917858481407166,-0.8399040699005127
1761475859544798700,2.052798828125,-0.049196209758520126,0.2917163074016571,-0.8019034266471863
1761475859554775600,2.062775634765625,-0.22603382170200348,-0.36674511432647705,-0.8048082590103149
1761475859564752600,2.072752685546875,-0.41100019216537476,-1.0587238073349,-0.7646936178207397
1761475859574729500,2.0827294921875,-0.5251654386520386,-1.394812822341919,-0.6577410697937012
1761475859584706600,2.09270654296875,-0.5092767477035522,-1.4852731227874756,-0.5959764719009399
1761475859594683400,2.102683349609375,-0.4133964776992798,-1.482864260673523,-0.6263418793678284
1761475859604660500,2.112660400390625,-0.23739081621170044,-1.3617374897003174,-0.7653846740722656
1761475859614637600,2.122637451171875,-0.05195239558815956,-1.097987174987793,-0.977770209312439
1761475859624614400,2.132614501953125,0.05951341241598129,-0.7266826033592224,-1.253239631652832
1761475859634591500,2.142591552734375,0.1210474744439125,-0.33180564641952515,-1.525475025177002
1761475859644568300,2.152568359375,0.14390352368354797,0.09193204343318939,-1.7150875329971313
1761475859654546400,2.16254638671875,0.138718843460083,0.5377762913703918,-1.7805871963500977
1761475859664523500,2.1725234375,0.16321860253810883,0.9215641617774963,-1.7192118167877197
1761475859674500400,2.182500244140625,0.2786332964897156,1.1688464879989624,-1.5327235460281372
1761475859684477400,2.1924775390625,0.44059476256370544,1.2536839246749878,-1.2333754301071167
1761475859694454500,2.20245458984375,0.5613077282905579,1.1662570238113403,-0.8893723487854004
1761475859704431600,2.212431640625,0.5778979063034058,0.9228894114494324,-0.5892798900604248
1761475859714408400,2.222408447265625,0.5027589201927185,0.6053878664970398,-0.3409235179424286
1761475859724385500,2.232385498046875,0.3714165985584259,0.2937260866165161,-0.056743450462818146
1761475859734362600,2.242362548828125,0.18424934148788452,0.09895959496498108,0.2194342017173767
1761475859744339500,2.25233935546875,-0.028866926208138466,0.037642702460289,0.4103652536869049
1761475859754316500,2.262316650390625,-0.18511003255844116,0.013563989661633968,0.5308113694190979
1761475859764293400,2.27229345703125,-0.25060513615608215,0.04905886948108673,0.6037542819976807
1761475859774270500,2.2822705078125,-0.24900247156620026,0.16325271129608154,0.6519070267677307
1761475859784247300,2.292247314453125,-0.22995713353157043,0.3402101695537567,0.6654753088951111
1761475859794224400,2.302224365234375,-0.19295719265937805,0.5234023332595825,0.6696745157241821
1761475859804202500,2.312202392578125,-0.16966012120246887,0.6554695963859558,0.669905424118042
1761475859814179300,2.322179443359375,-0.14205774664878845,0.6910206079483032,0.6446200013160706
1761475859824156400,2.332156494140625,-0.1175478845834732,0.6124493479728699,0.5971696376800537
1761475859834133500,2.342133544921875,-0.11679122596979141,0.4877437651157379,0.5337885022163391
1761475859844110600,2.352110595703125,-0.08497976511716843,0.38858097791671753,0.4807246923446655
1761475859854087700,2.362087646484375,-0.009188122116029263,0.3113641142845154,0.47202610969543457
1761475859864064500,2.372064453125,0.12378590553998947,0.3629961311817169,0.5956436395645142
1761475859874041600,2.38204150390625,0.2694410979747772,0.5502280592918396,0.8147158026695251
1761475859884018400,2.392018310546875,0.3832387626171112,0.702101469039917,1.0237728357315063
1761475859893995500,2.40199560546875,0.4497852921485901,0.8117667436599731,1.1352486610412598
1761475859903972400,2.411972412109375,0.48296186327934265,0.8090146780014038,1.1773191690444946
1761475859913949400,2.421949462890625,0.45175066590309143,0.5687283873558044,1.0642427206039429
1761475859923926500,2.431926513671875,0.3142029345035553,0.14773297309875488,0.7471387386322021
1761475859933903400,2.4419033203125,0.11156550794839859,-0.30243924260139465,0.3899824619293213
1761475859943880400,2.45188037109375,-0.01954297348856926,-0.5210565328598022,0.33481213450431824
1761475859953857500,2.461857421875,-0.003169470466673374,-0.16100040078163147,0.5762352347373962
1761475859963835400,2.47183544921875,-0.013094538822770119,0.16909068822860718,0.7084707617759705
1761475859973812500,2.4818125,-0.19204531610012054,-0.030010860413312912,0.4924211800098419
1761475859983789600,2.49178955078125,-0.4433704912662506,-0.5382317304611206,0.023309888318181038
1761475859993766700,2.5017666015625,-0.6629670262336731,-1.1882447004318237,-0.4954557716846466
1761475860003743500,2.511743408203125,-0.803668200969696,-1.714595079421997,-0.9154948592185974
1761475860013720600,2.521720458984375,-0.8465469479560852,-1.885947823524475,-1.221320629119873
1761475860023697700,2.53169775390625,-0.7318011522293091,-1.452750563621521,-1.293666958808899
1761475860033674500,2.541674560546875,-0.4945718050003052,-0.6813790202140808,-1.200364112854004
1761475860043651600,2.551651611328125,-0.20072953402996063,-0.12280790507793427,-1.149542212486267
1761475860053628400,2.56162841796875,0.05159306526184082,-0.013255639933049679,-1.1597590446472168
1761475860063605500,2.57160546875,0.15415778756141663,-0.17685867846012115,-1.1599798202514648
1761475860073582300,2.581582275390625,0.06468096375465393,-0.5301612615585327,-1.0779242515563965
1761475860083559400,2.591559326171875,-0.12547513842582703,-0.9320261478424072,-0.8986148834228516
1761475860093536500,2.60153662109375,-0.2966923117637634,-1.2195494174957275,-0.7113698124885559
1761475860103513600,2.611513671875,-0.37931156158447266,-1.264717698097229,-0.6103563904762268
1761475860113491500,2.621491455078125,-0.39351579546928406,-1.042841911315918,-0.6052199006080627
1761475860123468300,2.63146826171875,-0.3762124478816986,-0.5939757823944092,-0.6620174050331116
1761475860133445400,2.6414453125,-0.3642979562282562,-0.05942174419760704,-0.7368354797363281
1761475860143422700,2.651422607421875,-0.3556208610534668,0.39826270937919617,-0.8172973394393921
1761475860153399600,2.661399658203125,-0.3293723165988922,0.6841745972633362,-0.8717153668403625
1761475860163376600,2.671376708984375,-0.25271669030189514,0.7302911877632141,-0.8762507438659668
1761475860173353500,2.681353515625,-0.13810689747333527,0.9580178260803223,-0.7100054621696472
1761475860183330600,2.69133056640625,0.06893257051706314,0.9214193224906921,-0.4605075418949127
1761475860193307400,2.701307373046875,0.2987167239189148,0.6963606476783752,-0.19572453200817108
1761475860203284500,2.711284423828125,0.4782359004020691,0.4546372592449188,0.10468136519193649
1761475860213261600,2.721261474609375,0.5684826374053955,0.1700737178325653,0.3568724989891052
1761475860223238400,2.73123828125,0.5380643010139465,-0.08962655812501907,0.5524457693099976
1761475860233215500,2.741215576171875,0.4145474433898926,-0.25170427560806274,0.7100772261619568
1761475860243192300,2.7511923828125,0.24790549278259277,-0.3531978726387024,0.8265876173973083
1761475860253169700,2.761169677734375,0.09560032188892365,-0.4250269830226898,0.8837231397628784
1761475860263147500,2.7711474609375,-0.004011751618236303,-0.45001327991485596,0.8987676501274109
1761475860273124400,2.781124267578125,-0.037477221339941025,-0.444508820772171,0.8814132809638977
1761475860283101400,2.791101318359375,-0.00980511587113142,-0.43527188897132874,0.8298768401145935
1761475860293078800,2.801078857421875,0.036486025899648666,-0.41348645091056824,0.7300041317939758
1761475860303055600,2.8110556640625,0.06743435561656952,-0.36897197365760803,0.5842568278312683
1761475860313032700,2.82103271484375,0.0784999281167984,-0.31276965141296387,0.406878262758255
1761475860323009800,2.831009765625,0.06706085801124573,-0.27130237221717834,0.22230839729309082
1761475860332986600,2.840986572265625,0.019613036885857582,-0.24583061039447784,0.043744053691625595
1761475860342963700,2.850963623046875,-0.04798784479498863,-0.24229712784290314,-0.17257119715213776
1761475860352940500,2.8609404296875,-0.1063765212893486,-0.24257777631282806,-0.3749162554740906
1761475860362917600,2.870917724609375,-0.07000333070755005,-0.16091860830783844,-0.48045918345451355
1761475860372894500,2.88089453125,0.025858217850327492,-0.03966327756643295,-0.4496813118457794
1761475860382871600,2.89087158203125,0.11477024853229523,0.0722494125366211,-0.2938291132450104
1761475860392848600,2.9008486328125,0.18298250436782837,0.1217067688703537,-0.06540212035179138
1761475860402825500,2.910825439453125,0.18459825217723846,0.15373553335666656,0.21774277091026306
1761475860412803600,2.920803466796875,0.10438621789216995,0.2563352584838867,0.6003189086914062
1761475860422780400,2.930780517578125,-0.010913476347923279,0.3947591781616211,1.1048157215118408
1761475860432757500,2.940757568359375,-0.0876695066690445,0.47302496433258057,1.6701164245605469
1761475860442734600,2.950734619140625,-0.12404375523328781,0.40899458527565,2.134448528289795
1761475860452711700,2.960711669921875,-0.10993630439043045,0.3199509382247925,2.4527604579925537
1761475860462688800,2.970688720703125,-0.11791913211345673,0.34067031741142273,2.633124589920044
1761475860472665600,2.98066552734375,-0.2459287941455841,0.4376930594444275,2.678832769393921
1761475860482642700,2.990642578125,-0.5174338221549988,0.19922056794166565,2.409485340118408
1761475860492619500,3.00061962890625,-0.8106240034103394,-0.19011589884757996,1.8079743385314941
1761475860502596600,3.0105966796875,-0.84023118019104,-0.42782244086265564,1.0505121946334839
1761475860512573700,3.02057373046875,-0.6455949544906616,-0.5844178795814514,0.16112032532691956
1761475860522550500,3.030550537109375,-0.39376991987228394,-0.49713680148124695,-0.7606183290481567
1761475860532527600,3.040527587890625,-0.1562865674495697,-0.20504993200302124,-1.526780605316162
1761475860542504400,3.05050439453125,0.06770524382591248,0.0010166794527322054,-1.9976171255111694
1761475860552481500,3.0604814453125,0.18861745297908783,-0.1139371246099472,-2.144071340560913
1761475860562458600,3.070458740234375,0.1427205353975296,-0.4146985709667206,-1.969122290611267
1761475860572436500,3.0804365234375,-0.017422335222363472,-0.7453381419181824,-1.497771978378296
1761475860582413600,3.09041357421875,-0.18640363216400146,-1.0876696109771729,-0.9356968402862549
1761475860592390700,3.100390625,-0.3198767602443695,-1.4206647872924805,-0.48255255818367004
1761475860602367700,3.11036767578125,-0.3842940926551819,-1.6574598550796509,-0.22623713314533234
1761475860612344800,3.1203447265625,-0.39776474237442017,-1.774295449256897,-0.16163842380046844
1761475860622321700,3.13032177734375,-0.3891020119190216,-1.7744840383529663,-0.24107253551483154
1761475860632298800,3.140298828125,-0.3894710838794708,-1.647191047668457,-0.3991338908672333
1761475860642275600,3.150275634765625,-0.3980422019958496,-1.278625249862671,-0.6212290525436401
1761475860652252700,3.160252685546875,-0.39122772216796875,-0.6973970532417297,-0.9069395661354065
1761475860662229500,3.1702294921875,-0.34112247824668884,0.06878320872783661,-1.2002917528152466
1761475860672206600,3.18020654296875,-0.2250468134880066,0.8860379457473755,-1.434693455696106
1761475860682183700,3.19018359375,-0.038667358458042145,1.5115774869918823,-1.572535514831543
1761475860692160500,3.200160400390625,0.17909328639507294,1.806560754776001,-1.6453440189361572
1761475860702137600,3.2101376953125,0.3612862527370453,1.6916486024856567,-1.6701897382736206
1761475860712114700,3.22011474609375,0.45107612013816833,1.334140658378601,-1.6533243656158447
1761475860722092500,3.230092529296875,0.4358135461807251,0.939242422580719,-1.5742337703704834
1761475860732069600,3.240069580078125,0.3449290692806244,0.6349960565567017,-1.410889983177185
1761475860742046700,3.250046630859375,0.19211743772029877,0.49629756808280945,-1.1501414775848389
1761475860752023800,3.26002392578125,0.009455101564526558,0.5270420908927917,-0.798031747341156
1761475860762000600,3.270000732421875,-0.15481266379356384,0.6300649046897888,-0.38264861702919006
1761475860771977700,3.279977783203125,-0.26485180854797363,0.6645338535308838,-0.0033708473201841116
1761475860781954600,3.28995458984375,-0.3333227336406708,0.5875021815299988,0.287868469953537
1761475860791931600,3.299931640625,-0.356973797082901,0.43203285336494446,0.4880298674106598
1761475860801908700,3.30990869140625,-0.33122316002845764,0.2676793336868286,0.6234627962112427
1761475860811885600,3.319885498046875,-0.28498575091362,0.08163780719041824,0.670663595199585
1761475860821862700,3.329862548828125,-0.2611541748046875,-0.12112941592931747,0.6022528409957886
1761475860831839500,3.339839599609375,-0.22425323724746704,-0.21790751814842224,0.5013834238052368
1761475860841816600,3.349816650390625,-0.16708102822303772,-0.1625332087278366,0.39881813526153564
1761475860851793400,3.35979345703125,-0.1313966065645218,-0.03388682380318642,0.27468034625053406
1761475860861770800,3.369770751953125,-0.06139889359474182,0.17953543365001678,0.23448337614536285
1761475860871747800,3.379747802734375,0.04918736591935158,0.4705464243888855,0.3636920750141144
1761475860881724700,3.389724609375,0.1879686862230301,0.6968346834182739,0.5975884795188904
1761475860891702500,3.39970263671875,0.3733142018318176,0.8234207034111023,0.8393275737762451
1761475860901679600,3.4096796875,0.5435375571250916,0.8457409143447876,1.0667897462844849
1761475860911656700,3.41965673828125,0.6004475355148315,0.8276429176330566,1.336093544960022
1761475860921633800,3.4296337890625,0.46018895506858826,0.6028262972831726,1.5172840356826782
1761475860931610600,3.439610595703125,0.05545724928379059,0.016688857227563858,1.4722673892974854
1761475860941587700,3.449587646484375,-0.5098490118980408,-0.7222046256065369,1.331674337387085
1761475860951564500,3.459564453125,-0.9426938891410828,-1.1726109981536865,1.3702819347381592
1761475860961541600,3.469541748046875,-1.0724884271621704,-1.1669014692306519,1.6008086204528809
1761475860971518500,3.4795185546875,-0.9388273358345032,-1.0068641901016235,1.7334628105163574
1761475860981495600,3.48949560546875,-0.7109385132789612,-0.8135588765144348,1.4836658239364624
1761475860991472600,3.49947265625,-0.4103316068649292,-0.5485146045684814,0.8534250259399414
1761475861001449500,3.509449462890625,-0.13029569387435913,-0.2639946937561035,0.08801579475402832
1761475861011426600,3.519426513671875,0.08651737868785858,-0.14155687391757965,-0.5698355436325073
1761475861021403600,3.529403564453125,0.23803900182247162,-0.20390254259109497,-1.0995789766311646
1761475861031380700,3.539380615234375,0.30168282985687256,-0.4226689636707306,-1.568616509437561
1761475861041357600,3.549357666015625,0.3328207731246948,-0.5450478792190552,-1.877578854560852
1761475861051335700,3.559335693359375,0.3685465157032013,-0.44119903445243835,-1.9002528190612793
1761475861061312800,3.569312744140625,0.4261035621166229,-0.21230274438858032,-1.6707428693771362
1761475861071289600,3.57928955078125,0.4322061836719513,-0.045318011194467545,-1.346558928489685
1761475861081266700,3.5892666015625,0.3420771062374115,-0.05677040293812752,-0.9946563243865967
1761475861091243800,3.599243896484375,0.19899322092533112,-0.27407321333885193,-0.637992799282074
1761475861101220600,3.609220703125,0.03661896660923958,-0.5694553256034851,-0.39064767956733704
1761475861111197700,3.61919775390625,-0.14227275550365448,-0.7416307926177979,-0.3734617531299591
1761475861121174500,3.629174560546875,-0.28976768255233765,-0.7608795762062073,-0.5713306665420532
1761475861131151600,3.639151611328125,-0.3629811704158783,-0.6230295896530151,-0.8367255926132202
1761475861141128400,3.64912841796875,-0.3281550109386444,-0.30730921030044556,-1.0311408042907715
1761475861151105500,3.65910546875,-0.20678967237472534,0.1272851824760437,-1.0506818294525146
1761475861161082600,3.66908251953125,-0.04102413356304169,0.6230486035346985,-0.8804829716682434
1761475861171059700,3.679059814453125,0.07932848483324051,1.0567039251327515,-0.580531120300293
1761475861181036800,3.689036865234375,0.13165853917598724,1.3162140846252441,-0.27082520723342896
1761475861191013600,3.699013671875,0.13495542109012604,1.302546739578247,-0.05293387547135353
1761475861200990700,3.70899072265625,0.10948281735181808,1.0036811828613281,0.05279921367764473
1761475861210968800,3.71896875,0.09414906054735184,0.5605287551879883,0.07580292224884033
1761475861220945700,3.728945556640625,0.08156722038984299,0.12812195718288422,0.06930001825094223
1761475861230922800,3.7389228515625,0.061420466750860214,-0.21958370506763458,0.06621597707271576
1761475861240899600,3.748899658203125,0.0521814301609993,-0.4249379336833954,0.07940075546503067
1761475861250876700,3.758876708984375,0.0729987844824791,-0.4638506770133972,0.0791933685541153
1761475861260853500,3.768853515625,0.11308814585208893,-0.3667534291744232,0.05339665710926056
1761475861270830600,3.77883056640625,0.18107649683952332,-0.14184965193271637,0.011425096541643143
1761475861280807700,3.7888076171875,0.241582453250885,0.1604745239019394,-0.029735123738646507
1761475861290784800,3.79878466796875,0.2738676965236664,0.4580504596233368,-0.05502516031265259
1761475861300761600,3.80876171875,0.2809540927410126,0.6827735900878906,-0.04286516457796097
1761475861310738700,3.81873876953125,0.2783719301223755,0.7898436784744263,0.017798934131860733
1761475861320716000,3.828716064453125,0.259433388710022,0.7084854245185852,0.09341779351234436
1761475861330692900,3.83869287109375,0.19229447841644287,0.4330822229385376,0.16115263104438782
1761475861340670000,3.848669921875,0.08645939081907272,0.07040098309516907,0.2183442860841751
1761475861350646800,3.858646728515625,-0.004474927671253681,-0.24250046908855438,0.25820937752723694
1761475861360623900,3.868623779296875,-0.030963795259594917,-0.465878427028656,0.2949199974536896
1761475861370600700,3.8786005859375,0.032968126237392426,-0.5102506875991821,0.36555835604667664
1761475861380578800,3.888578857421875,0.24384254217147827,-0.23235170543193817,0.5329891443252563
1761475861390556000,3.898555908203125,0.5058771967887878,0.34288379549980164,0.7915681600570679
1761475861400532700,3.90853271484375,0.7291276454925537,0.8088613152503967,1.0145114660263062
1761475861410509800,3.918509765625,0.7859752178192139,0.9316565990447998,1.0857712030410767
1761475861420486700,3.928486572265625,0.52436363697052,0.5835748314857483,0.9406803846359253
1761475861430463700,3.938463623046875,-0.0817166417837143,-0.22162768244743347,0.615796685218811
1761475861440440800,3.94844091796875,-0.7401451468467712,-1.0316193103790283,0.40073472261428833
1761475861450417700,3.958417724609375,-1.0924131870269775,-1.3121039867401123,0.4922866225242615
1761475861460394800,3.968394775390625,-0.9429397583007812,-0.8710683584213257,0.7608749270439148
1761475861470371800,3.978371826171875,-0.595387876033783,-0.2609664797782898,0.7852852940559387
1761475861480349000,3.988348876953125,-0.17378760874271393,0.20667636394500732,0.4205092191696167
1761475861490325800,3.99832568359375,0.324925035238266,0.6125999093055725,-0.1338297426700592
1761475861500302800,4.008302734375,0.6124263405799866,0.5709555149078369,-0.8619859218597412
1761475861510280000,4.018280029296875,0.5501765012741089,0.06315259635448456,-1.6884230375289917
1761475861520256800,4.0282568359375,0.35525766015052795,-0.4730149507522583,-2.2736635208129883
1761475861530233900,4.03823388671875,0.26705554127693176,-0.6625416874885559,-2.425575017929077
1761475861540210700,4.048210693359375,0.2534070909023285,-0.5324271321296692,-2.239210844039917
1761475861550187800,4.058187744140625,0.153795063495636,-0.4102090895175934,-1.9464036226272583
1761475861560164600,4.06816455078125,-0.03422863036394119,-0.45141512155532837,-1.614170789718628
1761475861570141700,4.0781416015625,-0.19528162479400635,-0.45607614517211914,-1.1080175638198853
1761475861580119800,4.088119873046875,-0.29101186990737915,-0.4057613015174866,-0.4996764361858368
1761475861590096600,4.0980966796875,-0.40061530470848083,-0.4094265103340149,0.019762268289923668
1761475861600073700,4.10807373046875,-0.5535116195678711,-0.46335604786872864,0.3523423373699188
1761475861610050600,4.118050537109375,-0.708550214767456,-0.4169122874736786,0.47887855768203735
1761475861620028000,4.12802783203125,-0.7817964553833008,-0.2587500810623169,0.3631189465522766
1761475861630005000,4.1380048828125,-0.7412492036819458,0.005357095971703529,0.06555964797735214
1761475861639981800,4.14798193359375,-0.5570471286773682,0.3971664011478424,-0.25932013988494873
1761475861649959000,4.157958984375,-0.2287421077489853,0.8870599865913391,-0.47140035033226013
1761475861659935700,4.167935791015625,0.20268386602401733,1.279098629951477,-0.526134192943573
1761475861669912800,4.177912841796875,0.6337457895278931,1.408830165863037,-0.47490474581718445
1761475861679889700,4.1878896484375,0.9433901906013489,1.2961193323135376,-0.36144769191741943
1761475861689866800,4.19786669921875,1.0352736711502075,0.9975404143333435,-0.2347267121076584
1761475861699843800,4.20784375,0.8843778967857361,0.556521475315094,-0.0910973846912384
1761475861709820700,4.217820556640625,0.585727334022522,0.07793175429105759,0.05660339444875717
1761475861719797800,4.2277978515625,0.2597348392009735,-0.3310088813304901,0.20349270105361938
1761475861729774600,4.237774658203125,-0.008549236692488194,-0.5773845911026001,0.3084042966365814
1761475861739752000,4.247751953125,-0.1826145052909851,-0.6449316740036011,0.3488401472568512
1761475861749728800,4.257728759765625,-0.25447627902030945,-0.5602921843528748,0.3550949692726135
1761475861759706600,4.26770654296875,-0.2393825203180313,-0.3629429042339325,0.34548628330230713
1761475861769683700,4.27768359375,-0.17858457565307617,-0.1260526329278946,0.3266122341156006
1761475861779660800,4.287660888671875,-0.11095546185970306,0.11004512012004852,0.29620853066444397
1761475861789638000,4.297637939453125,-0.07828789949417114,0.3113781809806824,0.2730746269226074
1761475861799615000,4.307614990234375,-0.11754316091537476,0.43136876821517944,0.22844508290290833
1761475861809591800,4.317591796875,-0.22364641726016998,0.48469457030296326,0.192491352558136
1761475861819569000,4.32756884765625,-0.3525189161300659,0.5017931461334229,0.21887928247451782
1761475861829545700,4.337545654296875,-0.46125924587249756,0.5526782274246216,0.3306565284729004
1761475861839522800,4.347522705078125,-0.5246244072914124,0.6775703430175781,0.5169159173965454
1761475861849499600,4.357499755859375,-0.5022816061973572,0.7861132025718689,0.7185316681861877
1761475861859476700,4.367476806640625,-0.4046141505241394,0.875682532787323,0.9024743437767029
1761475861869453800,4.377453857421875,-0.2249629944562912,1.00800621509552,1.1497609615325928
1761475861879431700,4.387431640625,-0.08420109003782272,1.0036377906799316,1.3916747570037842
1761475861889408800,4.39740869140625,-0.06256648898124695,0.839544951915741,1.5942747592926025
1761475861899385600,4.407385498046875,-0.20024046301841736,0.5484492182731628,1.7186696529388428
1761475861909362700,4.41736279296875,-0.5780068039894104,0.19904561340808868,1.6480903625488281
1761475861919339800,4.42733984375,-0.8283599019050598,0.22493846714496613,1.6397969722747803
1761475861929316900,4.43731689453125,-0.681447446346283,0.7330160140991211,1.8811004161834717
1761475861939294000,4.4472939453125,-0.31511470675468445,1.16763436794281,2.104266881942749
1761475861949270800,4.457270751953125,-0.29262205958366394,0.9447481036186218,1.978364109992981
1761475861959248000,4.467247802734375,-0.508206844329834,0.358570396900177,1.4313249588012695
1761475861969224700,4.477224609375,-0.8363351225852966,-0.6152462363243103,0.5203447937965393
1761475861979201800,4.487201904296875,-1.097873568534851,-1.417465090751648,-0.2850305438041687
1761475861989179000,4.497178955078125,-1.1086567640304565,-1.7807893753051758,-0.8380410075187683
1761475861999155700,4.50715576171875,-0.8344724774360657,-1.912657618522644,-1.2246066331863403
1761475862009132800,4.5171328125,-0.45270052552223206,-1.7721930742263794,-1.3740211725234985
1761475862019109600,4.527109619140625,-0.09076016396284103,-1.4587219953536987,-1.3343960046768188
1761475862029086700,4.537086669921875,0.1327783167362213,-1.2223297357559204,-1.2550342082977295
1761475862039063800,4.547063720703125,0.12113150954246521,-0.8402951955795288,-1.0708414316177368
1761475862049041000,4.557041015625,-0.08317260444164276,-0.3377198278903961,-0.7482571005821228
1761475862059018800,4.567018798828125,-0.372512549161911,0.05400719866156578,-0.375525563955307
1761475862068995800,4.576995849609375,-0.6478559970855713,0.16588249802589417,-0.021195894107222557
1761475862078973000,4.586972900390625,-0.8231793642044067,-0.001181333209387958,0.2685432434082031
1761475862088949800,4.59694970703125,-0.8543378710746765,-0.25130680203437805,0.4392194151878357
1761475862098926800,4.6069267578125,-0.791838526725769,-0.4099081754684448,0.4760408103466034
1761475862108904000,4.616904052734375,-0.7529241442680359,-0.41200950741767883,0.44262373447418213
1761475862118880800,4.626880859375,-0.7711212635040283,-0.13284151256084442,0.42213043570518494
1761475862128857900,4.63685791015625,-0.7628657817840576,0.29885604977607727,0.47641146183013916
1761475862138834700,4.646834716796875,-0.6942893862724304,0.661054790019989,0.5828364491462708
1761475862148811800,4.656811767578125,-0.5848424434661865,0.8004883527755737,0.6598411798477173
1761475862158788600,4.66678857421875,-0.45625755190849304,0.6676527857780457,0.6741812229156494
1761475862168765700,4.676765625,-0.3585081398487091,0.25375810265541077,0.601941704750061
1761475862178742800,4.68674267578125,-0.33797115087509155,-0.2778458595275879,0.45376187562942505
1761475862188719900,4.696719970703125,-0.4065467119216919,-0.7262942790985107,0.2453547865152359
1761475862198697000,4.706697021484375,-0.5375750660896301,-0.9629020094871521,-0.014612874016165733
1761475862208673800,4.716673828125,-0.6628045439720154,-0.9171414971351624,-0.30597901344299316
1761475862218651000,4.72665087890625,-0.7331221103668213,-0.6162676811218262,-0.5614057183265686
1761475862228629000,4.73662890625,-0.7109333872795105,-0.15316584706306458,-0.7326585054397583
1761475862238605800,4.746605712890625,-0.6141485571861267,0.3160061538219452,-0.8168196678161621
1761475862248583000,4.7565830078125,-0.4761504828929901,0.6301251649856567,-0.8016058802604675
1761475862258559700,4.766559814453125,-0.3475475013256073,0.767601490020752,-0.6940746307373047
1761475862268536800,4.776536865234375,-0.2561640441417694,0.7179821133613586,-0.5145000219345093
1761475862278514000,4.786513916015625,-0.21162612736225128,0.5163618922233582,-0.2841382324695587
1761475862288490800,4.79649072265625,-0.2535000443458557,0.21376293897628784,-0.08026983588933945
1761475862298467800,4.8064677734375,-0.36476796865463257,-0.07974031567573547,0.06805998086929321
1761475862308445000,4.81644482421875,-0.45029884576797485,-0.22427715361118317,0.22563284635543823
1761475862318421800,4.826421875,-0.41376668214797974,-0.1614353358745575,0.4475117027759552
1761475862328398800,4.83639892578125,-0.2941443920135498,-0.050650712102651596,0.6488738059997559
1761475862338375700,4.846375732421875,-0.11071278154850006,-0.03045409917831421,0.7555597424507141
1761475862348353000,4.85635302734375,0.10504525154829025,-0.13659773766994476,0.7416377067565918
1761475862358329900,4.866329833984375,0.28814610838890076,-0.3135994076728821,0.6150113344192505
1761475862368307000,4.876306884765625,0.40323641896247864,-0.4503510296344757,0.47957751154899597
1761475862378284000,4.886283935546875,0.3888777196407318,-0.6408429741859436,0.32528889179229736
1761475862388260900,4.8962607421875,0.2836189866065979,-0.8995991349220276,0.09864626079797745
1761475862398238000,4.906238037109375,0.22031962871551514,-1.068626880645752,-0.05738701671361923
1761475862408215800,4.9162158203125,0.22531680762767792,-0.9048106670379639,-0.0007219222607091069
1761475862418193000,4.92619287109375,0.13174664974212646,-0.6341027021408081,0.13070055842399597
1761475862428170000,4.936169921875,-0.27277687191963196,-0.4505881667137146,0.1987600475549698
1761475862438146800,4.946146728515625,-0.6658735871315002,-0.1738433837890625,0.45252227783203125
1761475862448124000,4.9561240234375,-0.71653151512146,-0.304330438375473,0.6918270587921143
1761475862458100700,4.966100830078125,-0.5020421147346497,-0.9613173604011536,0.49427828192710876
1761475862468077800,4.976077880859375,-0.19254781305789948,-1.4028146266937256,0.04818465933203697
1761475862478054700,4.9860546875,0.08467233180999756,-1.2006524801254272,-0.24771252274513245
1761475862488031700,4.99603173828125,0.2956451177597046,-0.600967288017273,-0.3272014856338501
1761475862498009000,5.006009033203125,0.48901885747909546,0.01372890267521143,-0.18266348540782928
1761475862507986000,5.01598583984375,0.5966684222221375,0.4387761950492859,0.04867419973015785
1761475862517963000,5.025962890625,0.5410725474357605,0.6066961884498596,0.3087766170501709
1761475862527939800,5.03593994140625,0.22873017191886902,0.5291786789894104,0.5657575130462646
1761475862537917000,5.0459169921875,-0.21942684054374695,0.12802086770534515,0.7228707075119019
1761475862547893800,5.055893798828125,-0.6019193530082703,-0.48695263266563416,0.7308729887008667
1761475862557870800,5.065870849609375,-0.7448781132698059,-1.012334942817688,0.6158982515335083
1761475862567848000,5.075847900390625,-0.5580971240997314,-1.2046639919281006,0.38006848096847534
1761475862577824800,5.08582470703125,-0.13939307630062103,-1.0256036520004272,0.05317050591111183
1761475862587803000,5.095802978515625,0.3407381474971771,-0.5196588635444641,-0.3327072560787201
1761475862597780000,5.105780029296875,0.7104440927505493,0.1812768429517746,-0.6518545746803284
1761475862607756800,5.1157568359375,0.8683304786682129,0.9355952739715576,-0.8286598324775696
1761475862617734000,5.12573388671875,0.8389909267425537,1.6112346649169922,-0.9005308151245117
1761475862627710700,5.135710693359375,0.70779949426651,1.9809108972549438,-0.8836429715156555
1761475862637687800,5.145687744140625,0.5484505891799927,1.8826253414154053,-0.8269594311714172
1761475862647665000,5.155664794921875,0.40192821621894836,1.3901625871658325,-0.7354499697685242
1761475862657642000,5.16564208984375,0.29081422090530396,0.708547055721283,-0.5861366391181946
1761475862667619000,5.175619140625,0.25151869654655457,0.09597686678171158,-0.3462326228618622
1761475862677596000,5.185595947265625,0.22047582268714905,-0.32467713952064514,-0.09056755900382996
1761475862687573000,5.195572998046875,0.1775929480791092,-0.5734063982963562,0.1399860680103302
1761475862697549800,5.2055498046875,0.1142781525850296,-0.6039118766784668,0.3211393654346466
1761475862707527000,5.21552685546875,0.028839915990829468,-0.4343571960926056,0.44584208726882935
1761475862717503700,5.225503662109375,-0.07147417217493057,-0.11135092377662659,0.5193831324577332
1761475862727480800,5.235480712890625,-0.16421490907669067,0.3176952004432678,0.5769208073616028
1761475862737458000,5.2454580078125,-0.21542243659496307,0.7502897381782532,0.6132785677909851
1761475862747434800,5.255434814453125,-0.2147008329629898,1.0609514713287354,0.5900029540061951
1761475862757411800,5.265411865234375,-0.1943284571170807,1.2257564067840576,0.5231504440307617
1761475862767389700,5.2753896484375,-0.18443146347999573,1.23324453830719,0.4377787709236145
1761475862777366800,5.28536669921875,-0.14712564647197723,1.1215333938598633,0.36766624450683594
1761475862787344000,5.29534375,-0.04792877659201622,0.9958691596984863,0.3127616047859192
1761475862797321000,5.305321044921875,0.09004586935043335,0.9123979806900024,0.23023609817028046
1761475862807298000,5.315298095703125,0.30373427271842957,0.8530557751655579,0.13839925825595856
1761475862817275000,5.32527490234375,0.5827541947364807,0.7823747396469116,0.10358882695436478
1761475862827252000,5.335251953125,0.8851153254508972,0.7560730576515198,0.13108761608600616
1761475862837228800,5.345228759765625,1.1645874977111816,0.8806482553482056,0.26850804686546326
1761475862847206000,5.355205810546875,1.3042889833450317,0.9722765684127808,0.45542362332344055
1761475862857183000,5.365182861328125,1.150010108947754,0.6347494125366211,0.39729854464530945
1761475862867159800,5.375159912109375,0.6446554064750671,-0.13254542648792267,-0.016066160053014755
1761475862877137000,5.385136962890625,0.045802388340234756,-0.7110564708709717,-0.3224649727344513
1761475862887113700,5.39511376953125,-0.30613765120506287,-0.7518478035926819,0.018606623634696007
1761475862897090800,5.4050908203125,-0.45982813835144043,-0.7450149059295654,0.7809740304946899
1761475862907067600,5.415067626953125,-0.20899279415607452,-0.9910458326339722,1.431958556175232
1761475862917045000,5.425044921875,0.36397913098335266,-1.4102745056152344,1.698406457901001
1761475862927022000,5.43502197265625,0.998717188835144,-1.7449125051498413,1.6063284873962402
1761475862936999700,5.444999755859375,1.5336458683013916,-1.9177297353744507,1.3274379968643188
1761475862946977000,5.45497705078125,1.8078184127807617,-1.953292965888977,0.8563137054443359
1761475862956953900,5.464953857421875,1.7729014158248901,-1.9743503332138062,0.1387777030467987
1761475862966931000,5.474930908203125,1.517939567565918,-1.9078394174575806,-0.5980890989303589
1761475862976908000,5.484907958984375,1.1564607620239258,-1.6062496900558472,-1.1576544046401978
1761475862986884900,5.494884765625,0.7993381023406982,-1.155144214630127,-1.5642809867858887
1761475862996862000,5.504862060546875,0.5188947319984436,-0.6897266507148743,-1.9321753978729248
1761475863006838800,5.5148388671875,0.3382734954357147,-0.267333447933197,-2.2759954929351807
1761475863016815900,5.52481591796875,0.2527993321418762,0.07379113137722015,-2.6120378971099854
1761475863026792700,5.534792724609375,0.26046907901763916,0.284267395734787,-2.9095098972320557
1761475863036769800,5.544769775390625,0.2891601324081421,0.39123645424842834,-3.119654893875122
1761475863046747000,5.554746826171875,0.18781216442584991,0.39005792140960693,-3.196075677871704
1761475863056723700,5.5647236328125,-0.004293886944651604,0.48141977190971375,-3.023300886154175
1761475863066701000,5.574701171875,-0.17429260909557343,0.7457737922668457,-2.654066562652588
1761475863076678000,5.584677978515625,-0.2775129973888397,1.0446654558181763,-2.178574562072754
1761475863086655000,5.594655029296875,-0.26423120498657227,1.3145527839660645,-1.6436899900436401
1761475863096631800,5.6046318359375,-0.13876035809516907,1.459466814994812,-1.0952229499816895
1761475863106609000,5.61460888671875,0.013272619806230068,1.343507170677185,-0.6071079969406128
1761475863116586000,5.6245859375,0.13044105470180511,0.9750809669494629,-0.2483346164226532
1761475863126563800,5.634563720703125,0.17538973689079285,0.48153752088546753,-0.0355326347053051
1761475863136541000,5.644541015625,0.12542803585529327,0.019389886409044266,0.043438881635665894
1761475863146518000,5.65451806640625,-0.005436176899820566,-0.25788024067878723,0.0032727234065532684
1761475863156494800,5.664494873046875,-0.11875367909669876,-0.3032485246658325,-0.1010851040482521
1761475863166472000,5.674471923828125,-0.1508956402540207,-0.14831431210041046,-0.19180862605571747
1761475863176448800,5.68444873046875,-0.08897288143634796,0.17341791093349457,-0.2184644639492035
1761475863186425900,5.69442578125,0.04227369278669357,0.591336190700531,-0.14300240576267242
1761475863196402700,5.704402587890625,0.21143794059753418,1.0450983047485352,0.030650069937109947
1761475863206379800,5.7143798828125,0.35691824555397034,1.3385958671569824,0.232649028301239
1761475863216357000,5.724357177734375,0.43497976660728455,1.3235363960266113,0.4206641912460327
1761475863226334000,5.734333984375,0.4226525127887726,1.0719207525253296,0.5814270973205566
1761475863236311000,5.74431103515625,0.30188509821891785,0.7045373916625977,0.7293601036071777
1761475863246288000,5.754287841796875,0.20303983986377716,0.3745720088481903,0.9018908739089966
1761475863256265000,5.764264892578125,0.24439767003059387,0.20320504903793335,1.1221684217453003
1761475863266241800,5.77424169921875,0.4078373908996582,0.16862310469150543,1.3607909679412842
1761475863276219000,5.784218994140625,0.6711494326591492,0.26713740825653076,1.6047500371932983
1761475863286195700,5.79419580078125,0.9336631298065186,0.4207504391670227,1.7969974279403687
1761475863296172500,5.804172607421875,1.0894477367401123,0.5060117840766907,1.8690202236175537
1761475863306150700,5.814150634765625,1.0985321998596191,0.5460218191146851,1.9049584865570068
1761475863316127700,5.824127685546875,0.9804044365882874,0.5031039118766785,1.9527393579483032
1761475863326104600,5.8341044921875,0.7390844225883484,0.1760856658220291,1.8803787231445312
1761475863336081700,5.84408154296875,0.47315847873687744,-0.3221542537212372,1.6949665546417236
1761475863346058500,5.85405859375,0.29808473587036133,-0.659875750541687,1.5494341850280762
1761475863356035600,5.86403564453125,0.15950927138328552,-0.8993823528289795,1.4303759336471558
1761475863366012700,5.8740126953125,-0.05959378927946091,-1.0938016176223755,1.3188905715942383
1761475863375989800,5.88398974609375,-0.2048836052417755,-1.1156333684921265,1.2144562005996704
1761475863385966800,5.893966796875,-0.1455814689397812,-1.135003924369812,0.9910206198692322
1761475863395943700,5.903943603515625,-0.02214660868048668,-1.3830982446670532,0.5295765399932861
1761475863405920800,5.913920654296875,0.10168708115816116,-1.8733428716659546,-0.22195453941822052
1761475863415897600,5.923897705078125,0.17208720743656158,-2.2109904289245605,-1.0783520936965942
1761475863425874700,5.933874755859375,0.2315954864025116,-2.077014684677124,-1.6877015829086304
1761475863435851500,5.9438515625,0.280432790517807,-1.5707566738128662,-1.900896668434143
1761475863445828600,5.95382861328125,0.3475484549999237,-0.8505665063858032,-1.7783123254776
1761475863455805700,5.9638056640625,0.42882201075553894,-0.18248511850833893,-1.4874684810638428
1761475863465782500,5.973782470703125,0.4809466004371643,0.2997630834579468,-1.159932017326355
1761475863475759900,5.983759765625,0.5501110553741455,0.5614617466926575,-0.8479479551315308
1761475863485736700,5.99373681640625,0.6530847549438477,0.560717761516571,-0.6009410619735718
1761475863495713800,6.0037138671875,0.7473713159561157,0.3469679057598114,-0.42409569025039673
1761475863505691600,6.013691650390625,0.7516338229179382,0.018633931875228882,-0.3104204535484314
1761475863515668700,6.023668701171875,0.6777028441429138,-0.2463282197713852,-0.2191677838563919
1761475863525645800,6.033645751953125,0.5740986466407776,-0.32855838537216187,-0.174643874168396
1761475863535622700,6.04362255859375,0.49917861819267273,-0.22792871296405792,-0.18458998203277588
1761475863545599700,6.053599853515625,0.519601047039032,0.039617668837308884,-0.2024874985218048
1761475863555576600,6.06357666015625,0.6207593679428101,0.4049743413925171,-0.1832757294178009
1761475863565553700,6.0735537109375,0.7338055372238159,0.755719006061554,-0.1522454470396042
1761475863575530800,6.08353076171875,0.8036432266235352,0.964264988899231,-0.1634264588356018
1761475863585507600,6.093507568359375,0.7846018075942993,1.000664234161377,-0.24390794336795807
1761475863595484700,6.103484619140625,0.7124972939491272,0.8867813348770142,-0.3739232122898102
1761475863605461500,6.11346142578125,0.5939053893089294,0.6539871692657471,-0.5291358828544617
1761475863615438600,6.1234384765625,0.4607233703136444,0.44367310404777527,-0.6279948353767395
1761475863625415700,6.133415771484375,0.3595466911792755,0.3134040832519531,-0.6512386798858643
1761475863635392800,6.143392822265625,0.3203388452529907,0.303812712430954,-0.594389796257019
1761475863645369900,6.153369873046875,0.3446437418460846,0.3990464508533478,-0.45536333322525024
1761475863655346700,6.1633466796875,0.3776746690273285,0.5530251264572144,-0.21908262372016907
1761475863665323800,6.17332373046875,0.39011356234550476,0.7441264986991882,0.10083525627851486
1761475863675300600,6.183300537109375,0.37915676832199097,0.9204336404800415,0.4498147964477539
1761475863685278700,6.19327880859375,0.3437536060810089,0.9885589480400085,0.7620409727096558
1761475863695255800,6.203255859375,0.2620757818222046,0.9886196851730347,1.0268689393997192
1761475863705232600,6.213232666015625,0.1555965691804886,0.923478364944458,1.2406271696090698
1761475863715209700,6.223209716796875,0.052504800260066986,0.7767970561981201,1.3775283098220825
1761475863725186600,6.2331865234375,0.03880789875984192,0.6624489426612854,1.5006378889083862
1761475863735163600,6.24316357421875,0.20943182706832886,0.5854313969612122,1.5842838287353516
1761475863745140500,6.253140380859375,0.5193995237350464,0.5209795236587524,1.5996441841125488
1761475863755117600,6.26311767578125,0.849222719669342,0.6077919006347656,1.6268155574798584
1761475863765094700,6.2730947265625,1.1550756692886353,0.7545115947723389,1.6850579977035522
1761475863775071700,6.28307177734375,1.2767304182052612,0.622265636920929,1.6701387166976929
1761475863785048800,6.293048828125,1.0468239784240723,0.11936309188604355,1.5111188888549805
1761475863795025700,6.303025634765625,0.4695340096950531,-0.7189441323280334,1.2109146118164062
1761475863805002800,6.313002685546875,-0.02095460705459118,-1.290419101715088,1.0184929370880127
1761475863814979600,6.3229794921875,-0.2852935791015625,-1.468070387840271,1.055289387702942
1761475863824956700,6.332956787109375,-0.5148057341575623,-1.4105712175369263,1.093114972114563
1761475863834933800,6.342933837890625,-0.4155544936656952,-1.1486296653747559,0.9588003158569336
1761475863844910600,6.35291064453125,-0.07448220998048782,-0.9785609245300293,0.5471277832984924
1761475863854887700,6.3628876953125,0.27687954902648926,-1.0429556369781494,-0.12445724755525589
1761475863864864500,6.372864501953125,0.5361736416816711,-1.2304279804229736,-0.8910249471664429
1761475863874841600,6.382841552734375,0.6231487393379211,-1.3114203214645386,-1.5189591646194458
1761475863884818400,6.392818359375,0.607530951499939,-1.2444988489151,-1.8768388032913208
1761475863894796500,6.402796630859375,0.5489488840103149,-1.0647661685943604,-1.9285862445831299
1761475863904773600,6.412773681640625,0.48589399456977844,-0.887226939201355,-1.7238569259643555
1761475863914750500,6.42275048828125,0.3798953890800476,-0.8235901594161987,-1.3474172353744507
1761475863924727600,6.4327275390625,0.17807497084140778,-0.8131742477416992,-0.8555179238319397
1761475863934705000,6.442704833984375,-0.08271613717079163,-0.9206991195678711,-0.445901095867157
1761475863944681700,6.452681640625,-0.3654293715953827,-1.110201358795166,-0.29290536046028137
1761475863954658800,6.462658935546875,-0.5486530065536499,-1.173699975013733,-0.3793505132198334
1761475863964635600,6.4726357421875,-0.49863308668136597,-1.014724850654602,-0.6331930756568909
1761475863974612700,6.48261279296875,-0.23982150852680206,-0.5871572494506836,-0.9836344718933105
1761475863984589600,6.492589599609375,0.06354890018701553,0.11698047071695328,-1.2993515729904175
1761475863994566700,6.502566650390625,0.2766616940498352,0.8622130751609802,-1.483514428138733
1761475864004543700,6.512543701171875,0.3627893924713135,1.4758187532424927,-1.505831003189087
1761475864014520600,6.5225205078125,0.38662201166152954,1.9993741512298584,-1.3617579936981201
1761475864024497700,6.53249755859375,0.39168238639831543,2.32891583442688,-1.087241768836975
1761475864034474500,6.542474609375,0.3777250349521637,2.3351263999938965,-0.7330525517463684
1761475864044451800,6.552451904296875,0.295463502407074,1.987953782081604,-0.37309709191322327
1761475864054428700,6.5624287109375,0.13748210668563843,1.3322166204452515,-0.055402226746082306
1761475864064405800,6.57240576171875,-0.028042253106832504,0.5422856211662292,0.22681847214698792
1761475864074382800,6.5823828125,-0.15565906465053558,-0.1300688236951828,0.45391952991485596
1761475864084360700,6.592360595703125,-0.24133729934692383,-0.5900244116783142,0.5821250081062317
1761475864094337800,6.602337890625,-0.2914870083332062,-0.8289656043052673,0.5920000076293945
1761475864104314600,6.612314697265625,-0.28826990723609924,-0.8442646861076355,0.5179033875465393
1761475864114291700,6.622291748046875,-0.2264598160982132,-0.6330379247665405,0.3608730733394623
1761475864124268800,6.632268798828125,-0.1454775631427765,-0.25330907106399536,0.17191238701343536
1761475864134245600,6.64224560546875,-0.07230429351329803,0.21219977736473083,-0.0013478094479069114
1761475864144222700,6.65222265625,-0.021865656599402428,0.6317384839057922,-0.08399058133363724
1761475864154199600,6.662199462890625,0.015136569738388062,0.9507156610488892,-0.05956939235329628
1761475864164176600,6.6721767578125,0.06713105738162994,1.037751317024231,0.01894555054605007
1761475864174153500,6.682153564453125,0.10464780777692795,0.8624883890151978,0.06513860821723938
1761475864184130600,6.692130615234375,0.13507920503616333,0.5539194345474243,0.06733521074056625
1761475864194107600,6.702107666015625,0.2089449018239975,0.2715511620044708,0.0801873579621315
1761475864204084700,6.712084716796875,0.3526355028152466,0.13663806021213531,0.18436701595783234
1761475864214061800,6.722061767578125,0.4496169090270996,0.18614596128463745,0.3648451864719391
1761475864224038700,6.73203857421875,0.40212777256965637,0.311122864484787,0.5602006912231445
1761475864234015700,6.742015625,0.25182801485061646,0.4113333523273468,0.8050245046615601
1761475864243992600,6.75199267578125,0.13933242857456207,0.5756723284721375,1.1773144006729126
1761475864253969700,6.7619697265625,0.03379721939563751,0.6354182362556458,1.5189484357833862
1761475864263946800,6.77194677734375,-0.13584087789058685,0.395368754863739,1.5997443199157715
1761475864273923600,6.781923583984375,-0.41477638483047485,-0.05807490646839142,1.3959858417510986
1761475864283902000,6.79190185546875,-0.6156775951385498,-0.43352752923965454,1.1177247762680054
1761475864293879000,6.801879150390625,-0.6992081999778748,-0.6266351342201233,0.944557249546051
1761475864303855900,6.81185595703125,-0.6313484907150269,-0.7453263401985168,0.8337286114692688
1761475864313833000,6.8218330078125,-0.32933348417282104,-0.6855695247650146,0.6879583597183228
1761475864323810000,6.83181005859375,0.026262398809194565,-0.4759204089641571,0.45823630690574646
1761475864333787000,6.841786865234375,0.2328006625175476,-0.07805158197879791,0.11673969030380249
1761475864343764000,6.851763916015625,0.3451654613018036,0.3261767029762268,-0.275673508644104
1761475864353741000,6.861740966796875,0.4339722990989685,0.4973801374435425,-0.6130821704864502
1761475864363718100,6.87171826171875,0.46343091130256653,0.45490318536758423,-0.8033970594406128
1761475864373695000,6.881695068359375,0.36713314056396484,0.294013649225235,-0.8097960948944092
1761475864383672000,6.891672119140625,0.18655608594417572,0.030802132561802864,-0.7318220734596252
1761475864393649200,6.901649169921875,0.012343548238277435,-0.23340129852294922,-0.6646955013275146
1761475864403626000,6.9116259765625,-0.1093602105975151,-0.39719343185424805,-0.6958903670310974
1761475864413603000,6.92160302734375,-0.12489628791809082,-0.502331554889679,-0.8641533851623535
1761475864423580000,6.931579833984375,-0.014996674843132496,-0.5608636736869812,-1.0848191976547241
1761475864433557000,6.941556884765625,0.13780644536018372,-0.5558084845542908,-1.2758575677871704
1761475864443533800,6.951533935546875,0.23905298113822937,-0.4907416105270386,-1.382331371307373
1761475864453511000,6.961510986328125,0.27624082565307617,-0.3187410831451416,-1.3926674127578735
1761475864463488000,6.971488037109375,0.25749579071998596,0.0170463714748621,-1.3388742208480835
1761475864473465000,6.981465087890625,0.22523291409015656,0.4215206205844879,-1.206886649131775
1761475864483442200,6.991442138671875,0.23146459460258484,0.8330487608909607,-0.9874048233032227
1761475864493419800,7.001419677734375,0.2802092432975769,1.1347980499267578,-0.7004494667053223
1761475864503396900,7.01139697265625,0.35192880034446716,1.2186188697814941,-0.35672304034233093
1761475864513374200,7.021374267578125,0.40818139910697937,1.0580912828445435,-0.012768047861754894
1761475864523351000,7.03135107421875,0.39915719628334045,0.6874310970306396,0.3000098168849945
1761475864533328100,7.041328125,0.3535638749599457,0.2504468858242035,0.5770899057388306
1761475864543305000,7.051304931640625,0.27922722697257996,-0.13959245383739471,0.8125388622283936
1761475864553282000,7.061281982421875,0.16044701635837555,-0.41868001222610474,0.9253458380699158
1761475864563259000,7.0712587890625,0.016978928819298744,-0.5555660128593445,0.9200206398963928
1761475864573236000,7.081236083984375,-0.08605077862739563,-0.5418792366981506,0.8440401554107666
1761475864583213000,7.091213134765625,-0.13618937134742737,-0.3148718774318695,0.7313389182090759
1761475864593190000,7.10118994140625,-0.15566745400428772,0.04380694031715393,0.6199935078620911
1761475864603167000,7.1111669921875,-0.14513970911502838,0.4011029303073883,0.5362277030944824
1761475864613143800,7.121143798828125,-0.11320679634809494,0.6397426724433899,0.4863792359828949
1761475864623121000,7.131120849609375,-0.06009326130151749,0.6884943246841431,0.4663863778114319
1761475864633098000,7.141097900390625,0.009286610409617424,0.626554012298584,0.4814811646938324
1761475864643075000,7.151074951171875,0.09092499315738678,0.5576820373535156,0.5534773468971252
1761475864653052200,7.16105224609375,0.18554311990737915,0.5129958391189575,0.6750796437263489
1761475864663029000,7.171029052734375,0.2830367088317871,0.507395327091217,0.8411803245544434
1761475864673006000,7.181006103515625,0.3979465365409851,0.5192607641220093,1.0501153469085693
1761475864682983000,7.19098291015625,0.543901264667511,0.561987042427063,1.2985225915908813
1761475864692960000,7.2009599609375,0.6482782363891602,0.5637476444244385,1.495270013809204
1761475864702938000,7.210938232421875,0.6507453322410583,0.5958533883094788,1.583433747291565
1761475864712915000,7.2209150390625,0.4828157126903534,0.5357937812805176,1.510663628578186
1761475864722892000,7.23089208984375,0.08965539187192917,0.22185906767845154,1.1409060955047607
1761475864732868900,7.240868896484375,-0.3683513104915619,-0.33501723408699036,0.5696918368339539
1761475864742846000,7.250845947265625,-0.7438787817955017,-0.9333980083465576,0.044538822025060654
1761475864752823000,7.260822998046875,-0.7556899189949036,-1.063080072402954,-0.07944277673959732
1761475864762799900,7.2707998046875,-0.5878247618675232,-0.9853308200836182,0.1331479847431183
1761475864772777000,7.28077685546875,-0.45880869030952454,-0.9725140929222107,0.3129097819328308
1761475864782754000,7.290754150390625,-0.11379434168338776,-1.0498974323272705,0.2492367923259735
1761475864792731100,7.300731201171875,-0.009218926541507244,-1.6864405870437622,-0.3847625255584717
1761475864802708000,7.3107080078125,-0.17119938135147095,-2.1899259090423584,-1.2892704010009766
1761475864812685000,7.32068505859375,-0.2941202223300934,-2.0436644554138184,-1.9500877857208252
1761475864822662100,7.330662109375,-0.3553629219532013,-1.5971215963363647,-2.320650577545166
1761475864832639000,7.340638916015625,-0.25008630752563477,-1.025503158569336,-2.2905890941619873
1761475864842616000,7.350615966796875,-0.07316863536834717,-0.5395494103431702,-2.040721893310547
1761475864852593000,7.360593017578125,-0.023557400330901146,-0.24716386198997498,-1.816706895828247
1761475864862570000,7.370570068359375,-0.14260534942150116,-0.1868501454591751,-1.6320772171020508
1761475864872546800,7.380546875,-0.39246416091918945,-0.3619641661643982,-1.4737248420715332
1761475864882524000,7.39052392578125,-0.6589360237121582,-0.7321671843528748,-1.370666742324829
1761475864892501000,7.4005009765625,-0.7860444188117981,-1.1194008588790894,-1.2561838626861572
1761475864902478800,7.410478759765625,-0.6942354440689087,-1.2826623916625977,-1.0499173402786255
1761475864912456000,7.4204560546875,-0.4414769113063812,-1.105460524559021,-0.8124828934669495
1761475864922433000,7.43043310546875,-0.14120616018772125,-0.6488868594169617,-0.6345112919807434
1761475864932410000,7.44041015625,0.1418902575969696,0.002539931796491146,-0.4756084382534027
1761475864942387200,7.45038720703125,0.37095561623573303,0.6271951794624329,-0.311460942029953
1761475864952364000,7.460364013671875,0.5185362696647644,1.0831849575042725,-0.1335761696100235
1761475864962341000,7.470341064453125,0.5931124091148376,1.2970839738845825,0.03821306303143501
1761475864972318000,7.48031787109375,0.6087304949760437,1.1911983489990234,0.20895923674106598
1761475864982295000,7.490294921875,0.5736081600189209,0.8090523481369019,0.3697511851787567
1761475864992272000,7.50027197265625,0.4720095992088318,0.27609285712242126,0.49048933386802673
1761475865002249000,7.5102490234375,0.30982449650764465,-0.26107534766197205,0.551452100276947
1761475865012226000,7.52022607421875,0.1307048201560974,-0.6112546920776367,0.5539392232894897
1761475865022203000,7.530202880859375,-0.031255342066287994,-0.6889215707778931,0.5269058346748352
1761475865032180000,7.540179931640625,-0.1314930021762848,-0.5616387128829956,0.47659552097320557
1761475865042157000,7.550156982421875,-0.17275889217853546,-0.2844967246055603,0.44174185395240784
1761475865052134100,7.560134033203125,-0.164387509226799,0.07510695606470108,0.44371497631073
1761475865062111000,7.570111083984375,-0.12300482392311096,0.4396084249019623,0.4754771590232849
1761475865072088000,7.580088134765625,-0.09395639598369598,0.7663891911506653,0.46656304597854614
1761475865082065200,7.590065185546875,-0.0990561693906784,1.0216546058654785,0.4374442994594574
1761475865092042000,7.6000419921875,-0.13681766390800476,1.1961963176727295,0.41761279106140137
1761475865102019000,7.61001904296875,-0.1807275265455246,1.2483409643173218,0.3953900933265686
1761475865111996000,7.619995849609375,-0.20257502794265747,1.1748840808868408,0.4570830166339874
1761475865121974000,7.62997412109375,-0.1621531993150711,1.0635703802108765,0.6383568048477173
1761475865131951000,7.639951171875,-0.014525662176311016,1.0084123611450195,0.9179045557975769
1761475865141928000,7.649927978515625,0.2170954793691635,1.0252759456634521,1.2244817018508911
1761475865151905000,7.659905029296875,0.4359399676322937,1.0653146505355835,1.466107726097107
1761475865161881900,7.6698818359375,0.5367429256439209,1.063507318496704,1.5746030807495117
1761475865171859000,7.67985888671875,0.43894845247268677,0.9501668810844421,1.568373680114746
1761475865181835800,7.689835693359375,0.1290311962366104,0.6940464973449707,1.523166537284851
1761475865191813000,7.699813232421875,-0.2217247039079666,0.3972747325897217,1.5403746366500854
1761475865201790200,7.709790283203125,-0.36971190571784973,0.3532986342906952,1.811426043510437
1761475865211767000,7.71976708984375,-0.28135380148887634,0.6615201234817505,2.231403112411499
1761475865221744000,7.729744140625,-0.15786539018154144,0.9861120581626892,2.409261703491211
1761475865231721000,7.739720947265625,-0.19067233800888062,1.037581443786621,2.169321298599243
1761475865241698000,7.749697998046875,-0.30368301272392273,0.8746596574783325,1.6969691514968872
1761475865251675000,7.7596748046875,-0.2641761004924774,0.5165697336196899,1.1487408876419067
1761475865261652000,7.76965185546875,-0.1553007811307907,0.05371740832924843,0.5253086090087891
1761475865271629000,7.779629150390625,-0.07445920258760452,-0.42525291442871094,-0.19014161825180054
1761475865281605000,7.789605224609375,0.05694461613893509,-0.7021376490592957,-0.8744863867759705
1761475865291582500,7.79958251953125,0.25061848759651184,-0.7341983914375305,-1.40045964717865
1761475865301559300,7.809559326171875,0.43735364079475403,-0.6388291716575623,-1.684096336364746
1761475865311536400,7.819536376953125,0.5735093355178833,-0.5130422115325928,-1.6802033185958862
1761475865321513200,7.82951318359375,0.5941459536552429,-0.44569623470306396,-1.4808177947998047
1761475865331490300,7.839490234375,0.5317220091819763,-0.503966212272644,-1.252482533454895
1761475865341468400,7.849468505859375,0.4097713232040405,-0.6892789602279663,-1.1025614738464355
1761475865351445200,7.8594453125,0.2861420512199402,-0.9249263405799866,-1.0729753971099854
1761475865361422300,7.86942236328125,0.2574406564235687,-1.1294068098068237,-1.1602098941802979
1761475865371399200,7.879399169921875,0.37219706177711487,-1.2838369607925415,-1.3095042705535889
1761475865381376300,7.889376220703125,0.5492944717407227,-1.3316887617111206,-1.4783228635787964
1761475865391353300,7.899353271484375,0.6620556712150574,-1.2339342832565308,-1.6100518703460693
1761475865401330200,7.909330078125,0.6495103240013123,-0.9223946928977966,-1.701663851737976
1761475865411307300,7.919307373046875,0.5239556431770325,-0.39793041348457336,-1.730819821357727
1761475865421284000,7.9292841796875,0.3560267388820648,0.2783764600753784,-1.6188842058181763
1761475865431261200,7.93926123046875,0.2127571851015091,0.947350025177002,-1.320683479309082
1761475865441238300,7.94923828125,0.14118839800357819,1.4554349184036255,-0.8650127053260803
1761475865451215400,7.95921533203125,0.12893226742744446,1.6870700120925903,-0.32780522108078003
1761475865461192400,7.9691923828125,0.1366601586341858,1.6054688692092896,0.16449594497680664
1761475865471169300,7.979169189453125,0.08410853147506714,1.2477877140045166,0.5403633117675781
1761475865481146400,7.989146484375,-0.04668751731514931,0.7009318470954895,0.781944990158081
1761475865491123200,7.999123291015625,-0.2269853949546814,0.09625948965549469,0.9189720749855042
1761475865501100300,8.009100341796875,-0.43414822220802307,-0.44254666566848755,0.9663084149360657
1761475865511077000,8.0190771484375,-0.630689799785614,-0.7690635323524475,0.9293882250785828
1761475865521054200,8.02905419921875,-0.7828918099403381,-0.870785653591156,0.8175399303436279
1761475865531031300,8.03903125,-0.8549414873123169,-0.7415313124656677,0.7002974152565002
1761475865541008100,8.049008056640625,-0.8289625644683838,-0.4259342551231384,0.6221057176589966
1761475865550985200,8.058985107421876,-0.7317973971366882,-0.004274358972907066,0.5847519636154175
1761475865560962300,8.06896240234375,-0.6353380680084229,0.4279908239841461,0.5408318638801575
1761475865570939400,8.078939453125,-0.582436203956604,0.7463924884796143,0.46966874599456787
1761475865580916200,8.088916259765625,-0.5591731071472168,0.9191408753395081,0.3836342394351959
1761475865590893300,8.098893310546876,-0.588306725025177,0.9237704873085022,0.2949903905391693
1761475865600870400,8.108870361328124,-0.6200529336929321,0.7847149968147278,0.18298979103565216
1761475865610847200,8.11884716796875,-0.5879661440849304,0.5799016952514648,0.10671792179346085
1761475865620824300,8.12882421875,-0.45050954818725586,0.41873490810394287,0.08674672991037369
1761475865630802200,8.13880224609375,-0.3167501389980316,0.29131409525871277,0.10193021595478058
1761475865640779300,8.148779296875,-0.15357424318790436,0.1499040275812149,0.09305677562952042
1761475865650756400,8.15875634765625,-0.012341749854385853,0.03988218307495117,0.04212568700313568
1761475865660733200,8.168733154296875,0.05913836881518364,0.08201073110103607,0.05236302688717842
1761475865670710300,8.178710205078126,0.015855608507990837,0.20005908608436584,0.11072806268930435
1761475865680687000,8.18868701171875,-0.16798116266727448,0.2549610435962677,0.17990301549434662
1761475865690664200,8.198664306640625,-0.4565975069999695,0.2139371782541275,0.35036423802375793
1761475865700641300,8.208641357421875,-0.8426911234855652,0.199509397149086,0.6947458386421204
1761475865710618400,8.218618408203126,-1.1387916803359985,0.1079121008515358,1.127615213394165
1761475865720595500,8.228595458984374,-1.3276634216308594,-0.2918373644351959,1.3272782564163208
1761475865730572300,8.238572265625,-1.3169670104980469,-0.6659424901008606,1.2693082094192505
1761475865740549400,8.24854931640625,-1.100275993347168,-0.9371830821037292,0.9485193490982056
1761475865750526200,8.258526123046876,-0.879653811454773,-1.4368586540222168,0.21526721119880676
1761475865760503300,8.26850341796875,-0.7373788952827454,-2.132275342941284,-1.0011012554168701
1761475865770480000,8.278480224609375,-0.615838348865509,-2.2744979858398438,-2.270151138305664
1761475865780457200,8.288457275390625,-0.4496907591819763,-1.7165861129760742,-3.099421262741089
1761475865790434300,8.298434326171876,-0.27420923113822937,-0.7114670276641846,-3.3251683712005615
1761475865800411100,8.3084111328125,-0.19060561060905457,0.2849832773208618,-3.047182321548462
1761475865810388200,8.31838818359375,-0.2185475081205368,1.0391830205917358,-2.584752082824707
1761475865820365300,8.328365234375,-0.3079996407032013,1.410270094871521,-2.138108968734741
1761475865830342400,8.33834228515625,-0.34848448634147644,1.4634603261947632,-1.6712679862976074
1761475865840320300,8.3483203125,-0.3185310959815979,1.2807575464248657,-1.2736608982086182
1761475865850297000,8.358297119140625,-0.24195322394371033,0.8300029635429382,-1.0220897197723389
1761475865860274400,8.3682744140625,-0.15821614861488342,0.24374909698963165,-0.8931742310523987
1761475865870251300,8.378251220703126,-0.036302756518125534,-0.29938024282455444,-0.8232401609420776
1761475865880228400,8.388228271484374,0.20648835599422455,-0.5821765065193176,-0.7223419547080994
1761475865890205200,8.398205078125,0.5809658765792847,-0.5927194356918335,-0.5414443016052246
1761475865900182300,8.408182373046875,0.9804754853248596,-0.45201125741004944,-0.3291434943675995
1761475865910159400,8.418159423828126,1.2980362176895142,-0.2639515995979309,-0.14757584035396576
1761475865920136200,8.42813623046875,1.426628589630127,-0.11546020209789276,-0.040459487587213516
1761475865930113300,8.43811328125,1.3296359777450562,-0.06911347806453705,-0.048759493976831436
1761475865940090000,8.448090087890625,1.0669447183609009,-0.10554226487874985,-0.12968607246875763
1761475865950067200,8.458067138671876,0.6823091506958008,-0.11441431939601898,-0.23652704060077667
1761475865960044000,8.4680439453125,0.28900936245918274,-0.03863248974084854,-0.33592504262924194
1761475865970021000,8.478021240234375,-0.00974271073937416,0.06544996798038483,-0.377948135137558
1761475865979998500,8.48799853515625,-0.1544618010520935,0.17480246722698212,-0.3114090859889984
1761475865989975300,8.497975341796876,-0.15434888005256653,0.296470046043396,-0.12296964973211288
1761475865999952400,8.507952392578124,-0.0820712000131607,0.4252031445503235,0.18583689630031586
1761475866009929200,8.51792919921875,-0.032865311950445175,0.47162097692489624,0.5152429938316345
1761475866019906300,8.52790625,-0.03526206687092781,0.41611048579216003,0.770621120929718
1761475866029883100,8.537883056640625,-0.09013544023036957,0.3258951008319855,0.9050868153572083
1761475866039861200,8.547861328125,-0.22165031731128693,0.18118637800216675,0.9321274757385254
1761475866049838300,8.55783837890625,-0.3403972089290619,0.007507265079766512,0.8829439282417297
1761475866059815200,8.567815185546875,-0.3598597049713135,-0.12270445376634598,0.8352593183517456
1761475866069792300,8.577792236328126,-0.2895123064517975,-0.19345000386238098,0.819759726524353
1761475866079769300,8.587769287109374,-0.05433366075158119,-0.09587682038545609,0.8984277844429016
1761475866089746200,8.59774609375,0.2416311502456665,0.19360585510730743,1.0351507663726807
1761475866099723300,8.60772314453125,0.4779227674007416,0.4555939733982086,1.0803614854812622
1761475866109700000,8.6177001953125,0.5921156406402588,0.40243300795555115,0.9467440843582153
1761475866119677200,8.62767724609375,0.48549261689186096,-0.05104329437017441,0.7727286219596863
1761475866129654300,8.637654296875,0.2900421619415283,-0.6315508484840393,0.8630174994468689
1761475866139631400,8.64763134765625,0.14899174869060516,-0.9632717370986938,1.3319867849349976
1761475866149608400,8.6576083984375,0.0052231294102966785,-1.0925838947296143,1.8744080066680908
1761475866159585300,8.667585205078124,-0.27687790989875793,-1.1426715850830078,2.1861839294433594
1761475866169562400,8.677562255859375,-0.6614282131195068,-0.9483683705329895,2.3243021965026855
1761475866179539200,8.687539306640625,-0.8784846067428589,-0.4497329294681549,2.3302059173583984
1761475866189516300,8.697516357421875,-0.7201282382011414,-0.02439388819038868,2.086301326751709
1761475866199493000,8.7074931640625,-0.3789902329444885,-0.12676671147346497,1.4299520254135132
1761475866209470200,8.71747021484375,-0.08717223256826401,-0.9378345608711243,0.19589222967624664
1761475866219447000,8.727447021484375,0.10929985344409943,-1.7855126857757568,-1.3069552183151245
1761475866229424000,8.737424072265625,0.23217090964317322,-1.939650297164917,-2.4679393768310547
1761475866239401200,8.747401123046876,0.21962870657444,-1.4377069473266602,-3.115199089050293
1761475866249378300,8.75737841796875,0.1265418976545334,-0.5489264726638794,-3.2739529609680176
1761475866259356200,8.767356201171875,-0.0343838594853878,0.29311391711235046,-3.052863121032715
1761475866269333200,8.777333251953126,-0.18507777154445648,0.8247362375259399,-2.5884206295013428
1761475866279310300,8.787310302734374,-0.26055818796157837,1.022811770439148,-1.926694631576538
1761475866289288000,8.797287841796875,-0.2694195806980133,0.9918826818466187,-1.1611231565475464
1761475866299265000,8.80726513671875,-0.2382861077785492,0.7402173280715942,-0.47380438446998596
1761475866309242400,8.817242431640626,-0.20155499875545502,0.3999475836753845,0.06541648507118225
1761475866319219200,8.82721923828125,-0.08498003333806992,0.09484361112117767,0.5118765234947205
1761475866329196300,8.8371962890625,0.1556093990802765,-0.05706815421581268,0.9190195202827454
1761475866339173000,8.847173095703125,0.4297639727592468,-0.031912948936223984,1.2603052854537964
1761475866349150200,8.857150146484376,0.6527546644210815,0.02472582645714283,1.4353537559509277
1761475866359127000,8.867126953125,0.7722602486610413,0.053961366415023804,1.3821601867675781
1761475866369104100,8.877104248046875,0.7842652201652527,0.03782713785767555,1.1347274780273438
1761475866379081000,8.8870810546875,0.6855038404464722,-0.05040562152862549,0.7353561520576477
1761475866389058000,8.89705810546875,0.5581778287887573,-0.08768109232187271,0.32285431027412415
1761475866399035100,8.90703515625,0.4489147365093231,0.04659980535507202,0.008885958231985569
1761475866409012000,8.917011962890625,0.3527818024158478,0.32133764028549194,-0.23997658491134644
1761475866418989000,8.926989013671875,0.26542338728904724,0.6839165091514587,-0.4390770196914673
1761475866428966100,8.936966064453125,0.19295768439769745,1.1242977380752563,-0.5410465002059937
1761475866438943200,8.946943115234374,0.14244401454925537,1.495080828666687,-0.5041006207466125
1761475866448920000,8.956920166015625,0.10694460570812225,1.6181079149246216,-0.3628503084182739
1761475866458897200,8.966897216796875,0.0659836083650589,1.4652526378631592,-0.175089493393898
1761475866468874200,8.976874267578125,0.005166331306099892,1.0744155645370483,-0.009353789500892162
1761475866478851000,8.98685107421875,-0.05303959921002388,0.5554879307746887,0.12055502086877823
1761475866488828200,8.996828125,-0.059328652918338776,0.06209898367524147,0.23573434352874756
1761475866498805000,9.006804931640625,0.019063357263803482,-0.2693897485733032,0.343964159488678
1761475866508783000,9.016783203125,0.13761582970619202,-0.3957338333129883,0.42263418436050415
1761475866518760200,9.02676025390625,0.336269736289978,-0.3979208171367645,0.497549831867218
1761475866528737000,9.036737060546875,0.6318776607513428,-0.22577567398548126,0.6124966144561768
1761475866538714000,9.046714111328125,0.9637759327888489,0.052250444889068604,0.7051811814308167
1761475866548691000,9.05669091796875,1.2165583372116089,0.20640672743320465,0.5742295980453491
1761475866558668000,9.06666796875,1.2850074768066406,0.0254710353910923,0.11428741365671158
1761475866568645000,9.07664501953125,1.0332067012786865,-0.4846409559249878,-0.48368144035339355
1761475866578622200,9.086622314453125,0.48766040802001953,-0.9485354423522949,-0.7827941179275513
1761475866588599300,9.096599365234376,-0.32857608795166016,-1.3538480997085571,-0.6738111972808838
1761475866598576000,9.106576171875,-1.0843209028244019,-1.329555630683899,-0.04806714504957199
1761475866608553200,9.11655322265625,-1.4643044471740723,-0.823699414730072,1.1051849126815796
1761475866618530000,9.126530029296875,-1.3379688262939453,-0.7450990676879883,2.0354223251342773
1761475866628507100,9.136507080078125,-0.7035569548606873,-1.047441840171814,2.2072978019714355
1761475866638484200,9.146484130859376,-0.031622264534235,-1.2756140232086182,1.7093579769134521
1761475866648461000,9.1564609375,0.5129172205924988,-1.45099675655365,0.6963822245597839
1761475866658438100,9.166438232421875,0.9580845832824707,-1.3872692584991455,-0.45779722929000854
1761475866668415000,9.1764150390625,1.3354060649871826,-0.8981226682662964,-1.357065200805664
1761475866678392000,9.18639208984375,1.4572176933288574,-0.27572497725486755,-1.885532021522522
1761475866688369200,9.196369140625,1.2652454376220703,0.2971630394458771,-2.0925779342651367
1761475866698346200,9.20634619140625,0.9656388163566589,0.6645471453666687,-2.0307247638702393
1761475866708323300,9.2163232421875,0.7141506671905518,0.7870957255363464,-1.7881487607955933
1761475866718300200,9.226300048828126,0.528399646282196,0.7250370383262634,-1.4724490642547607
1761475866728277200,9.23627734375,0.3624306321144104,0.4767390787601471,-1.1799485683441162
1761475866738254000,9.246254150390625,0.26981833577156067,0.09741105139255524,-0.9569685459136963
1761475866748231200,9.256231201171875,0.25637975335121155,-0.1382851004600525,-0.7133393883705139
1761475866758208000,9.2662080078125,0.2899016737937927,0.0032402428332716227,-0.4153590798377991
1761475866768186000,9.27618603515625,0.32275763154029846,0.4363948404788971,-0.12752224504947662
1761475866778163200,9.2861630859375,0.3132481575012207,0.9307079911231995,0.05273225158452988
1761475866788140000,9.29614013671875,0.2564447820186615,1.305671215057373,0.10832706838846207
1761475866798117000,9.3061171875,0.15735498070716858,1.4853183031082153,0.08323593437671661
1761475866808094000,9.316093994140624,0.011316013522446156,1.4236937761306763,-0.024165617302060127
1761475866818071000,9.326071044921875,-0.1766282021999359,1.105949878692627,-0.20352011919021606
1761475866828048100,9.336048095703125,-0.2920916676521301,0.7119839191436768,-0.343814879655838
1761475866838025200,9.346025146484376,-0.27254828810691833,0.42670735716819763,-0.42000776529312134
1761475866848002300,9.356002197265624,-0.12790696322917938,0.28501227498054504,-0.3826689124107361
1761475866857979100,9.365979248046875,0.053745437413454056,0.32227838039398193,-0.2527724802494049
1761475866867956200,9.375956298828125,0.19906401634216309,0.5319862961769104,-0.10117071866989136
1761475866877933000,9.38593310546875,0.3098944127559662,0.7793965339660645,-0.0029315194115042686
1761475866887910100,9.39591015625,0.36348119378089905,0.951208770275116,0.05849136412143707
1761475866897887200,9.40588720703125,0.31277984380722046,0.9739872217178345,0.11285261809825897
1761475866907864000,9.415864013671875,0.16250404715538025,0.7377094626426697,0.09116116911172867
1761475866917841200,9.425841064453126,-0.053156185895204544,0.35890284180641174,-0.0008094295626506209
1761475866927818000,9.43581787109375,-0.2676985561847687,0.005256622098386288,-0.07760780304670334
1761475866937795000,9.445795166015625,-0.3945985734462738,-0.2217205911874771,-0.02223080024123192
1761475866947772000,9.45577197265625,-0.41914626955986023,-0.36597150564193726,0.10435590893030167
1761475866957749200,9.465749267578126,-0.353523313999176,-0.4386260211467743,0.24097873270511627
1761475866967726300,9.475726318359374,-0.2108340859413147,-0.4036283493041992,0.39926397800445557
1761475866977703200,9.485703125,-0.044170960783958435,-0.30942586064338684,0.5275884866714478
1761475866987680300,9.49568017578125,0.11578488349914551,-0.11461405456066132,0.6339551210403442
1761475866997657000,9.505656982421876,0.23228533565998077,0.18897713720798492,0.7848933935165405
1761475867007634200,9.51563427734375,0.28002941608428955,0.4015519917011261,0.918605387210846
1761475867017611000,9.525611083984375,0.1424686312675476,0.20964699983596802,0.8744621276855469
1761475867027589000,9.535589111328125,-0.25158414244651794,-0.4958118498325348,0.529251217842102
1761475867037566200,9.545566162109376,-0.6550202965736389,-1.4002373218536377,0.22050480544567108
1761475867047543000,9.55554296875,-0.8689615726470947,-2.083961009979248,0.2595885694026947
1761475867057520000,9.56552001953125,-0.854806125164032,-2.2116498947143555,0.6476261019706726
1761475867067497000,9.5754970703125,-0.8548205494880676,-1.8551664352416992,1.0967391729354858
1761475867077474000,9.58547412109375,-0.7537829279899597,-1.0151748657226562,1.4404950141906738
1761475867087451100,9.595451171875,-0.4111219644546509,-0.3280612826347351,1.428839921951294
1761475867097428000,9.605427978515625,-0.07768356800079346,-0.41084805130958557,0.7620676159858704
1761475867107405300,9.6154052734375,0.005739946383982897,-0.6314424872398376,-0.286606103181839
1761475867117382100,9.625382080078126,-0.0023159231059253216,-0.2790333330631256,-1.0042535066604614
1761475867127359200,9.635359130859374,0.008756435476243496,0.2681831419467926,-1.201554298400879
1761475867137336000,9.645336181640625,0.05568533018231392,0.7305542230606079,-1.0846881866455078
1761475867147313200,9.655313232421875,0.08220881223678589,0.9859969019889832,-0.7634124159812927
1761475867157290200,9.665290283203126,-0.013841137290000916,0.9259551763534546,-0.37294378876686096
1761475867167267000,9.67526708984375,-0.2395898550748825,0.5491130948066711,-0.07018951326608658
1761475867177244200,9.685244140625,-0.5828803777694702,-0.007118544541299343,0.0811200886964798
1761475867187221000,9.695220947265625,-0.9481371641159058,-0.47810205817222595,0.05972851812839508
1761475867197198000,9.705197998046875,-1.142912745475769,-0.803257942199707,-0.052280668169260025
1761475867207175000,9.7151748046875,-1.0635584592819214,-0.9289298057556152,-0.16142553091049194
1761475867217152000,9.725152099609375,-0.6997204422950745,-0.7080367207527161,-0.18540076911449432
1761475867227129300,9.73512939453125,-0.17348115146160126,-0.14151129126548767,-0.17457261681556702
1761475867237106200,9.745106201171875,0.35772594809532166,0.5162138342857361,-0.2167736291885376
1761475867247083300,9.755083251953126,0.7733036875724792,1.0309215784072876,-0.3451840877532959
1761475867257060000,9.76506005859375,0.9855620265007019,1.2274490594863892,-0.5682501792907715
1761475867267037200,9.775037109375,0.9739336371421814,1.070565104484558,-0.8384257555007935
1761475867277014000,9.785013916015625,0.8152294158935547,0.7148796916007996,-1.0387239456176758
1761475867286991600,9.79499169921875,0.6330625414848328,0.3056482672691345,-1.10164213180542
1761475867296968700,9.80496875,0.44749265909194946,0.05018213763833046,-1.0240323543548584
1761475867306945500,9.814945556640625,0.27444976568222046,-0.045105502009391785,-0.852810800075531
1761475867316922600,9.824922607421875,0.1617235541343689,0.03041599877178669,-0.593448281288147
1761475867326899500,9.8348994140625,0.12492638826370239,0.197430819272995,-0.25122037529945374
1761475867336876500,9.84487646484375,0.09620268642902374,0.4211737811565399,0.13566754758358002
1761475867346853600,9.854853515625,0.044006865471601486,0.6640109419822693,0.5233071446418762
1761475867356830700,9.864830810546875,0.0004009301192127168,0.7869889140129089,0.8508359789848328
1761475867366807800,9.874807861328126,-0.06809424608945847,0.7013912200927734,1.0645865201950073
1761475867376784600,9.88478466796875,-0.10367736220359802,0.4333742558956146,1.1774954795837402
1761475867386761700,9.89476171875,-0.06910340487957001,0.09635414928197861,1.1762784719467163
1761475867396738600,9.904738525390625,0.012050647288560867,-0.2650895118713379,1.0438629388809204
1761475867406715600,9.914715576171876,0.13724611699581146,-0.5076470375061035,0.8423633575439453
1761475867416692700,9.924692626953124,0.28389450907707214,-0.5376741886138916,0.7237311601638794
1761475867426669600,9.934669677734375,0.4054478406906128,-0.380552738904953,0.7456705570220947
1761475867436646700,9.944646728515625,0.4777423143386841,-0.11763684451580048,0.9136354923248291
1761475867446623500,9.95462353515625,0.5368404984474182,0.19311757385730743,1.2330433130264282
1761475867456600600,9.9646005859375,0.5836758613586426,0.4648323059082031,1.6298108100891113
1761475867466577400,9.974577392578125,0.6627091765403748,0.4029977023601532,1.8350409269332886
1761475867476554800,9.9845546875,0.6614534258842468,-0.3257147967815399,1.5280035734176636
1761475867486531800,9.99453173828125,0.4882315695285797,-1.4460654258728027,0.9125016927719116
1761475867496508700,10.0045087890625,0.11484242975711823,-2.2533302307128906,0.5373068451881409
1761475867506485800,10.01448583984375,-0.41136887669563293,-2.221482753753662,0.8131687641143799
1761475867516462600,10.024462646484375,-0.8886204361915588,-1.5486832857131958,1.4664374589920044
1761475867526439700,10.034439697265626,-1.1417484283447266,-0.9320429563522339,1.8815851211547852
1761475867536416500,10.04441650390625,-0.9189586043357849,-0.6251731514930725,1.8642661571502686
1761475867546393600,10.0543935546875,-0.5117929577827454,-0.959405243396759,1.1868104934692383
1761475867556370700,10.06437060546875,-0.23225684463977814,-1.4439986944198608,0.018478326499462128
1761475867566348500,10.0743486328125,-0.11591106653213501,-1.1212691068649292,-0.8719663619995117
1761475867576325600,10.08432568359375,-0.08498231321573257,-0.24713614583015442,-1.2403368949890137
1761475867586302500,10.094302490234375,-0.05586570128798485,0.5420735478401184,-1.2547051906585693
1761475867596279600,10.104279541015625,-0.0439458042383194,0.9861449599266052,-1.140128493309021
1761475867606256600,10.114256591796876,-0.1732923537492752,1.063499927520752,-0.9782781600952148
1761475867616233500,10.1242333984375,-0.3850681781768799,0.8482668399810791,-0.7552352547645569
1761475867626210800,10.1342109375,-0.5821623206138611,0.48263055086135864,-0.49288836121559143
1761475867636187600,10.144187744140625,-0.6538204550743103,-0.012982658110558987,-0.2519006133079529
1761475867646164700,10.154164794921876,-0.521072268486023,-0.506287157535553,-0.03830071911215782
1761475867656141600,10.1641416015625,-0.31191322207450867,-0.7618104815483093,0.13841842114925385
1761475867666118700,10.17411865234375,-0.13256824016571045,-0.6800585985183716,0.26255741715431213
1761475867676095700,10.184095703125,0.03517690300941467,-0.2524281442165375,0.3904920816421509
1761475867686072600,10.194072509765626,0.21927963197231293,0.3832601308822632,0.5637930035591125
1761475867696049700,10.204049560546874,0.4095701575279236,1.0034102201461792,0.7158758044242859
1761475867706026500,10.214026611328125,0.551428496837616,1.3118951320648193,0.7549657225608826
1761475867716003600,10.224003662109375,0.6185094118118286,1.2943921089172363,0.6849746108055115
1761475867725980400,10.23398046875,0.6253481507301331,1.0647135972976685,0.5348370671272278
1761475867735957500,10.24395751953125,0.5738357305526733,0.7348898649215698,0.37524348497390747
1761475867745934800,10.253934814453125,0.4712536633014679,0.455923467874527,0.22696319222450256
1761475867755911700,10.26391162109375,0.34787458181381226,0.27248290181159973,0.09671888500452042
1761475867765888800,10.273888671875,0.23486492037773132,0.2601364850997925,-0.04314287751913071
1761475867775865600,10.283865478515626,0.14617371559143066,0.38694071769714355,-0.17779795825481415
1761475867785842700,10.2938427734375,0.07712060958147049,0.6599078178405762,-0.24035561084747314
1761475867795819500,10.303819580078125,0.016766423359513283,0.996005117893219,-0.19227950274944305
1761475867805796600,10.313796630859375,-0.018587572500109673,1.2322248220443726,-0.038142129778862
1761475867815773700,10.323773681640626,-0.025054864585399628,1.209716558456421,0.14985597133636475
1761475867825750500,10.33375048828125,-0.007174135651439428,0.9928319454193115,0.31657275557518005
1761475867835727600,10.3437275390625,-0.010917608626186848,0.5891135931015015,0.3822903037071228
1761475867845704400,10.353704345703125,-0.10714587569236755,0.053017936646938324,0.30567464232444763
1761475867855681500,10.363681640625,-0.22198452055454254,-0.40326184034347534,0.19015717506408691
1761475867865659600,10.37365966796875,-0.2625497877597809,-0.6032609939575195,0.09381464868783951
1761475867875636500,10.383636474609375,-0.22273963689804077,-0.6075600981712341,-0.017207974568009377
1761475867885613600,10.393613525390625,-0.1336614340543747,-0.5040496587753296,-0.11879318952560425
1761475867895590700,10.403590576171876,-0.06413914263248444,-0.3121653199195862,-0.2026648223400116
1761475867905567700,10.413567626953125,-0.016411826014518738,-0.05152600631117821,-0.2895437777042389
1761475867915544800,10.423544921875,0.02458420768380165,0.26412713527679443,-0.34928110241889954
1761475867925521700,10.433521728515625,0.07711585611104965,0.6961451172828674,-0.29227107763290405
1761475867935498800,10.443498779296876,0.09610925614833832,0.9036360383033752,-0.2445092648267746
1761475867945475600,10.4534755859375,0.045299071818590164,0.5268411040306091,-0.3446188271045685
1761475867955452700,10.46345263671875,-0.06372620165348053,-0.05090068653225899,-0.5225900411605835
1761475867965429500,10.473429443359375,-0.2711217403411865,-0.48004114627838135,-0.5139358639717102
1761475867975406600,10.483406494140626,-0.4563996493816376,-0.46749287843704224,0.06728459894657135
1761475867985383400,10.493383544921874,-0.593275785446167,-0.14653751254081726,0.9502319693565369
1761475867995360500,10.503360595703125,-0.6853150129318237,-0.3003339469432831,1.464981198310852
1761475868005337600,10.513337646484375,-0.6624288558959961,-0.729543924331665,1.5416477918624878
1761475868015314700,10.523314697265626,-0.4890761077404022,-1.1143438816070557,1.3210242986679077
1761475868025291800,10.533291748046874,-0.24524906277656555,-1.6392945051193237,0.7040562033653259
1761475868035268600,10.5432685546875,-0.007400311529636383,-2.2314815521240234,-0.31852737069129944
1761475868045245700,10.55324560546875,0.1909998506307602,-2.547292947769165,-1.489195704460144
1761475868055222500,10.563222412109376,0.4103568196296692,-2.0707991123199463,-2.421034812927246
1761475868065199600,10.57319970703125,0.7425253987312317,-0.7878440618515015,-2.895427942276001
1761475868075176700,10.5831767578125,1.0152966976165771,0.5969366431236267,-3.055556535720825
1761475868085153500,10.593153564453125,1.0604759454727173,1.6279014348983765,-2.9708194732666016
1761475868095130600,10.603130615234376,0.903684675693512,2.310570001602173,-2.7397329807281494
1761475868105107500,10.613107421875,0.6435175538063049,2.394705057144165,-2.4301726818084717
1761475868115084500,10.62308447265625,0.4611579179763794,1.8748939037322998,-2.085057258605957
1761475868125061600,10.6330615234375,0.4282495081424713,0.9390971660614014,-1.7591912746429443
1761475868135038700,10.643038818359376,0.4595957398414612,0.0446651354432106,-1.4934617280960083
1761475868145015800,10.653015869140624,0.4736649692058563,-0.4006185829639435,-1.2699683904647827
1761475868154993400,10.662993408203125,0.466294527053833,-0.32739806175231934,-1.074179768562317
1761475868164970800,10.672970703125,0.5081762075424194,0.11406403034925461,-0.8108673691749573
1761475868174947800,10.68294775390625,0.5867024064064026,0.6135766506195068,-0.4684343636035919
1761475868184924700,10.692924560546874,0.6326773166656494,0.8773465156555176,-0.07524710893630981
1761475868194901800,10.70290185546875,0.5987422466278076,0.7159516215324402,0.35301536321640015
1761475868204878600,10.712878662109375,0.5110288858413696,0.1897841989994049,0.7714632153511047
1761475868214855700,10.722855712890626,0.40883928537368774,-0.5440043210983276,1.0555071830749512
1761475868224832500,10.73283251953125,0.25964659452438354,-1.2298271656036377,1.1550647020339966
1761475868234809600,10.7428095703125,0.07173821330070496,-1.7135133743286133,1.2086753845214844
1761475868244786700,10.75278662109375,-0.18568933010101318,-1.929686427116394,1.1608901023864746
1761475868254763500,10.762763427734376,-0.34570905566215515,-2.5207674503326416,0.8247730135917664
1761475868264740600,10.77274072265625,-0.48728111386299133,-2.2482664585113525,0.46145257353782654
1761475868274717700,10.7827177734375,-0.7057297229766846,-1.5777990818023682,0.03320755064487457
1761475868284695000,10.792695068359375,-0.9038076400756836,-1.0822724103927612,-0.445443719625473
1761475868294672100,10.802672119140626,-0.9658893346786499,-0.8864355087280273,-0.8045194149017334
1761475868304649200,10.812649169921874,-0.9278402328491211,-0.9252158999443054,-1.1350849866867065
1761475868314626000,10.8226259765625,-0.8717662692070007,-0.8913372159004211,-1.4450265169143677
1761475868324603100,10.83260302734375,-0.8189690709114075,-0.48715266585350037,-1.5547574758529663
1761475868334580000,10.842580078125,-0.8169047832489014,-0.13036702573299408,-1.5387892723083496
1761475868344557000,10.85255712890625,-0.8745590448379517,0.12143006175756454,-1.4295705556869507
1761475868354534100,10.8625341796875,-0.9410147070884705,0.15931230783462524,-1.2815945148468018
1761475868364511000,10.872510986328125,-0.9595382809638977,0.07442218065261841,-1.1057125329971313
1761475868374488000,10.882488037109376,-0.9594640731811523,-0.11239338666200638,-0.7802777290344238
1761475868384465000,10.89246484375,-1.0026954412460327,-0.22348155081272125,-0.2928164303302765
1761475868394442000,10.90244189453125,-0.9510678648948669,-0.016799073666334152,0.346109002828598
1761475868404419000,10.912419189453125,-0.6709334254264832,0.783750593662262,1.0246880054473877
1761475868414396200,10.922396240234375,-0.2785399258136749,1.2959867715835571,1.5065674781799316
1761475868424373200,10.932373291015624,-0.027344459667801857,0.6187621355056763,1.5254229307174683
1761475868434350000,10.94235009765625,-0.0336015410721302,-0.41193854808807373,1.1051546335220337
1761475868444327200,10.9523271484375,-0.1799912452697754,-0.3684733510017395,0.8110855221748352
1761475868454305000,10.962304931640626,-0.3599832355976105,0.14021840691566467,0.7026644349098206
1761475868464282000,10.9722822265625,-0.398687481880188,0.8057149052619934,0.7199656367301941
1761475868474259200,10.98225927734375,-0.22594988346099854,1.024587631225586,0.6406609416007996
1761475868484236000,10.992236083984375,-0.09119953215122223,-0.11446628719568253,-0.037968412041664124
1761475868494213000,11.002213134765626,-0.1414393037557602,-1.3455101251602173,-1.1384340524673462
1761475868504190000,11.01218994140625,-0.21269537508487701,-1.5466831922531128,-2.192159414291382
1761475868514167000,11.0221669921875,-0.20373231172561646,-1.105471134185791,-3.1953318119049072
1761475868524143900,11.032143798828125,0.0266090240329504,-0.2703808546066284,-3.749879837036133
1761475868534121000,11.042120849609375,0.42811283469200134,0.8684384822845459,-3.7059805393218994
1761475868544098000,11.05209814453125,0.9736597537994385,1.8279287815093994,-3.25968074798584
1761475868554075000,11.062074951171875,1.4225332736968994,2.3583781719207764,-2.679417848587036
1761475868564052200,11.07205224609375,1.5534113645553589,2.4052486419677734,-2.0858044624328613
1761475868574029000,11.082029052734375,1.3391993045806885,2.0865588188171387,-1.5178072452545166
1761475868584006100,11.092006103515626,0.8639199137687683,1.6499205827713013,-1.0225000381469727
1761475868593983000,11.10198291015625,0.28624221682548523,1.1453006267547607,-0.5300711393356323
1761475868603960000,11.1119599609375,-0.3191571533679962,0.7297934293746948,0.10725043714046478
1761475868613937200,11.121937255859375,-0.8999662399291992,-0.14651444554328918,0.8762214183807373
1761475868623914000,11.1319140625,-0.9695789217948914,-0.8624821305274963,1.6166393756866455
1761475868633891000,11.14189111328125,-0.77678382396698,-1.1284899711608887,2.2051076889038086
1761475868643868000,11.151867919921875,-0.6336754560470581,-1.1463299989700317,2.4460933208465576
1761475868653845000,11.161844970703125,-0.4954074025154114,-0.9715788960456848,2.3199639320373535
1761475868663821800,11.17182177734375,-0.40540748834609985,-0.8260952234268188,1.9441090822219849
1761475868673799000,11.181798828125,-0.3571397066116333,-0.6875264048576355,1.3770917654037476
1761475868683776300,11.1917763671875,-0.2940824329853058,-0.4743292033672333,0.7568252682685852
1761475868693753000,11.201753173828125,-0.2853638231754303,-0.27554118633270264,0.1042744517326355
