time,seconds_elapsed,z,y,x
1761475891345847600,0.06584765625,-0.2428571547269821,0.06754881087690591,0.06487619413416833
1761475891355824600,0.07582470703125,-0.16122224309146405,-0.06966127298623323,-0.18423530827984214
1761475891365801500,0.085801513671875,-0.030690906339883802,-0.19920769035369157,-0.3956729501314461
1761475891375778600,0.095778564453125,0.14503624744415283,-0.25456425139456984,-0.4873378190025687
1761475891385756000,0.105755859375,0.22520342461466789,-0.2836789944589138,-0.4335407258307561
1761475891395732700,0.115732666015625,0.2214817737430334,-0.33882132822722194,-0.34168913874849677
1761475891405709800,0.125709716796875,0.22578853102624416,-0.4055211210593581,-0.15103819127269089
1761475891415686700,0.135686767578125,0.2892646856367588,-0.4224740094259381,0.0010236987582407891
1761475891425663700,0.145663818359375,0.3227519446969032,-0.4673547691598534,0.04532985520828515
1761475891435640600,0.155640625,0.2765460738390684,-0.4841609425321221,0.027782635944057256
1761475891445617700,0.16561767578125,0.15177578483223914,-0.4080976935490966,-0.13902238484895788
1761475891455593500,0.175593505859375,-0.08081482742428779,-0.21870967868119476,-0.23879122046232223
1761475891465570800,0.18557080078125,-0.4374479989349842,-0.09337240344136953,-0.2814749085433781
1761475891475548000,0.1955478515625,-0.7204688217461108,0.03866115456670523,-0.33814474413990975
1761475891485524700,0.205524658203125,-0.8251058387845754,0.12911124082058667,-0.3621034561479464
1761475891495501800,0.215501708984375,-0.8372603869587183,0.12665040366500616,-0.3649650926567614
1761475891505478700,0.225478759765625,-0.7497025150150061,0.08906330807060003,-0.32652580067981035
1761475891515455700,0.235455810546875,-0.5544190123677254,0.05734101285636425,-0.24832959478870031
1761475891525432600,0.2454326171875,-0.32057576970160007,-0.006494622716307639,-0.17260268335426227
1761475891535409700,0.25540966796875,-0.14394260698854922,-0.0685924747109413,-0.1792608260692097
1761475891545386800,0.26538671875,-0.07727379381656646,-0.11149784271866083,-0.29636766777606677
1761475891555363600,0.275363525390625,-0.007371990072727203,-0.15107435856461524,-0.306317454181239
1761475891565340700,0.285340576171875,0.02439560558795929,-0.13968611858785152,-0.2465215224534273
1761475891575317500,0.2953173828125,-0.07481704831421375,-0.1280184771478176,-0.11746977500142529
1761475891585294800,0.305294921875,-0.16627601934969424,-0.17292495584487913,-0.056992309016548094
1761475891595271700,0.315271728515625,-0.11182546723783016,-0.1547457405537367,-0.07171389466710389
1761475891605247700,0.325247802734375,0.03926701150536537,-0.19304390702694654,-0.24709977899910882
1761475891615224600,0.335224609375,0.24213585471510884,-0.2822878323614597,-0.5828822692533955
1761475891625201700,0.34520166015625,0.4296387864887714,-0.44582361309230323,-0.7017271502666175
1761475891635178500,0.355178466796875,0.5644768805235624,-0.64581427051723,-0.5705887875325978
1761475891645155600,0.365155517578125,0.5967717149287461,-0.7583496395900845,-0.4376438868332654
1761475891655132700,0.375132568359375,0.8741782049894332,-0.4903878542229533,-0.5495539270820096
1761475891665109800,0.38510986328125,1.3198475043028592,-0.066935062892735,-0.8064915200117975
1761475891675086800,0.3950869140625,1.3558230730473995,0.04498305106461048,-0.6187360747817904
1761475891685063700,0.405063720703125,1.3874948071181774,0.2415110008150339,-0.1973955811641179
1761475891695040800,0.415040771484375,1.2859054872125386,0.2645136907398701,0.08771766561530529
1761475891705017600,0.425017578125,0.9246446559011936,0.12222674200385808,0.04213862141892314
1761475891714994700,0.43499462890625,1.0052771124958992,0.27321488358974455,0.07751253447588533
1761475891724971800,0.4449716796875,0.9596066636890173,0.17245324667990206,0.01112195372339338
1761475891734948600,0.454948486328125,0.7184259177416562,-0.05356383240520954,-0.03437408836465329
1761475891744924700,0.464924560546875,0.8115203810244798,0.48633156456947324,0.21241309928763658
1761475891754901800,0.47490185546875,0.9662105919986963,1.0893360364079474,0.26815294229136777
1761475891764878800,0.48487890625,0.8537211078941822,0.3273372266605496,-0.39081334473844614
1761475891774855700,0.494855712890625,0.42260932624340053,-0.7929588884174823,-0.4709649955462664
1761475891784832800,0.504832763671875,-0.04479308145046234,-1.694884055249393,-0.3336541181897744
1761475891794809600,0.5148095703125,-0.40464404596388337,-2.2393742326684296,-0.42391182367671276
1761475891804786700,0.52478662109375,-0.5980611702173948,-2.0508010413147506,-0.5775127415768802
1761475891814763800,0.534763671875,-0.4024778078407049,-1.0668322359159588,-0.9590195114508271
1761475891824740600,0.54474072265625,-0.3986521120727062,-0.43212884973883625,-0.9556820375911891
1761475891834717700,0.5547177734375,-0.7656278138995171,-0.2117421777561307,-0.6539700313787907
1761475891844694500,0.564694580078125,-0.8024889333069324,0.15392317212447523,-0.5973890065768733
1761475891854671600,0.574671630859375,-0.8350988250106572,0.20687676367685198,-0.4380138526568189
1761475891864648700,0.584648681640625,-0.8426251288622617,0.09377601580619811,-0.3384760949861258
1761475891874625800,0.594625732421875,-0.6335328810930252,0.14467384387254714,-0.26822240906469524
1761475891884603000,0.604602783203125,-0.38476913267076013,0.25444807766899463,-0.05402056319676339
1761475891894578700,0.61457861328125,-0.1605833606660366,0.30618630208224057,0.18547869593705982
1761475891904555800,0.6245556640625,-0.027040567138791084,0.3923090266562998,0.33774200855791564
1761475891914532600,0.63453271484375,-0.24983108539283275,0.48524376933276653,0.40921610311977563
1761475891924509700,0.644509765625,-0.40068274111747737,0.5955301904350518,0.3498652848109603
1761475891934486500,0.654486572265625,-0.4612573290675878,0.5445192573830485,0.26980492901578546
1761475891944463600,0.664463623046875,-0.5208750546842813,0.44946021602898834,0.165269490921963
1761475891954440700,0.674440673828125,-0.3206172707557678,0.39280397056639194,-0.029801917044329454
1761475891964417800,0.684417724609375,-0.20487959851026533,0.2167339946940541,-0.38599575185626744
1761475891974395000,0.694394775390625,-0.23712825568616389,0.09015957887470721,-0.6460458142507821
1761475891984371700,0.704371826171875,0.14072773659527302,0.09000117344260215,-0.7194448124606162
1761475891994348800,0.714348876953125,0.21348843690156935,-0.08779635687470436,-0.426582577255927
1761475892004325600,0.72432568359375,0.22730419628620147,-0.44367871001809833,-0.04678129155903589
1761475892014302700,0.734302734375,0.3938531873583793,-0.48509120911955833,0.14612847226080483
1761475892024279600,0.744279541015625,0.513538720446825,-0.1801864712804556,-0.004176920358464122
1761475892034255600,0.754255615234375,0.3867342952638864,0.008766951562464237,-0.14171647363798692
1761475892044232700,0.764232666015625,0.5091875394999981,0.36997868303507564,-0.2253101729247719
1761475892054209800,0.774209716796875,0.4595154538363218,0.450423215842247,-0.20973481998909263
1761475892064186600,0.7841865234375,0.5140075070023536,0.08683160349577665,0.04459889231892302
1761475892074163700,0.794163818359375,0.5973953997850417,-0.2841819755449891,0.22225505967047063
1761475892084140800,0.804140869140625,0.6210796422332525,-0.40549920148849483,-0.025975714386254546
1761475892094117600,0.81411767578125,0.49926586494445796,-0.3198787273481488,-0.45347847522702067
1761475892104094700,0.8240947265625,0.386585826703906,-0.22703473169505595,-0.7012466732732952
1761475892114071600,0.834071533203125,0.2819096466988325,-0.23984306760281324,-0.7637888349693268
1761475892124048600,0.844048583984375,0.6375608214348554,-0.2647708803713322,-1.1658666837070137
1761475892134025500,0.854025390625,0.9489315404176711,-0.41864392974376674,-1.6154618512272834
1761475892144002600,0.86400244140625,1.056587613016367,-0.5205389545977115,-1.56612484273687
1761475892153980000,0.87397998046875,1.3737006750434637,-0.6917527226105332,-0.7438555425524711
1761475892163956700,0.883956787109375,1.3425947581619024,-1.0288540951773524,-0.07817143677603453
1761475892173932800,0.893932861328125,1.279511402261257,-0.73884998935014,0.07373886115606874
1761475892183909600,0.90390966796875,1.2915560603201388,-0.3167413061052561,0.045386042374931275
1761475892193886700,0.91388671875,1.4334166003376245,-0.23374475072771309,0.22929971748497335
1761475892203863600,0.923863525390625,1.7949591711997985,-0.2488680855795741,0.19889877053499222
1761475892213840600,0.933840576171875,2.25035374571383,-0.29537527747154235,-0.12163034701328723
1761475892223817500,0.9438173828125,2.582605924683809,-0.40287586724758145,-0.368341948678717
1761475892233794800,0.953794921875,2.786265041488409,-0.4677624731779098,-0.49125733053386206
1761475892243772000,0.96377197265625,2.9494074389874934,-0.43963849471658467,-0.3868996418934315
1761475892253748700,0.973748779296875,3.023802462497353,-0.26484131525903937,-0.13496024084342642
1761475892263725800,0.983725830078125,2.9658114612996576,0.08057166631817818,0.0419982813664712
1761475892273702700,0.99370263671875,2.970378330823779,0.48315059644579883,0.19890214980216694
1761475892283679700,1.0036796875,3.007667320254445,0.8372874210961162,0.314149280318059
1761475892293656600,1.013656494140625,2.83462253742218,0.9764148828878998,0.35016748262792824
1761475892303633700,1.023633544921875,2.5419126797676084,0.9950283979430794,0.16769697379721327
1761475892313607700,1.033607666015625,2.3212287784039973,1.0657475094191728,-0.17062020430015398
1761475892323584500,1.04358447265625,2.2072855883598326,1.1113261882893741,-0.4354655198808759
1761475892333561600,1.0535615234375,2.077618759483099,0.9080614776298404,-0.4260337842667475
1761475892343538400,1.063538330078125,2.1297247942954303,0.5817946566797793,-0.24705102622024713
1761475892353515500,1.073515625,2.302195576632023,0.13191256197690962,-0.07100596559345722
1761475892363492600,1.08349267578125,2.226490639567375,-0.30611922819539905,-0.10765446516349911
1761475892373469700,1.0934697265625,1.5685755968898534,-0.525293747909367,-0.19207856912612914
1761475892383446800,1.10344677734375,0.33682372466921806,-0.5746174585267901,-0.15855039353370665
1761475892393423600,1.113423583984375,-1.3116215277493,-0.32882118160799145,-0.61661981328018
1761475892403400700,1.123400634765625,-3.165708010700345,-0.06752353030517697,-0.8952071106232702
1761475892413377500,1.13337744140625,-5.210151645812392,-0.0624092560313642,-0.597170541520603
1761475892423354600,1.143354736328125,-7.423442027544975,-0.5855228834226727,0.04610971700698137
1761475892433331500,1.15333154296875,-9.052994363445043,-1.243403147047758,0.3112708022722974
1761475892443307500,1.1633076171875,-10.069551579368113,-1.5987540236629545,-0.22424345700871198
1761475892453284600,1.17328466796875,-11.514639328277111,-1.6700179095402359,-0.7844250880237669
1761475892463261700,1.18326171875,-13.025401618623732,-1.002110465158522,-0.9508186693385243
1761475892473238800,1.19323876953125,-13.792937311971187,0.1769569878399372,-0.5863481917982921
1761475892483215600,1.203215576171875,-14.01199624248147,1.1584867295235395,0.12022775020636617
1761475892493192700,1.213192626953125,-14.1229829208076,2.030338829652965,0.5191195527864619
1761475892503169500,1.22316943359375,-13.71172851679325,2.8833371762305497,0.3046728287793696
1761475892513146600,1.233146728515625,-12.889476898396014,2.956278493800759,0.13608473309502006
1761475892523123500,1.24312353515625,-11.499432406795025,2.1448004906132816,0.38254477115217594
1761475892533100500,1.2531005859375,-9.167354317596555,0.9658201313763857,0.8010199567329138
1761475892543077600,1.26307763671875,-6.348229209035635,-0.14314941078424454,1.0494897637099028
1761475892553054500,1.273054443359375,-4.014172513240576,-1.3006664184927939,1.1399121582392602
1761475892563031600,1.283031494140625,-2.3257570694833993,-2.524056705081463,1.4280252626881003
1761475892573007600,1.293007568359375,-0.8180062359124421,-3.2371248951822515,1.7360639146387575
1761475892582984700,1.302984619140625,0.3691244042932987,-3.4885014564514156,1.9178813481219112
1761475892592961500,1.31296142578125,1.2369453492105007,-3.598403846672177,2.306073148717731
1761475892602938600,1.322938720703125,1.689150772294402,-3.7411207112580533,2.6942496056139467
1761475892612915500,1.33291552734375,1.7653911314100026,-3.5802889287889004,2.3272090218573807
1761475892622892500,1.342892578125,1.8696511318296194,-2.9805186165660618,1.6478868878833948
1761475892632869400,1.352869384765625,2.1826456526219844,-2.2810452365756033,1.188376256352663
1761475892642846500,1.362846435546875,2.925194204229116,-1.3409142577290534,0.9264835617661475
1761475892652823800,1.37282373046875,3.7412574893802404,-0.1822597704231739,0.7533171983808279
1761475892662800600,1.382800537109375,4.215485359179973,1.0720382801264523,0.638732422497496
1761475892672777700,1.39277783203125,4.150227581849694,1.849024815647304,0.8039839941702782
1761475892682754600,1.402754638671875,3.9191578955501316,1.996428961266577,0.9487441280867904
1761475892692731600,1.412731689453125,4.066296668231487,2.16629774441123,0.5477535631291568
1761475892702707500,1.42270751953125,4.563827087685466,2.525023796547949,-0.07000701768398285
1761475892712684500,1.4326845703125,5.568243199437856,3.0747207488298414,-0.8246633557140827
1761475892722661400,1.442661376953125,6.995950189957022,3.756208098013699,-1.7285235822618006
1761475892732638700,1.452638671875,7.9539219459205865,4.323600573723018,-2.173449954253435
1761475892742615800,1.46261572265625,7.84552119243443,4.294570586332679,-1.8613585197806357
1761475892752592600,1.472592529296875,7.049863566452264,3.6113647427931426,-1.094439497026801
1761475892762569700,1.48256982421875,6.409417544969916,2.822606520935893,-0.408829807215929
1761475892772546600,1.492546630859375,6.248785668987035,2.1659958388552067,-0.10950725342333316
1761475892782523600,1.502523681640625,6.716689596462249,1.6777008652582763,-0.10158274403437971
1761475892792500500,1.51250048828125,7.608209396874904,1.3318817870981992,-0.40888329096883536
1761475892802477600,1.5224775390625,8.32792184729576,1.0516066097334027,-0.7424051976136863
1761475892812454700,1.53245458984375,8.728372533223032,0.8346177634954453,-1.2581306144498288
1761475892822431500,1.542431396484375,8.869026620060206,0.772192579242587,-1.7823970651380716
1761475892832408600,1.55240869140625,8.767586937758326,0.8130974210828542,-2.005326115079969
1761475892842384600,1.562384521484375,8.046610166490078,0.8071260915882885,-2.1980380136735738
1761475892852361700,1.57236181640625,7.049122392696142,0.8306115965940057,-2.3904062133960426
1761475892862338600,1.582338623046875,6.1367456822156905,0.8845388554841279,-2.5273820501118895
1761475892872315600,1.592315673828125,5.511631669899821,1.0916025200352073,-2.604878254507482
1761475892882292500,1.60229248046875,5.3456876589834685,1.3178683131843805,-2.8037998213961717
1761475892892269600,1.61226953125,5.606383252739906,1.625375050215423,-3.177080468586087
1761475892902246700,1.62224658203125,5.685468479892611,1.8519030014321207,-3.122446376600861
1761475892912223500,1.632223388671875,5.357194556903838,1.8448903461910784,-2.7161808669149874
1761475892922200600,1.64220068359375,4.784129296255111,1.8476349687241016,-2.256278167326748
1761475892932177700,1.652177734375,4.168786736369133,1.8628196783743798,-1.949882314147055
1761475892942154800,1.66215478515625,3.7105221593767403,1.8926497301012277,-2.11528461940214
1761475892952131600,1.672131591796875,3.0197528948456047,1.7242606641203164,-1.9446302388377485
1761475892962108700,1.682108642578125,1.9126690203011034,1.482888048862666,-0.8727164618737995
1761475892972084500,1.69208447265625,0.5656365719527006,1.0345423699468375,0.5519084908515215
1761475892982061600,1.7020615234375,-0.9465063590973615,0.16380056914687155,1.3635202034212648
1761475892992038400,1.712038330078125,-2.655518600681424,-0.862785288837552,0.9835349440261721
1761475893002015500,1.722015380859375,-3.784802032074332,-1.0142752424657344,-0.8360532761912792
1761475893011992600,1.73199267578125,-4.919371294915676,-0.3100035222828388,-2.710211729377508
1761475893021969700,1.7419697265625,-8.366049041116238,-0.6642915919721126,-2.4613521193653343
1761475893031946800,1.75194677734375,-12.6539893956542,-1.4757956063836812,-0.6176178844068199
1761475893041923600,1.761923583984375,-14.507424136698246,-1.6473974969312548,1.370003574091196
1761475893051900700,1.771900634765625,-12.713458652710914,-1.276630001606047,2.9132620666339992
1761475893061877500,1.78187744140625,-9.415422484970092,-1.4103300315216183,3.281998640653491
1761475893071854600,1.7918544921875,-6.614864129713177,-2.175688088569045,2.599139710855484
1761475893081831700,1.801831787109375,-4.969529702791571,-3.1431010420948264,2.033184136081487
1761475893091808500,1.81180859375,-4.326596540668606,-3.880430105488002,1.4965978636547923
1761475893101784800,1.821784912109375,-4.613169503003358,-4.681353981435299,1.5067453097902237
1761475893111761700,1.83176171875,-5.1349026358217,-5.5664206601858135,1.7009420401141047
1761475893121738800,1.84173876953125,-5.066949043536186,-5.884152730894089,1.0271572281315922
1761475893131715600,1.851715576171875,-5.317449991014599,-6.169973998078704,0.4315378981083631
1761475893141692700,1.861692626953125,-5.952579785910248,-6.235963012292981,0.23569632318690417
1761475893151669500,1.87166943359375,-6.379815018388628,-5.5651446489006275,-0.17170878498814998
1761475893161646600,1.881646484375,-6.220146434479951,-4.629272788803279,-0.4285491646211594
1761475893171623700,1.891623779296875,-5.504277800005674,-3.848007553049922,-0.5189286698568613
1761475893181600500,1.9016005859375,-4.971849085649848,-2.87508401940912,-1.1549094555586576
1761475893191577600,1.91157763671875,-5.044854700627923,-1.9948662419945,-1.7861305525779723
1761475893201554400,1.921554443359375,-5.319658314713835,-1.5291978184863924,-1.7450949239648879
1761475893211531500,1.931531494140625,-5.231040120062231,-1.3878507809489964,-1.5228247763231395
1761475893221507600,1.941507568359375,-4.353544753348827,-1.2173793557360768,-1.4132815748035907
1761475893231484700,1.951484619140625,-2.769745868363976,-1.0077221675604582,-1.359938107150793
1761475893241461500,1.96146142578125,-0.8016583277016878,-0.9440481522902846,-1.300672994364053
1761475893251438600,1.9714384765625,1.4086001389890908,-0.8515183371528983,-1.360006788472831
1761475893261415400,1.98141552734375,3.3430116200208664,-0.8101423706695436,-1.297825934369862
1761475893271392500,1.991392578125,4.726859595069289,-0.604642302173376,-0.8823314816329628
1761475893281369600,2.00136962890625,5.689079656127095,0.09955489146858452,-0.40216691526062787
1761475893291346400,2.011346435546875,6.092497375166416,1.1384656857579947,-0.07192406681906431
1761475893301323800,2.02132373046875,5.975717500391602,2.1066107529506084,0.2545161562028341
1761475893311300900,2.03130078125,5.623859288197756,2.767269833639264,0.7176605593923479
1761475893321278000,2.04127783203125,5.291497803634405,3.1455621715113518,0.98773049601987
1761475893331254800,2.0512548828125,5.394630261328816,3.3523972880035635,0.9018583121407776
1761475893341231900,2.06123193359375,5.767376363250613,3.258963802024722,0.7389218855425715
1761475893351207700,2.071207763671875,6.274549640318751,2.883022995714843,0.6070078257283196
1761475893361184800,2.081184814453125,6.750117234289646,2.431508039113134,0.5853100809222087
1761475893371161600,2.09116162109375,7.190566753128171,2.0446046708926557,0.45160972221307455
1761475893381138700,2.101138671875,7.52902947717607,1.5583128538116813,-0.004340440357103944
1761475893391115800,2.11111572265625,7.804827947518229,0.8215534070000052,-0.3819404120508581
1761475893401092900,2.1210927734375,7.951363493609428,0.1691908838830888,-0.7003671139597892
1761475893411070000,2.131070068359375,7.708093081906437,-0.13919555859193206,-0.7091902526888996
1761475893421046800,2.141046875,7.000252271065116,-0.10378463799282908,-0.38354594755135474
1761475893431023900,2.15102392578125,6.127385148674249,0.12975582233443855,-0.0351559229247272
1761475893441000700,2.161000732421875,5.3334729050546885,0.49778950878158207,0.07099222932904958
1761475893450977800,2.170977783203125,4.615485963252186,0.6847237007565796,0.03329349005371332
1761475893460955000,2.180954833984375,4.295812695348262,0.7260356620930135,-0.18574571284279226
1761475893470930700,2.1909306640625,4.447590233746171,0.7912472621940075,-0.4405300367288291
1761475893480908000,2.200907958984375,4.852254153454304,0.7437022516869009,-0.8261439496606587
1761475893490884900,2.210884765625,5.303217467522621,0.7317309511251747,-1.5503735852450131
1761475893500862000,2.220862060546875,5.8689750355064865,0.8245020276725292,-2.419988281711191
1761475893510838800,2.2308388671875,6.224416366884112,0.9864316883809864,-2.9168513232976196
1761475893520815900,2.24081591796875,5.880293717378377,0.9815024152852594,-3.0452684443742033
1761475893530792700,2.250792724609375,4.486704100516438,0.8890591093875467,-2.7401100240349767
1761475893540769800,2.260769775390625,2.320395834711194,0.634404110969603,-1.8191833657436072
1761475893550747000,2.270746826171875,0.24986557218432426,0.26901918546557424,-0.9557181318178772
1761475893560723700,2.2807236328125,-1.0800795477628706,-0.05092413155138492,-0.6810429664172232
1761475893570700800,2.29070068359375,-1.9329998606681822,-0.5435962973192334,-0.5884023843817413
1761475893580677600,2.300677734375,-2.862282113242149,-1.1638026638492942,-0.24711510443240403
1761475893590655000,2.310655029296875,-3.8196711008816955,-0.949461409510672,-0.4868241703920066
1761475893600630800,2.320630859375,-5.353060233578086,-0.9996464131325483,0.04132788955792784
1761475893610607900,2.33060791015625,-8.431235506775975,-1.9145055880784987,1.8178535784445702
1761475893620584700,2.340584716796875,-11.758597722244263,-2.5671140487805006,2.841851319631934
1761475893630561800,2.350561767578125,-13.566119437897205,-2.3342016572237014,2.6805145102500916
1761475893640538600,2.36053857421875,-13.319126206278801,-1.8433806722804902,2.477390230974555
1761475893650515700,2.370515625,-11.427613371253013,-1.2930009984314441,2.381325519709289
1761475893660492800,2.380492919921875,-9.757240949186682,-1.002246658758819,2.375078880404681
1761475893670470000,2.390469970703125,-9.25566797634363,-1.6165888094305991,3.3702883340030905
1761475893680447000,2.400447021484375,-8.913021244609356,-2.876967641198635,4.282606007772684
1761475893690423800,2.410423828125,-8.462076050719618,-4.137851792140305,4.547237187412381
1761475893700401000,2.42040087890625,-8.219167458066345,-5.0372781278938055,4.38022876213491
1761475893710377700,2.430377685546875,-8.40015706242323,-5.0270525019556285,4.002335944974422
1761475893720353800,2.440353759765625,-8.771142584413289,-5.1291176226794715,3.995943905849755
1761475893730330600,2.45033056640625,-8.59508283767402,-5.0010734265685075,3.7093881869107483
1761475893740307700,2.4603076171875,-8.210328318050504,-4.13609734968841,2.4703841516047715
1761475893750284800,2.470284912109375,-8.038937147644162,-3.1317113408133386,1.356170132919401
1761475893760262000,2.480261962890625,-7.380395497500896,-2.1086077719867227,1.1094390593685208
1761475893770239000,2.490239013671875,-6.345485463285446,-1.3887249334350227,1.1955817307520658
1761475893780215800,2.5002158203125,-5.1907028489768505,-0.9134428784072398,1.1523814714509992
1761475893790193000,2.51019287109375,-3.7211060972332954,-0.6286310805261135,1.0375516347654163
1761475893800169700,2.520169677734375,-1.5253741685450075,-0.16492869639396668,0.9733869133688509
1761475893810146800,2.530146728515625,0.8750158248573541,0.25032997482568026,0.9950288363344967
1761475893820124000,2.5401240234375,2.6644991949945687,0.11537936032712459,0.9974095939911901
1761475893830100700,2.550100830078125,3.909472367838025,-0.24170301625579593,0.744433926962316
1761475893840076800,2.560076904296875,5.043929986998439,-0.31468291227072476,-0.015227379748225212
1761475893850054000,2.570053955078125,5.98336830740571,0.0015256021320819854,-1.1153962142072618
1761475893860031000,2.580031005859375,6.508797956654429,0.43377398659735916,-2.080365427842736
1761475893870007800,2.5900078125,6.825435217863321,0.953191535949707,-2.484109017835557
1761475893879985000,2.59998486328125,7.1874068277925245,1.6442419555097818,-2.3482506408423185
1761475893889961700,2.609961669921875,7.614039418202638,2.4482953616544605,-2.108147899390012
1761475893899938800,2.619938720703125,7.507944019049406,3.223516933329403,-1.8511326015815137
1761475893909915600,2.62991552734375,6.66105480300188,3.6440006457209586,-1.5129814277008176
1761475893919892700,2.639892822265625,5.528396926739812,3.7061446749448774,-1.2713090988442302
1761475893929869800,2.649869873046875,4.598158396354317,3.401073056106269,-1.1324788664333523
1761475893939846700,2.6598466796875,4.072269897422194,2.810813791811466,-1.0486666107587517
1761475893949823700,2.66982373046875,4.222151831331849,2.258288776496798,-1.152399372433871
1761475893959799800,2.6797998046875,5.031380302026868,1.8676129040002822,-1.6168153116628527
1761475893969777000,2.68977685546875,6.102488023304939,1.4433165014527738,-1.9741750438824295
1761475893979753700,2.699753662109375,7.01687899621725,1.0388597947545348,-1.9161777590744196
1761475893989730800,2.709730712890625,7.458509249272942,0.7273495211705565,-1.5288533889628946
1761475893999707600,2.719707763671875,7.5735156846344465,0.6574655453443526,-1.03587551824674
1761475894009684700,2.729684814453125,7.4709998975336545,0.7541676777303219,-0.7558477397717535
1761475894019661800,2.739661865234375,7.146921088147163,0.6955016998805106,-0.49558629964888096
1761475894029638700,2.749638671875,6.563751197591424,0.5861578203253448,-0.3429175114996731
1761475894039615700,2.75961572265625,5.977105155357718,0.5617896872662007,-0.4697808272629976
1761475894049592800,2.7695927734375,5.719632030779123,0.6558725770644843,-0.8546689101383089
1761475894059570000,2.77956982421875,5.799011272442341,0.7651521592117846,-1.5057910778053103
1761475894069545700,2.789545654296875,5.9914569213151925,0.7835572922132908,-2.0053147169031202
1761475894079522800,2.799522705078125,6.133210493826866,0.7627287314571439,-2.136531405570358
1761475894089499600,2.809499755859375,6.494535622546076,0.8633331319786608,-2.397026654449105
1761475894099476700,2.819476806640625,6.713698013430833,1.0320124130778014,-2.6136089657127854
1761475894109453800,2.829453857421875,6.047197513237595,1.1955858954705296,-2.516142863216996
1761475894119430700,2.8394306640625,4.781836216881871,1.2453056196682155,-2.0274805176123976
1761475894129408000,2.849407958984375,3.5906197686672208,1.1094133404053748,-1.5214379981398582
1761475894139384800,2.859384765625,2.4184826994538304,0.7681262065865099,-0.6356513345517217
1761475894149362000,2.86936181640625,0.7648919008404016,0.05696370397657156,0.653819005535543
1761475894159338800,2.8793388671875,-0.7488128726989031,-0.7655266916126012,1.1777530093990265
1761475894169315800,2.88931591796875,-1.2004898879945278,-1.2258841492310166,0.23745558794438837
1761475894179293000,2.89929296875,-1.0708943707883358,-1.6208955667138099,-1.094265455634147
1761475894189268700,2.909268798828125,-1.8890040670752524,-2.637104699851572,-1.797487959025055
1761475894199245600,2.91924560546875,-4.305280780917406,-3.5353994012266394,-1.8033159345261751
1761475894209223000,2.929222900390625,-7.560257559132576,-3.9317172251328825,-0.6897213629133999
1761475894219200000,2.939199951171875,-9.551545358118414,-4.377465434901416,1.8748631673894822
1761475894229176800,2.9491767578125,-9.476954519775509,-3.698958270572126,3.3823107802301644
1761475894239154000,2.95915380859375,-8.575363991725444,-2.039165402448177,3.1848487645000216
1761475894249130800,2.969130859375,-7.845112027111649,-1.8618585782572625,2.7793039703041313
1761475894259107800,2.97910791015625,-7.4469982596993445,-2.622265442638099,2.141871743685007
1761475894269084700,2.989084716796875,-6.9842240963280195,-3.114791477933526,1.0497991949852556
1761475894279061800,2.999061767578125,-6.456619441127777,-3.257428263020515,-0.02285897060520947
1761475894289038800,3.009038818359375,-6.519148670276999,-3.5974130820691586,-0.4329653005629778
1761475894299015700,3.019015625,-7.180632219091057,-4.147153873492777,-0.024535306319594382
1761475894308992300,3.0289921875,-7.623140424025058,-4.261596245230734,0.7915297323971986
1761475894318969000,3.038968994140625,-7.861497344723343,-4.107697769156098,1.223551541564986
1761475894328946200,3.0489462890625,-7.833383595395087,-3.7844934045165775,1.2663564448729157
1761475894338923000,3.058923095703125,-7.342291684556007,-3.57934755628556,1.0137624706380068
1761475894348900000,3.068900146484375,-7.108570022442937,-3.4480528339460492,0.47445075530279424
1761475894358877200,3.078877197265625,-7.658838344871997,-3.1121774960428477,-0.15447649515829978
1761475894368854000,3.08885400390625,-8.351528932854533,-2.5357269768700004,-0.5972345101349056
1761475894378831000,3.0988310546875,-8.543359080177545,-2.2380624194175005,-0.4522429420826956
1761475894388808000,3.108807861328125,-8.239528693571685,-2.264479009439051,-0.07013843464446254
1761475894398785000,3.118784912109375,-7.320170453640818,-2.620204710716009,0.10401600819644517
1761475894408761900,3.128761962890625,-5.704850641232729,-2.928396799662709,-0.1441349512228742
1761475894418739200,3.1387392578125,-3.6047675364851948,-2.917408372658491,-0.8493474228546023
1761475894428715000,3.148715087890625,-1.8717039727061986,-2.469500939029455,-1.4321357667468488
1761475894438692000,3.158692138671875,-1.1881646594285964,-1.8595342269629238,-1.2903729880154131
1761475894448669200,3.168669189453125,-1.019048448216915,-0.8722393458813429,-0.7775758797161281
1761475894458646000,3.17864599609375,-0.5627969646126032,0.18118483466804025,0.30592958737481385
1761475894468623000,3.188623046875,0.46813189101219177,0.9631707859113812,1.5534075461134313
1761475894478600000,3.198599853515625,2.3396096537470816,1.2332745517432688,0.9969327702596783
1761475894488577000,3.208576904296875,4.877841599175333,0.730825088326633,-1.856809185913205
1761475894498554000,3.21855419921875,6.800552121019363,-0.0895484612390399,-5.312409074237943
1761475894508531200,3.22853125,6.436913454660773,-0.15151333450376986,-6.895518807914852
1761475894518508300,3.23850830078125,4.842453474929928,1.6127926320180297,-5.073779766339063
1761475894528485000,3.248485107421875,2.933604305177927,4.005696069057286,-1.4389853403806685
1761475894538461200,3.258461181640625,0.9605909985512494,5.859674123197793,2.53304168330878
1761475894548438000,3.26843798828125,0.26274960367679595,6.829405875059962,5.1094519682228565
1761475894558415000,3.2784150390625,1.0677303537994622,6.32645459960103,5.659710938301682
1761475894568392000,3.288391845703125,2.600032860302925,4.831193537507951,4.337250621151924
1761475894578369000,3.298369140625,4.866442253282666,3.0444331625938412,2.9444448481440544
1761475894588346000,3.30834619140625,7.152495673409104,1.880510817887634,1.9408501357771455
1761475894598323200,3.3183232421875,8.849041816651821,0.8510914900429546,1.0944074944533406
1761475894608300300,3.32830029296875,9.65550783689618,-0.2324723927043378,0.08029196346080862
1761475894618277000,3.338277099609375,9.573322305640577,-0.9739920396551489,-0.8396629180558025
1761475894628254200,3.348254150390625,8.738216466367245,-1.245369624815136,-1.1377229776319115
1761475894638231000,3.35823095703125,7.410622293460369,-1.0581713750764727,-0.9991269193030893
1761475894648208100,3.3682080078125,6.044398237907886,-0.43771863256990906,-0.7477917860228568
1761475894658184000,3.378183837890625,5.0955695733428,0.25705592207983136,-0.6398897027738392
1761475894668161300,3.388161376953125,4.778830605325102,0.8165906700260936,-0.6709644207995384
1761475894678138000,3.39813818359375,5.300418776714801,1.3922775113500654,-0.9676174631219356
1761475894688115200,3.408115234375,6.741950878968835,1.8823902018934486,-1.2774503780782223
1761475894698092000,3.418092041015625,8.939838524386285,2.0594031577043235,-1.6882392104074357
1761475894708069000,3.428069091796875,10.770207447141408,1.7631717017948627,-1.8331413100779055
1761475894718046200,3.438046142578125,11.062149243032932,1.4026640269383788,-1.378500476540625
1761475894728023000,3.44802294921875,10.02616018140912,1.1769485611483455,-0.62124513499327
1761475894738000100,3.458000244140625,8.334092644885182,1.368649529133737,-0.05164177830144763
1761475894747977000,3.46797705078125,6.59255409822762,1.5018419017881155,0.3978676836967468
1761475894757954000,3.4779541015625,5.0841936083257195,1.3264467564374207,0.6946554583147168
1761475894767930000,3.48793017578125,4.0316988175809385,1.159296876862645,0.202214690149948
1761475894777907200,3.4979072265625,3.070536156621575,0.4085638497561216,-0.2989516015883535
1761475894787884000,3.507884033203125,2.370638998261094,-0.7638155037805437,-0.713104941914603
1761475894797861000,3.517861083984375,2.1628934889256954,-1.2109615976482628,-1.7057304434344172
1761475894807838200,3.527838134765625,2.1415970183968542,-0.02846680054962635,-3.0158389362722633
1761475894817815000,3.53781494140625,1.1111030470579861,0.693414810603857,-2.645181038801372
1761475894827792100,3.547792236328125,-1.994237880963087,-0.8504179746955632,-0.5877647440653294
1761475894837769000,3.55776904296875,-5.830042370522022,-2.487636315178871,0.6701289928887039
1761475894847746000,3.56774609375,-7.722842322748899,-3.049859279295802,0.8648997967734933
1761475894857723000,3.577722900390625,-6.818098883625865,-2.986613134048879,0.9485437832091003
1761475894867700200,3.5877001953125,-5.132955008885264,-4.028979329489172,1.65295483879745
1761475894877676000,3.597676025390625,-3.35022228205204,-5.179709745797514,1.344606097984314
1761475894887653000,3.607653076171875,-1.509064254257083,-4.259166972257197,-0.9481482810854911
1761475894897630200,3.617630126953125,-1.545662923336029,-3.127667033858597,-2.5063842702686787
1761475894907607000,3.62760693359375,-4.1477474554717535,-2.875807657508552,-1.7444751846313475
1761475894917584100,3.637584228515625,-7.190928572177887,-3.368898048688471,0.2684699540849775
1761475894927561000,3.64756103515625,-8.427648880460858,-3.2320413083076476,0.943678515260294
1761475894937538000,3.6575380859375,-7.841449997472763,-2.6308076455339786,0.7927896693304181
1761475894947515100,3.66751513671875,-6.969658979880809,-3.009992256070673,1.083617804891616
1761475894957492200,3.6774921875,-6.95276103657186,-4.126794099292159,1.4979779198363423
1761475894967469000,3.687468994140625,-7.452838802421093,-4.869910221654177,1.3018199724420905
1761475894977446100,3.697446044921875,-8.086879633036256,-4.912097504520416,0.9138241328097879
1761475894987422000,3.707421875,-9.006284634718298,-4.188786152824759,0.8555651283256709
1761475894997399000,3.71739892578125,-9.45677331701219,-3.0154885153993964,0.9156997174233198
1761475895007376100,3.727376220703125,-9.939303735733032,-1.9679685904577373,0.8274176228582859
1761475895017353000,3.73735302734375,-10.748518177902698,-1.5143892486721275,0.6021033582802862
1761475895027330000,3.747330078125,-11.141726053094864,-1.7903537232309579,0.25076332474164664
1761475895037307100,3.75730712890625,-10.937632052004338,-2.1960808882564304,-0.40424368500206614
1761475895047284200,3.7672841796875,-10.095469279956816,-2.6577403683841228,-0.9552922345560043
1761475895057261000,3.777260986328125,-8.638007787165046,-2.7463115090236068,-1.6512385363988578
1761475895067238100,3.787238037109375,-7.113332122278213,-2.700778715121746,-2.502795305866003
1761475895077215200,3.79721533203125,-6.142786131423711,-2.4320082437202335,-2.894465303966403
1761475895087192000,3.807192138671875,-5.533223323982954,-1.7532020964443682,-2.511862993940711
1761475895097169200,3.817169189453125,-4.5469291443765165,-1.1575658152863382,-1.691753209877759
1761475895107145000,3.82714501953125,-3.1802614367097615,-0.5850929675728083,-0.9450905009500682
1761475895117122000,3.8371220703125,-1.5081944856852292,0.19410905204042792,-0.3728480279263109
1761475895127099100,3.84709912109375,0.4015355585545301,0.8325203528247773,-0.07381936078006401
1761475895137076200,3.857076171875,2.3200240787893534,1.235666999837756,0.2489929540682584
1761475895147053000,3.867052978515625,4.166322392082214,1.621715212533623,0.42283999319411814
1761475895157030100,3.877030029296875,5.719528570404648,1.822141338766366,0.4042154452882707
1761475895167007200,3.88700732421875,6.652683280497789,2.028571527719498,0.33232856867443766
1761475895176984000,3.896984130859375,6.873147401630878,2.703059519535303,0.307095160555467
1761475895186961200,3.906961181640625,6.745868344673514,3.4292560712784526,0.2893088535720482
1761475895196938000,3.91693798828125,6.474319932991266,3.471850181379914,0.50124827093333
1761475895206914300,3.926914306640625,6.1181052791535855,2.8125232260778543,0.8274161615535617
1761475895216891100,3.93689111328125,6.269587049475311,1.9653009786836801,1.015296036880836
1761475895226868200,3.9468681640625,6.9747256156206126,1.36237278695181,0.9395533250890672
1761475895236845000,3.956844970703125,7.672586299717426,0.875838539417088,0.8658590702597051
1761475895246822100,3.966822265625,8.26768102134466,0.5040777952708304,0.7491806100327522
1761475895256799000,3.976799072265625,8.573163851332664,0.17344503419622778,0.48935807278379795
1761475895266776000,3.986776123046875,8.430017363157868,-0.1412244340710342,0.2915747161448002
1761475895276753200,3.996753173828125,8.13586373643577,-0.14930778728350996,-0.03819792096912861
1761475895286730000,4.00672998046875,8.022002963978052,0.15690511054471135,-0.303152560409531
1761475895296707000,4.01670703125,7.834947775971889,0.40034810233563184,-0.19146504033766687
1761475895306683100,4.02668310546875,7.558904975479841,0.5982255669988692,0.1774606265131384
1761475895316660000,4.036659912109375,7.2142340444415805,0.784823366626352,0.4269288699429482
1761475895326636800,4.04663671875,6.904929025816917,0.8329933771640062,0.5095708397291601
1761475895336614000,4.05661376953125,6.856708892527222,0.9924771060250699,0.4087802689857781
1761475895346590700,4.0665908203125,7.3370520303368565,1.1790464102104306,0.015207944395393132
1761475895356567800,4.07656787109375,8.283282495102286,1.2043272742003202,-0.7121285711631179
1761475895366545000,4.086544921875,9.098286042067407,1.2747729755625128,-1.55450571661368
1761475895376521700,4.096521728515625,9.458635019230842,1.2481870203234255,-2.2765710137709974
1761475895386498800,4.106498779296875,8.997375936597585,1.3063669682219623,-2.6516502348154782
1761475895396476000,4.116475830078125,7.932269501560926,1.5398428388804197,-2.6910797434061764
1761475895406453000,4.126452880859375,6.724933693194389,1.7848422663331032,-2.3844022968061265
1761475895416428800,4.1364287109375,5.696908157795668,2.085033419653773,-2.0504878837123512
1761475895426406000,4.146406005859375,4.78142763608098,2.190546635004878,-1.6718519930996
1761475895436382700,4.1563828125,2.958662758588791,1.4718128203578293,-0.7489085881583393
1761475895446359800,4.16635986328125,0.6033972705483436,0.5007014507055282,-0.03868102831095457
1761475895456336600,4.176336669921875,-1.0974801798969507,-0.29469167912155386,-0.16612667400687933
1761475895466313700,4.186313720703125,-2.5485049176394936,-0.851400409861654,-0.4001769835524261
1761475895476290800,4.196290771484375,-4.3986032077372075,-0.720747492557019,-0.20157441948503255
1761475895486268000,4.206267822265625,-7.685617046204209,-0.7028948788717388,0.8596494750298559
1761475895496245000,4.216244873046875,-11.797950073945522,-1.4969330869585276,2.6791157493680715
1761475895506221800,4.226221923828125,-14.16626793578267,-1.966534758262336,3.896480199795961
1761475895516199000,4.236198974609375,-14.15601308375001,-1.9056477433621881,4.363259214894473
1761475895526174700,4.2461748046875,-13.020963928437233,-1.6792025019928811,3.9579339086681604
1761475895536151800,4.25615185546875,-11.913082181513309,-1.0397267868474125,2.6523317873388526
1761475895546128600,4.266128662109375,-11.259238333797454,-0.7371800103113055,1.151702768471837
1761475895556105700,4.276105712890625,-10.964991183573007,-1.6761431144222616,0.43475686015486714
1761475895566083000,4.2860830078125,-10.349080468410254,-2.706172098597884,0.10234583736136556
1761475895576060000,4.296059814453125,-9.498242806997895,-3.553771216480434,-0.017780132970958946
1761475895586037000,4.306037109375,-8.943942452573776,-4.560174702657759,0.26172625197842714
1761475895596013800,4.316013916015625,-8.615354056808352,-5.11518788152635,0.2917480268850922
1761475895605991000,4.325990966796875,-8.058414001530409,-4.698683594159782,-0.03054594491124153
1761475895615967700,4.3359677734375,-6.7239984581708905,-3.5896763503372666,-0.5237894808262586
1761475895625943800,4.34594384765625,-5.301752071145176,-2.643577110736072,-1.3853940354466439
1761475895635920600,4.355920654296875,-5.3449669434934854,-2.4220596811577675,-2.0282069321908054
1761475895645898000,4.36589794921875,-6.439835479587316,-2.4574223787009712,-1.9451712138466535
1761475895655874800,4.375874755859375,-6.773426798206567,-2.1823899242952463,-1.26677730063349
1761475895665852000,4.385851806640625,-5.482956779557466,-1.88562348472625,-0.1763318416789174
1761475895675829000,4.3958291015625,-3.5784582062304016,-1.9711250086620449,0.856896669190377
1761475895685805800,4.405805908203125,-1.762229452508688,-2.0442792383305726,1.5545970481589435
1761475895695783000,4.415782958984375,0.05710954218804836,-1.9662080105260014,1.7034608910672366
1761475895705759700,4.425759765625,1.7963152619838714,-1.7262996226020155,1.5793508195348083
1761475895715736800,4.43573681640625,3.318576266944408,-1.1743991689264774,1.5765772631682455
1761475895725713700,4.445713623046875,4.675948322999477,-0.3708354459948838,1.5752105048596858
1761475895735690000,4.45568994140625,5.666443461427092,0.5311876282535493,1.5543062485188246
1761475895745666800,4.465666748046875,6.36550709157288,1.1644843625031411,1.508089417875558
1761475895755644000,4.475643798828125,6.76208181284964,1.5000158554047345,0.8147162544563412
1761475895765621000,4.48562109375,6.865016117623448,2.233754346960038,-0.4234774873800575
1761475895775597800,4.495597900390625,6.748578188154101,2.9234894461378453,-1.6048960335493088
1761475895785575000,4.505574951171875,6.343027548739314,2.9319813801512122,-2.1912363708347082
1761475895795551700,4.5155517578125,5.893708494746685,2.419194500984996,-2.0469886434197426
1761475895805528800,4.52552880859375,5.602340699350833,1.8520432866856456,-1.593202819276601
1761475895815505700,4.535505615234375,5.721812297427654,1.4174009928211568,-1.2174335701413452
1761475895825482800,4.545482666015625,6.532328469845652,1.0073254963930696,-1.2355607629843055
1761475895835458800,4.555458740234375,7.298034609678387,0.49207467479873446,-1.1550064861923455
1761475895845436000,4.565435791015625,7.293622638455033,-0.21942056689690798,-0.7863046912252902
1761475895855413000,4.5754130859375,6.740630444020033,-0.6472825895041227,-0.5678232683420181
1761475895865389800,4.585389892578125,6.337821212267875,-0.8058210003390908,-0.4290913817390799
1761475895875367000,4.595366943359375,6.163295250967145,-1.060224946605414,-0.20644830913171172
1761475895885343700,4.60534375,5.97730739993155,-1.1471441553194075,0.006573313975706696
1761475895895320800,4.61532080078125,5.858531967425346,-0.9443406324308365,0.19832586601786314
1761475895905297700,4.625297607421875,5.85410421411097,-0.7127671613276004,0.4791105272747576
1761475895915274800,4.635274658203125,5.694899740582704,-0.588246682363376,0.817308535971865
1761475895925251800,4.645251953125,5.323272413557768,-0.2902345535822213,0.8646684722356498
1761475895935229000,4.65522900390625,4.957108028113842,0.14442549513466654,0.7140498946145176
1761475895945204700,4.665204833984375,4.732611290463805,0.4980299664739519,0.2709812793187797
1761475895955181800,4.675181884765625,4.515630919793248,0.7610434087187051,-0.44222602699175473
1761475895965159000,4.685158935546875,4.497795987895131,0.8885927339848131,-1.2157894561961293
1761475895975135700,4.6951357421875,4.8630824214607475,1.0106943883042783,-1.9527105233103035
1761475895985112800,4.70511279296875,5.145958867365121,1.2025003510341048,-2.4592133537709713
1761475895995089700,4.715089599609375,4.487496712198853,1.1060868993964046,-2.1263700770400464
1761475896005066800,4.725066650390625,3.4630975506037474,1.204680325421691,-1.378466135879606
1761475896015043800,4.7350439453125,2.5832225952774284,1.3733672053053974,-0.5557549371466041
1761475896025021000,4.74502099609375,2.104070128557086,1.2860052943252027,0.36020270056053993
1761475896034998000,4.754998046875,1.8076368664652107,1.1317207415424286,1.162519930562377
1761475896044973800,4.764973876953125,1.1781605672866104,1.086700573337823,1.3578722606621683
1761475896054951000,4.774950927734375,0.6668652418524027,1.3713403756529092,0.6273091842725873
1761475896064927700,4.784927734375,-0.21111820063889025,0.6489003999643027,0.06411766738444566
1761475896074904800,4.79490478515625,-2.413892449054122,-1.1597542652413249,-0.15493132625371217
1761475896084881700,4.804881591796875,-5.286190344876051,-2.2033387504301962,-0.6531088114395738
1761475896094859000,4.81485888671875,-7.030016125687957,-1.9268967214874921,-0.3971116046324372
1761475896104835800,4.8248359375,-6.92708006734848,-1.2735051475837826,0.6178454826176166
1761475896114813000,4.83481298828125,-5.589779323941469,-0.7916212100729346,1.5585215281262992
1761475896124790000,4.8447900390625,-3.5792081478148696,-0.5106257556095719,1.9283979198306798
1761475896134766800,4.854766845703125,-1.7705962988376616,-0.7032914769738913,1.45525945270285
1761475896144744000,4.864743896484375,-1.5970780532747506,-1.866389791946113,0.917497122234106
1761475896154719700,4.8747197265625,-2.1578835518091917,-3.2961320876851676,0.702581282877922
1761475896164696800,4.88469677734375,-2.219883204126358,-4.180652822990715,0.7433049229323864
1761475896174674000,4.894673828125,-1.9434142871767282,-4.44137121310085,0.927394539131224
1761475896184651000,4.904651123046875,-2.1149013191729784,-4.310339525611698,1.1765160149499774
1761475896194627800,4.9146279296875,-3.1738661827147006,-4.331649147883057,1.5795309984073043
1761475896204605000,4.92460498046875,-4.780601122128963,-4.618741165655851,1.8709278737671673
1761475896214581800,4.934581787109375,-6.289381883269548,-4.650350063623487,2.0121243969179687
1761475896224558800,4.944558837890625,-7.4136103693604465,-4.472533244083822,2.07521111381948
1761475896234536000,4.954535888671875,-8.56673586411178,-3.7391964651972054,1.598439843147248
1761475896244512800,4.9645126953125,-10.073470214116572,-2.3617970817662775,0.7040127769857645
1761475896254488800,4.97448876953125,-11.472504652380943,-0.6334380424164235,-0.5628619926728308
1761475896264466000,4.9844658203125,-12.878843276178836,0.620420301541686,-1.2800178904786705
1761475896274443000,4.994443115234375,-14.270288282227515,0.9967034915484487,-0.8576824127405881
1761475896284419800,5.004419921875,-15.052840342921018,0.8490275432504713,-0.19287088854759932
1761475896294397000,5.01439697265625,-14.590606277775764,0.7344517543911934,-0.1395773975163698
1761475896304373800,5.024373779296875,-13.042560843217371,0.4318146692231297,-0.5284910826459527
1761475896314350300,5.034350341796875,-10.995890179705619,0.05554609226360917,-0.6943513608016073
1761475896324327400,5.044327392578125,-8.652189457252621,-0.3910891294725239,-0.7125669625803828
1761475896334304500,5.054304443359375,-6.094566582655906,-0.9590316402800381,-0.6994879930377006
1761475896344281300,5.06428125,-3.539271858745813,-1.4248307044304906,-0.4088958581894636
1761475896354258400,5.074258544921875,-0.9897820217221974,-1.626144427152723,0.061681964670121665
1761475896364234500,5.084234375,1.5785960556447505,-1.5300373380504548,0.3122272627469152
1761475896374211600,5.094211669921875,3.6110137373983857,-1.3975485836207866,0.1326677642583847
1761475896384188400,5.1041884765625,5.116805838117003,-1.1003557353332638,-0.024564678544551133
1761475896394165500,5.11416552734375,6.1553644579678775,-0.6139427760906517,0.0826227536290884
1761475896404142300,5.124142333984375,6.750021957221627,-0.023249212031811475,0.20520839207321404
1761475896414119400,5.134119384765625,7.133321601861715,0.8404616672180593,0.02601429283097386
1761475896424096500,5.144096435546875,7.327997201743721,1.9059410272203385,-0.30168555659689006
1761475896434073300,5.1540732421875,7.08829062000215,2.407854337933659,-0.20402897303029893
1761475896444050400,5.164050537109375,6.784394182422757,2.243323554816097,0.38975758860781784
1761475896454027500,5.174027587890625,6.507930526170134,1.8609446782827377,1.035078084258735
1761475896464003600,5.184003662109375,6.3547127258360385,1.4933578588202594,1.4401622752055525
1761475896473980400,5.19398046875,6.391260541510581,1.2240247850999235,1.555641442645341
1761475896483957500,5.20395751953125,6.59605947600007,1.0145596123650669,1.57524937556535
1761475896493934300,5.213934326171875,6.894215324100852,0.7358839791513979,1.3938818778067827
1761475896503911400,5.223911376953125,7.165518821111321,0.4175358954366296,1.0027129610963166
1761475896513888300,5.23388818359375,7.351880181634425,0.09745477738417685,0.6157235220275818
1761475896523865300,5.243865234375,7.577133875131606,-0.03767075528986752,0.32333807402178644
1761475896533842700,5.2538427734375,7.754236408922075,0.02012486946620047,0.13979440126791595
1761475896543819500,5.263819580078125,7.8209549064546815,0.014405761167034506,0.10971548934653401
1761475896553796600,5.273796630859375,7.8623934167802325,0.04257891253232956,0.07603679936751723
1761475896563772400,5.2837724609375,7.872323274642229,0.10285437140539289,0.03281593566983938
1761475896573749500,5.29374951171875,7.729084432008862,0.3096658878263086,-0.050143064176291226
1761475896583726300,5.303726318359375,7.433380653235316,0.5920153872471302,-0.34937998551204796
1761475896593703400,5.313703369140625,7.273238022074103,0.9745190592039376,-0.8844080687113106
1761475896603680300,5.32368017578125,7.1563301370054475,1.2015987990844994,-1.365923026779294
1761475896613657600,5.33365771484375,7.013060314711928,1.1081033537853509,-1.65738887572214
1761475896623634700,5.343634765625,6.910942587018012,1.055415573562309,-2.052189426933229
1761475896633611500,5.353611572265625,6.755080994176864,1.1702864729106426,-2.348877832829952
1761475896643588600,5.363588623046875,6.418247917157411,1.3366224057540297,-2.2856543378062546
1761475896653565400,5.3735654296875,5.656177503478527,1.4303246256716549,-2.0765352020300925
1761475896663541500,5.38354150390625,4.472378638044,1.4799845825061202,-1.728038867484778
1761475896673518300,5.393518310546875,2.7053964380502697,1.113356086681783,-1.151402324220538
1761475896683495400,5.403495361328125,0.8493898006916045,0.6889002557888627,-1.1239759726345537
1761475896693472500,5.413472412109375,-0.8677689224690198,0.7305591308668256,-1.208668664405495
1761475896703449600,5.42344970703125,-3.105245650953054,0.6710438427112996,-0.3919543679997325
1761475896713426700,5.4334267578125,-5.722887817704677,0.1738968696169555,0.5208605877675115
1761475896723403500,5.443403564453125,-8.12672532121241,-0.5343325021505355,0.8998341859020292
1761475896733380600,5.453380615234375,-10.251101740217209,-1.2188809924706816,1.3437025732733308
1761475896743357400,5.463357421875,-11.393520547515154,-1.5155037857852875,1.7780523139320312
1761475896753334500,5.47333447265625,-10.993231774151324,-1.781179359911382,2.060272926276177
1761475896763310300,5.483310302734375,-9.979501306086778,-1.7214773170121014,2.167357482597232
1761475896773287400,5.493287353515625,-8.613519242596626,-1.5835433027885852,2.5073919860064984
1761475896783264500,5.503264404296875,-7.104277293685078,-2.332425295200944,3.580584404604137
1761475896793241600,5.51324169921875,-6.241757962307333,-3.7417265681967136,4.871155837801099
1761475896803218400,5.523218505859375,-6.037596156677603,-4.573126246428489,5.529062112650275
1761475896813195500,5.533195556640625,-5.1467392040878535,-4.676648872484266,5.280293103531003
1761475896823172600,5.543172607421875,-3.3134880038946863,-4.373623664781451,4.278208065074682
1761475896833149400,5.5531494140625,-2.2147528555005787,-3.7602278550490733,2.972152939280867
1761475896843126500,5.56312646484375,-2.0352146189957856,-3.0435800528958437,1.098916496310383
1761475896853103400,5.573103271484375,-1.5285335093587635,-2.0447244978800416,-2.144937560996413
1761475896863079400,5.583079345703125,-1.1080050810426474,-1.2190738846942781,-4.636400448726118
1761475896873056500,5.593056396484375,-0.552873536491394,-0.1556510188303888,-4.218356822963059
1761475896883033600,5.60303369140625,0.4453700241059065,1.3297832073837519,-2.2722420446559783
1761475896893010400,5.613010498046875,1.4598533563643694,2.4408804092228413,-0.08035773130655288
1761475896902987500,5.622987548828125,1.926913234230876,2.172927391684055,1.5484906941078602
1761475896912964600,5.632964599609375,1.8608312810361385,1.6080033519148826,1.1140861545220018
1761475896922941400,5.64294140625,1.2891542598754167,1.8246617971546948,-1.3976687028691173
1761475896932918500,5.65291845703125,0.8901695548474788,1.7856037522248922,-4.49194141664803
1761475896942895400,5.662895263671875,1.291565412670374,1.121517108240351,-7.63852504016161
1761475896952872400,5.67287255859375,2.05616914421916,0.4330938223134726,-7.471863820886612
1761475896962848500,5.6828486328125,2.2562416347086427,0.8550345285803079,-4.284118750423192
1761475896972825600,5.69282568359375,1.400278300845623,1.5997309058710931,-1.3150506254151462
1761475896982802400,5.702802490234375,-0.781946496015787,2.043376590402424,0.8883991841740906
1761475896992779500,5.712779541015625,-2.6762340564519165,2.3002914965763686,2.228425114761293
1761475897002756400,5.72275634765625,-3.020162644690275,2.0779688880950213,2.4997262736842036
1761475897012733400,5.7327333984375,-1.8500351617336273,1.3115328265525399,1.9123069089904425
1761475897022710500,5.74271044921875,0.04771744446456432,0.7020020216852426,-0.07660952122155576
1761475897032687400,5.752687255859375,1.7291782467782497,-0.2997081373103894,-2.7513690846741197
1761475897042664400,5.76266455078125,3.095494072267413,-1.9179856852792203,-3.677572075933218
1761475897052640500,5.772640625,4.440979875695705,-2.6957944969683885,-2.632883575025201
1761475897062617600,5.78261767578125,4.949757080829143,-2.6005671133100985,-0.6461513204518705
1761475897072594400,5.792594482421875,4.782050151893496,-2.198975879045576,1.2863088073164224
1761475897082571500,5.802571533203125,4.457686095824838,-1.6678928802102804,2.303771301516145
1761475897092548400,5.81254833984375,4.097555729848146,-1.1485567255310714,2.504732995930314
1761475897102525400,5.822525390625,3.7813989456325765,-0.7788770254425704,1.9504906553037464
1761475897112502500,5.83250244140625,3.5381150899261233,-0.6997566539112479,0.8757309873893856
1761475897122479400,5.842479248046875,3.4253602328836914,-0.6855966841988265,-0.13514739744598045
1761475897132456400,5.85245654296875,3.45132469522357,-0.5045627657761798,-0.7918580145034939
1761475897142433300,5.862433349609375,3.4975586231321096,-0.33764125159718095,-0.9430583375353365
1761475897152409600,5.87240966796875,3.328862683159113,-0.20138278763676062,-0.7338260967735201
1761475897162386400,5.882386474609375,2.9459903240203857,-0.15919674687953664,-0.3082351974360645
1761475897172363500,5.892363525390625,2.542963650125265,-0.055867825898109,-0.15202099176496267
1761475897182340400,5.90234033203125,2.237842639186978,0.18545895005697383,-0.21622794486805796
1761475897192317400,5.9123173828125,1.9506267027735709,0.345447103042528,-0.3870940684869885
1761475897202294500,5.92229443359375,1.7574819657206535,0.2291278680494055,-0.7760876139197498
1761475897212271400,5.932271240234375,1.627784741705656,-0.03485672078244388,-1.2034792790688573
1761475897222248400,5.94224853515625,0.9601981998413801,-0.6842126094292849,-0.8861261246755718
1761475897232225500,5.9522255859375,0.16742168225347995,-1.0376214120659977,-0.05598623724654317
1761475897242202600,5.96220263671875,0.1537339331626892,-0.6469152905616908,-0.06595993425026536
1761475897252178400,5.972178466796875,-0.5352601383894682,-0.6197173409041017,0.4339195325478911
1761475897262155500,5.982155517578125,-2.581763044118881,-1.0871510205190629,1.5690803315415978
1761475897272132400,5.99213232421875,-3.968631828293204,-1.6798123044542967,1.333936235409975
1761475897282109400,6.002109375,-3.9402883618623017,-2.5400606221601367,0.03705035836920142
1761475897292086300,6.012086181640625,-4.3226293906033035,-3.8051635598406195,-0.7341561324454844
1761475897302063400,6.0220634765625,-4.765491815802455,-3.6550258976042267,-0.6410567007265985
1761475897312040400,6.03204052734375,-4.863129183211923,-2.8110066840350627,0.6869825855992734
1761475897322017300,6.042017333984375,-5.035867676573991,-2.733033802038431,2.7682711196362972
1761475897331994400,6.051994384765625,-5.292527146682143,-2.1037053868979214,4.176356879362464
1761475897341971200,6.06197119140625,-6.325553851369023,-0.8566885793976485,4.735008122472465
1761475897351947000,6.071947021484375,-8.66858646530211,0.4758392505191266,4.1355975834727285
1761475897361924000,6.081924072265625,-11.690886706542969,0.9438324637129902,2.3998092709049583
1761475897371901200,6.091901123046875,-13.324466398262977,1.374242819096148,0.13487418826147912
1761475897381878000,6.1018779296875,-12.70857789493203,1.6297583798661828,-1.5452067040011286
1761475897391855400,6.11185546875,-10.418763660967349,1.752977055516839,-2.085388516701758
1761475897401832200,6.121832275390625,-8.193265539568662,1.5739843240655957,-1.6614942652143536
1761475897411809300,6.131809326171875,-6.456858510580658,1.6807641983516513,-0.2971889027647674
1761475897421786000,6.1417861328125,-4.222286271366476,2.191898341874778,1.0761688040599227
1761475897431763200,6.15176318359375,-1.244613691881299,2.3705492741510272,1.689404747055471
1761475897441739000,6.161739013671875,1.9102251342803238,1.962478468608856,1.2373556835770607
1761475897451716000,6.171716064453125,3.876549172401428,0.7091878415361046,-0.32487785080969334
1761475897461693200,6.181693115234375,4.0853520818352695,-0.7888454617492854,-1.1612541484102605
1761475897471670300,6.191670166015625,3.9292724623292683,-1.4546005504027009,-1.1787136711247264
1761475897481647400,6.2016474609375,4.003893111288547,-1.2780074274390936,-1.2024797466374932
1761475897491624200,6.211624267578125,4.221565555876493,-1.1046079859502613,-1.1317181111939252
1761475897501601300,6.221601318359375,4.6542280741006135,-0.995043522446975,-0.793491826250404
1761475897511578000,6.231578125,4.40040704228878,-1.0295889853231608,0.30709355312027037
1761475897521555200,6.24155517578125,3.2241806579351424,-1.3468772577866912,1.4289292257905006
1761475897531532300,6.2515322265625,1.9315408940315246,-1.5445520394846797,1.847243777449429
1761475897541508000,6.261508056640625,1.4553881936490536,-1.4914689763337372,1.2595602088615299
1761475897551485200,6.271485107421875,1.746945374137163,-1.5880698403023183,-0.33121443342007695
1761475897561462300,6.281462158203125,2.4346464832693337,-1.8630134473808109,-2.30298409666121
1761475897571439400,6.291439453125,3.6699914115458725,-2.252209018191695,-3.504649750436842
1761475897581416200,6.301416259765625,5.332957941269874,-2.5404005216389893,-3.6283214305520057
1761475897591393300,6.311393310546875,6.503259027227759,-2.421419921949506,-2.466304188814759
1761475897601370000,6.3213701171875,6.832947493189573,-2.0235174592003227,-0.516681438919343
1761475897611347200,6.33134716796875,6.738871033132076,-1.4740107687935233,1.1302286032885311
1761475897621324000,6.341323974609375,6.298038067933916,-0.670253788312152,2.1099571407690645
1761475897631300000,6.351300048828125,5.435347471642494,0.2394712203494273,2.2366358937457202
1761475897641277200,6.361277099609375,4.008031526267528,0.47707018055357037,1.0962902394600211
1761475897651254300,6.371254150390625,4.028661057320237,0.18294493967574088,0.7885434831280261
1761475897661231400,6.3812314453125,5.195276732763648,0.3893083835355937,-0.05096442702915519
1761475897671208200,6.391208251953125,5.844165588420629,0.3168454971320927,-0.4529656303340569
1761475897681185300,6.401185302734375,5.772586206853389,0.007188441066211089,-0.027917130777612327
1761475897691162000,6.411162109375,5.436314855369925,0.009843312089703977,0.3368571154821664
1761475897701139200,6.42113916015625,4.728214516809582,0.32900333324186504,1.0870011637195944
1761475897711116000,6.431115966796875,3.788677996724844,0.8636646289553492,1.764579230505228
1761475897721093000,6.441093017578125,2.8078087647765875,1.4496493577361107,1.7722411434352396
1761475897731069200,6.451069091796875,2.011661893972754,1.6395735253073274,1.4330239477582276
1761475897741046300,6.46104638671875,1.6169903759688138,1.1755744963161647,1.241318888119608
1761475897751023400,6.4710234375,1.0847364336580037,0.5736043724941089,0.7197033172663301
1761475897761000200,6.481000244140625,0.3604658815413713,-0.10825166387166828,-0.3674846742622554
1761475897770977300,6.490977294921875,-1.2764298028588295,-0.7583483244158327,-1.1984345628999173
1761475897780954000,6.5009541015625,-4.691166934919357,-0.505047370955348,-0.8203165586814284
1761475897790931200,6.51093115234375,-8.015043061837554,0.5049387594817206,0.02735299408882856
1761475897800908000,6.520907958984375,-9.007549540087581,1.171935920618102,0.7916671681065112
1761475897810885000,6.530885009765625,-7.880196784496307,-0.05633512374944984,1.2170733585268259
1761475897820861200,6.540861083984375,-6.238115221890807,-2.953522180829942,1.6501012029320001
1761475897830838300,6.55083837890625,-4.351316555905342,-4.0738676880076525,0.7577104649037122
1761475897840815000,6.560815185546875,-4.96345184418261,-3.236981102797389,-0.2350287991888821
1761475897850792200,6.570792236328125,-7.7608987894207235,-3.5488071643322705,0.4723110033277422
1761475897860769300,6.580769287109375,-9.876294614112377,-3.45166927087754,1.516791487508267
1761475897870746000,6.59074609375,-11.656724909222126,-2.031870277003944,1.4854903403155504
1761475897880723200,6.60072314453125,-14.398186347866057,-0.6439638203449547,0.43976244988981633
1761475897890700000,6.610699951171875,-16.453573401796817,1.2538631662636994,-0.8345625261768698
1761475897900677000,6.620677001953125,-15.853152516710757,3.0139880477085708,-1.5979916609883307
1761475897910654000,6.630654052734375,-13.631654863125085,2.958490324631333,-1.701441514068842
1761475897920630300,6.64063037109375,-13.015842347639799,1.9154001988306641,-1.2182868259698152
1761475897930607000,6.650607177734375,-13.595787430930137,1.8370353949069975,-0.6736728029754012
1761475897940584200,6.660584228515625,-12.637424045300483,2.1033204792335627,-0.02536591192483902
1761475897950561300,6.670561279296875,-10.057227519845961,2.356023174539953,0.5737203635565936
1761475897960538000,6.6805380859375,-6.458118155252933,2.6395138068199158,0.7138627745445817
1761475897970515200,6.69051513671875,-2.3729601346850395,2.3405619860358535,-0.1235784123411402
1761475897980492000,6.700491943359375,1.2970517351269721,1.348002900815755,-0.5881686121584847
1761475897990469000,6.71046923828125,3.965862363579869,0.7027988711513579,-0.2715253961328417
1761475898000446200,6.7204462890625,5.797609004428982,0.670523764359951,0.43419937240257855
1761475898010422300,6.73042236328125,6.683451928249001,0.7930725048597902,1.2349594360902905
1761475898020399000,6.740399169921875,7.122874442127347,0.9459352812111377,1.8270304259821772
1761475898030376200,6.750376220703125,7.648048655310273,0.8856464513998478,1.649755312103778
1761475898040353300,6.760353271484375,8.72805922949016,0.5902964545000344,0.781973530153185
1761475898050330000,6.770330078125,9.677516839608549,0.36576691055893895,0.14918775936672463
1761475898060307200,6.78030712890625,10.123902762758732,0.2395283756304532,-0.14102216209773905
1761475898070284000,6.790283935546875,10.296503893476723,-0.08958411707431077,-0.05164512103600427
1761475898080261000,6.80026123046875,10.559937387764453,-0.3357582873947918,0.2282145160641521
1761475898090238200,6.81023828125,10.593697034025192,-0.38923436845131215,0.5089778788046911
1761475898100214300,6.82021435546875,10.387221690756082,-0.25908172881901265,0.8918711711335927
1761475898110191000,6.830191162109375,10.108197828626633,-0.16808365329355002,1.0771101034980266
1761475898120168200,6.840168212890625,9.653789342540502,-0.1124967906281352,0.9746337716247886
1761475898130145000,6.85014501953125,9.096365887659788,-0.05350238454155624,0.7716111260928213
1761475898140122000,6.8601220703125,8.774132413879036,-0.07728964897282421,0.19312530170008538
1761475898150099200,6.87009912109375,8.774857221022248,-0.12907441594153643,-0.6008295389521867
1761475898160076000,6.880075927734375,8.866951567351817,-0.12210559984222054,-1.258644263060391
1761475898170053000,6.89005322265625,9.07320011612773,-0.08080109115988016,-1.7597538561753927
1761475898180030200,6.9000302734375,9.452587555760145,-0.2194613738313317,-2.2344797386251387
1761475898190006300,6.91000634765625,9.920678530240059,-0.37309009305387736,-2.450998190872371
1761475898199983000,6.919983154296875,10.32282725225687,-0.36940424414798617,-2.402979717634618
1761475898209960200,6.929960205078125,10.311218647527694,-0.393375486844033,-1.9429951849818228
1761475898219937000,6.93993701171875,9.91252328083515,-0.10178659604340791,-1.3932352504663168
1761475898229914000,6.9499140625,8.692664675503968,0.4675974918745458,-1.0715382947150618
1761475898239891200,6.95989111328125,6.432771532550454,0.533071834564954,-0.28697730535194277
1761475898249868000,6.969867919921875,4.402101571246981,-0.28116671937704085,0.16786401919350027
1761475898259845400,6.979845458984375,3.295735489583015,-1.005897436351329,-0.6725440181411803
1761475898269822200,6.989822265625,2.078991216880083,-1.5319167220562695,-1.653445252662897
1761475898279799300,6.99979931640625,0.10166063157618045,-2.601860075730085,-1.9564478101424871
1761475898289775000,7.009775146484375,-3.170679369372129,-3.6912393667578693,-2.279581886024773
1761475898299752200,7.019752197265625,-7.678134581494331,-3.923681218193471,-2.0791078289970755
1761475898309729000,7.02972900390625,-10.538768343007565,-4.023502943904698,-0.47604047217965123
1761475898319706400,7.039706298828125,-9.917881008476018,-4.019808765561878,1.103111756043136
1761475898329683500,7.049683349609375,-7.408164378914236,-2.704428469800949,1.2963574692524968
1761475898339660500,7.05966064453125,-5.951241815304756,-1.292922964759171,1.285245708129555
1761475898349637600,7.0696376953125,-6.308216932120919,-0.7658857341833413,1.5737603060513734
1761475898359614700,7.07961474609375,-7.919665456053614,-0.009180208538472652,1.4742324487201868
1761475898369591600,7.089591552734375,-10.239956076824665,0.46274479114636774,1.349444331795722
1761475898379567600,7.099567626953125,-11.81042844724655,0.32133535589724777,0.925804785721749
1761475898389544400,7.10954443359375,-11.999193946301936,-0.05684241568446159,0.33426717205420137
1761475898399521500,7.119521484375,-11.583652658748626,-0.49512204313799735,-0.16716595392674208
1761475898409498400,7.129498291015625,-11.764445279228687,-0.27122334444634616,-0.29037483883574605
1761475898419475500,7.139475341796875,-12.7407885581851,0.5802937505975365,0.15207827491015194
1761475898429452500,7.14945263671875,-13.402702315109968,1.313038701070845,1.1784753323242068
1761475898439429600,7.1594296875,-13.369951553630829,1.8309091671116648,2.248057743731141
1761475898449406700,7.16940673828125,-12.743453978002071,1.9517457699313758,2.7956238214641806
1761475898459383600,7.179383544921875,-11.832415822649,2.014277044907212,2.219017819468677
1761475898469359600,7.189359619140625,-11.090942791318893,1.9037471704378723,1.1259230150490998
1761475898479336400,7.19933642578125,-10.812808571505546,1.6590968486838042,0.53893787705414
1761475898489313500,7.2093134765625,-9.950636446130275,1.4616988381005822,0.4885165073931217
1761475898499290400,7.219290283203125,-8.501346569356322,0.6926159153111279,0.8939327798385173
1761475898509267500,7.229267333984375,-6.539015400263667,-0.03767930392250418,1.0084211826752871
1761475898519244500,7.23924462890625,-3.8045927742153403,-0.6177522513762116,0.5877450164515525
1761475898529221600,7.2492216796875,-0.3109311585217714,-0.9306686654310673,-0.07226444122195243
1761475898539198700,7.25919873046875,2.725915494465828,-0.8091936916425824,-0.6636568742651492
1761475898549175600,7.269175537109375,4.757830487394332,-0.6043330900937318,-0.7051985527042299
1761475898559151600,7.279151611328125,5.871458669015765,-0.5495980584846809,-0.15632263448163866
1761475898569128400,7.28912841796875,6.377184085363149,-0.1225508959243074,0.31406441504620014
1761475898579105500,7.29910546875,6.4277323693394655,0.3418172586401924,0.4977105983264744
1761475898589082400,7.309082275390625,6.105932026278972,0.41175848107896745,0.612404460607469
1761475898599059500,7.3190595703125,5.670586552581191,0.1918617115050554,0.7858043404877185
1761475898609036500,7.32903662109375,5.410935499441623,-0.38235856439769267,0.806310099030286
1761475898619013600,7.339013671875,4.801750877663493,-1.130079842467606,0.5070157484188675
1761475898628990700,7.34899072265625,4.42252593511641,-1.5032539605431259,0.017701076385378836
1761475898638967600,7.358967529296875,4.877545831099153,-1.6943332894988357,-0.5629204448617995
1761475898648943600,7.368943603515625,5.9169601909965275,-1.9667315960086882,-1.0344248810470105
1761475898658920400,7.37892041015625,6.925566155654192,-2.264904249113798,-1.276866294579953
1761475898668897500,7.3888974609375,7.790945552638172,-2.597258134892583,-1.197933335379511
1761475898678874400,7.398874267578125,8.726482773953675,-2.684593888518214,-1.0297386229269205
1761475898688851700,7.408851806640625,9.356514368927478,-2.5375448399469254,-0.682059742244333
1761475898698828500,7.41882861328125,9.38879283671975,-2.1917938585869967,-0.14655790405347943
1761475898708805600,7.4288056640625,9.243116537806392,-1.8041646603100001,0.051447278642654415
1761475898718782700,7.43878271484375,9.301516704326868,-1.4668293328568338,-0.21132614430114627
1761475898728759600,7.448759521484375,9.444997539022564,-1.2497056081928313,-0.7726249793104827
1761475898738735400,7.4587353515625,9.510900628519058,-1.0168996726851909,-1.230512393553555
1761475898748712400,7.46871240234375,9.600265257623791,-0.5381937076233327,-1.7214169651269913
1761475898758689500,7.478689453125,9.927143342339992,-0.18832192000634967,-2.4669395641088485
1761475898768666600,7.48866650390625,10.40663833888769,-0.18652553810887038,-2.9430624538749455
1761475898778643700,7.498643798828125,10.670568676781654,-0.11136851725056766,-2.851711619389057
1761475898788620500,7.50862060546875,10.355039084553718,0.03291603504344821,-2.159587725378573
1761475898798597600,7.51859765625,9.007891485393047,0.3954925520632416,-1.0853200787648558
1761475898808574500,7.528574462890625,7.133899694010615,0.7941178491942584,-0.05578574623838067
1761475898818551600,7.538551513671875,5.763457728502154,1.1213897555336356,0.20940964315533636
1761475898828527400,7.54852734375,4.693450077420473,1.2773740979716182,-0.20431860362663865
1761475898838504400,7.55850439453125,3.495390046921372,0.7603310957308859,-0.4048296316638589
1761475898848481500,7.5684814453125,1.6834510993480682,0.05309051580503583,-0.3981584833368659
1761475898858458600,7.578458740234375,-1.1853215449571608,-0.5101046543449164,-0.05786839773133397
1761475898868435700,7.588435791015625,-4.320185504582524,-0.3521507653996348,-0.21152283591702578
1761475898878412500,7.59841259765625,-7.178882160553336,-0.002402823358029127,-0.20914017856419084
1761475898888389600,7.6083896484375,-10.531978536736965,-0.634010727737844,0.13406009539961813
1761475898898366500,7.618366455078125,-12.7432879737854,-1.7508970343723893,0.7099270425308495
1761475898908343600,7.628343505859375,-12.1119809520483,-1.7342460515618323,1.4672683087959886
1761475898918319400,7.6383193359375,-9.262988528490066,0.249231950455904,0.9950324895963072
1761475898928296400,7.64829638671875,-5.720165114742517,1.294374040350318,0.27946692972183224
1761475898938273800,7.658273681640625,-4.489396992862225,0.4418151081033051,0.7677369150079786
1761475898948250600,7.668250732421875,-6.3432023207843296,0.8108147900383919,0.9381612862087786
1761475898958227700,7.678227783203125,-10.089825136590003,2.459460314269364,0.2071456802787259
1761475898968204500,7.68820458984375,-15.097475603461264,4.1116304324299096,-0.7105888674404471
1761475898978181600,7.698181640625,-18.928489351612328,4.633845211285353,-1.2595169542416929
1761475898988158500,7.708158447265625,-20.21173584874868,4.125955018119514,-1.049819434055686
1761475898998135600,7.718135498046875,-18.980842639183997,3.101855423992872,-0.5580953993255272
1761475899008111400,7.728111328125,-15.811508839201926,1.7551023771077394,-0.6606858225651085
1761475899018088700,7.738088623046875,-11.658981163716316,0.7866864570844918,-0.8470598964393138
1761475899028065500,7.7480654296875,-7.34096248177886,0.48749870865270495,-1.2491744239255784
1761475899038042600,7.758042724609375,-3.5101252592384813,0.38427776895724236,-1.8464795150786637
1761475899048019700,7.768019775390625,-0.6453852314502,0.2667025060210377,-1.689622481459379
1761475899057996500,7.77799658203125,1.2266092486351727,0.4598245197854936,-0.4030896926613524
1761475899067973600,7.7879736328125,2.5534441276073454,0.979209335912019,1.135778492500633
1761475899077950500,7.797950439453125,3.554055586379766,1.2590893764793871,2.655295313319564
1761475899087926500,7.807926513671875,4.433403302961588,0.6571496112629771,3.4471886183321474
1761475899097903600,7.817903564453125,5.336020835971832,-0.38504926478639245,3.284877995482087
1761475899107880700,7.827880615234375,6.350746744814515,-1.6034112018190323,2.51139829903841
1761475899117857500,7.837857421875,7.758678190761804,-2.4336482660122214,1.4738541169270871
1761475899127834600,7.847834716796875,9.010040772381425,-2.969216301307082,0.3982406086623668
1761475899137811700,7.857811767578125,9.501602638819813,-3.4621944642841815,-0.08516096686981618
1761475899147788500,7.86778857421875,9.41074397176504,-3.830273158916831,-0.1815717881590128
1761475899157765600,7.877765625,9.181413822609185,-3.9141169787734746,-0.30672428141646085
1761475899167742500,7.887742431640625,9.1980417168051,-3.7003091006591915,-0.9417968662321567
1761475899177719600,7.897719482421875,9.148602855375408,-3.4575618360474705,-1.5758455878928304
1761475899187695600,7.907695556640625,8.62447785898447,-3.381461177663505,-2.0654570509158074
1761475899197672700,7.917672607421875,7.792702040916681,-3.232808493287861,-2.087550517041236
1761475899207649500,7.9276494140625,7.0737179047703735,-2.72553847784698,-1.7813976788371801
1761475899217626600,7.937626708984375,6.969800434178113,-2.147632791429758,-1.1918812687989324
1761475899227603500,7.947603515625,7.35696376850903,-1.6216222735531627,-0.5389689297795296
1761475899237580500,7.95758056640625,7.945739808508753,-1.1057146320179103,0.004534355494007468
1761475899247557600,7.9675576171875,8.686217399060725,-0.8141746949255466,0.2603490453410894
1761475899257534500,7.977534423828125,9.519740937578678,-0.5783650110246613,-0.11194047191962599
1761475899267510500,7.987510498046875,9.57809258878231,-0.402425164338015,-0.41266273644231255
1761475899277487600,7.997487548828125,7.872232673749327,-0.31235231389869,-0.09538293954618275
1761475899287464700,8.007464599609374,5.621417155742645,0.17449845223929733,0.4768911341922357
1761475899297441500,8.017441650390625,3.758008133172989,0.5182418201038613,1.1149020009495316
1761475899307418600,8.027418701171875,2.250076097816229,0.7411427033971995,1.2327274392545222
1761475899317395700,8.037395751953126,0.5174632004141807,0.8377716244164853,0.8340180440366267
1761475899327372500,8.04737255859375,-1.4323445871919394,0.9174868931010365,0.20950999825727193
1761475899337349600,8.057349609375,-3.573960894811153,0.9925937912072986,-0.5647076570721343
1761475899347326500,8.067326416015625,-5.03870553034842,0.953074412376061,-0.8632644506566226
1761475899357302800,8.077302734375,-6.5234162645936005,0.15740202721618116,-0.17007367633329704
1761475899367279600,8.087279541015626,-8.560276897230743,-0.911414441319555,0.9612197249088436
1761475899377256700,8.097256591796874,-10.193072745096682,-1.5599762569792568,1.1000482037540524
1761475899387233500,8.107233642578125,-11.220832907557487,-2.599647075855732,0.6004310776865109
1761475899397210600,8.117210693359375,-10.643018991076946,-2.030175309654325,-0.6853905671674758
1761475899407187700,8.127187744140626,-8.301412026032805,0.3502233044683933,-1.5671350426927209
1761475899417164500,8.13716455078125,-6.103216337579489,1.2455819523915648,-1.1861948937255888
1761475899427141600,8.1471416015625,-5.116605931630731,0.9570695464268326,-0.7672017852179706
1761475899437118500,8.157118408203125,-5.700553236299752,0.48976709197610613,-0.34079945989977567
1761475899447094800,8.1670947265625,-6.7389014282703394,-0.3925289530172944,0.2543689662844874
1761475899457071600,8.177071533203126,-6.863440831130743,-1.520509777379036,0.7176118248797952
1761475899467048700,8.187048583984375,-6.2981841984063385,-2.4078218969687817,0.6964672569770366
1761475899477025500,8.197025634765625,-6.4692918756961815,-3.0526538784503936,-0.26291966301407665
1761475899487002600,8.207002685546875,-7.890807025837898,-2.9178292284190652,-0.6673309596680105
1761475899496979700,8.216979736328126,-8.70926275908351,-2.296043776004016,-0.5627969646126032
1761475899506956500,8.22695654296875,-8.531337802994251,-1.6616837964370845,-0.347621487939544
1761475899516933600,8.23693359375,-8.082026932308077,-1.0764499590888619,-0.22231749391481279
1761475899526909700,8.24690966796875,-7.398325706467032,-0.8533610424101352,-0.1668152773255482
1761475899536886800,8.25688671875,-6.86448946340084,-0.6942679203018546,-0.1198828822914511
1761475899546863600,8.266863525390624,-6.837560539942979,-0.5500640320286154,-0.13022749496679753
1761475899556840700,8.2768408203125,-6.849236949211359,-0.5815469655290245,-0.11644841433074325
1761475899566817500,8.286817626953125,-6.59868865545988,-0.7453118788406252,0.08531451346371323
1761475899576794600,8.296794677734376,-6.158770467019081,-1.3831199530348182,0.8387833587422966
1761475899586771500,8.306771484375,-5.53054446016252,-1.8628709701701998,1.8041379184335469
1761475899596748500,8.31674853515625,-4.9513861433357,-2.2020392121389505,2.520643974028528
1761475899606725600,8.3267255859375,-4.1264480623334645,-2.566262984909117,2.3257792813152074
1761475899616701700,8.33670166015625,-2.8352245949685573,-2.495120533454418,0.9679154962204396
1761475899626678800,8.3466787109375,-1.4974381138712167,-1.6449457198649644,-0.520118025771901
1761475899636655600,8.356655517578124,-0.3264075445950031,-0.5451470338925719,-1.343488784392178
1761475899646632700,8.3666328125,0.7649410006791353,0.48041854113340376,-1.7127014514908194
1761475899656609500,8.376609619140625,1.487166895225644,1.4901625699102878,-1.717755373879522
1761475899666586600,8.386586669921876,1.5053466950386762,2.4184826994538304,-1.5486962996825575
1761475899676563500,8.3965634765625,1.4203759169787167,3.01701967048943,-1.2058475425701587
1761475899686540500,8.40654052734375,1.8711071758568285,3.1601153052598234,-0.7458624253954738
1761475899696517600,8.416517578125,3.0156974819749593,3.0819997999221083,-0.8449562021583318
1761475899706493700,8.42649365234375,4.596030152153968,3.004962152948975,-1.3566663920037447
1761475899716470500,8.436470458984376,6.15487404410243,2.8351199655503034,-1.722186342064291
1761475899726447600,8.446447509765624,7.263066172149777,2.459439271481335,-1.597970618200302
1761475899736424700,8.4564248046875,7.985766698470711,1.8698752959743141,-1.0861162706438452
1761475899746401500,8.466401611328125,8.357606791463494,1.290377371929586,-0.5218063441850245
1761475899756378600,8.476378662109376,8.854702911153435,0.9530813535735011,-0.2120142726957798
1761475899766355500,8.48635546875,9.505270513677596,0.7238833063647151,-0.046670273499190805
1761475899776332500,8.49633251953125,10.06051487095356,0.4784796820253133,-0.03814341430291533
1761475899786309400,8.506309326171875,10.443411780011653,0.2268967845290899,-0.3557518586315214
1761475899796285700,8.51628564453125,10.634373912328481,0.00956716202944517,-0.768305070284754
1761475899806262500,8.526262451171876,10.75998299024701,-0.12607406508177518,-1.0053548539072275
1761475899816239600,8.536239501953125,10.901791507816315,-0.09769085116237401,-1.215782149672508
1761475899826216700,8.546216796875,10.82111813468933,0.05276011480689048,-1.41028005490005
1761475899836193500,8.556193603515625,10.611312185692787,0.1759153698325157,-1.6934218737423419
1761475899846170600,8.566170654296876,10.620616605132817,0.24314386271387337,-2.0801985468432305
1761475899856147500,8.5761474609375,10.671183593809603,0.33433190785348416,-2.254006715263426
1761475899866124500,8.58612451171875,10.472067381131648,0.5775277930155396,-2.2166633652970194
1761475899876100600,8.5961005859375,10.083739094674586,0.9813789350360631,-1.9081544654861091
1761475899886077700,8.60607763671875,9.658992756402492,1.4058818199411034,-1.5076348059758542
1761475899896054500,8.616054443359374,9.49810135270059,1.8116645145460961,-1.3089186985313892
1761475899906031600,8.626031494140625,9.628477791151404,2.1686413849279282,-1.3510001829355955
1761475899916008700,8.6360087890625,9.55707142806351,2.0399127136841417,-1.3707120146214962
1761475899925985500,8.645985595703126,8.762218688723445,1.6386229465842246,-1.3866063338458536
1761475899935962600,8.655962646484374,7.432464122912287,1.5037278616651892,-1.108410081646964
1761475899945939500,8.665939453125,5.772109821513295,1.47553666318655,-0.3292131400676444
1761475899955916500,8.67591650390625,3.125779904937744,1.6925576581284403,0.5519355615215376
1761475899965892600,8.685892578125,-2.503949736598134,2.31439805560112,0.19543251919653265
1761475899975869700,8.69586962890625,-10.36242042697668,2.1854608561731874,-1.1298925762671976
1761475899985846500,8.705846435546874,-15.507122572278975,0.8177597138054669,-1.538576618336886
1761475899995823600,8.71582373046875,-15.170875186192989,-0.8119898982323706,-1.312674836194515
1761475900005800400,8.725800537109375,-11.990633038705587,-1.6023526326768098,0.23760259519964455
1761475900015777500,8.735777587890626,-10.05101989737749,-1.7823764607414603,2.323235003659874
1761475900025754600,8.745754638671874,-10.82955161651373,-0.6936996188946067,2.909929122819006
1761475900035731500,8.7557314453125,-12.732753720289468,0.6193034263409674,2.150935924628377
1761475900045707800,8.765707763671875,-14.750727866148948,0.616457243129611,1.8350616106159985
1761475900055684600,8.7756845703125,-16.900750183063746,0.7641387443855404,1.1790033747863025
1761475900065661700,8.78566162109375,-18.171508954548834,1.040737571325153,0.12331486603412777
1761475900075638500,8.795638427734374,-17.474728466904164,1.0423021902933716,-1.6389973328545688
1761475900085615600,8.80561572265625,-15.385123501551151,0.8147866893440484,-3.800970199804008
1761475900095592400,8.815592529296875,-13.743989448928833,0.6023380438189954,-4.593737365041673
1761475900105569500,8.825569580078126,-12.833755595695973,0.17224829869233071,-3.5352620385825633
1761475900115546600,8.835546630859374,-11.230051986801623,-0.5341567071922123,-2.3862157759688793
1761475900125522700,8.845522705078125,-8.70291894301474,-1.0661477607831358,-1.5818518425703048
1761475900135499500,8.85549951171875,-5.366341739955544,-1.191764364420995,-0.8027787100337446
1761475900145476600,8.8654765625,-1.810489917808771,-1.145675251810625,-0.28208564258655533
1761475900155453700,8.87545361328125,1.4392968905478716,-1.0870650227360428,-0.36306064727492626
1761475900165430500,8.885430419921875,4.269751202374697,-0.9641696607556194,-0.40868981422334905
1761475900175407600,8.89540771484375,6.071496088191867,-0.6118747376449406,0.18977113243397326
1761475900185384400,8.905384521484375,6.633130438765883,0.08421535658277571,1.1656797097675502
1761475900195361500,8.915361572265626,6.477739386045933,0.7412359346386045,2.105637377873808
1761475900205338400,8.92533837890625,6.024270226636529,0.9962222839027642,2.582837979874015
1761475900215314700,8.935314697265625,5.591799431592226,0.9134778035901486,2.470138360150158
1761475900225291500,8.94529150390625,5.620620452407002,0.6646746730055659,2.0930264642342924
1761475900235268600,8.9552685546875,5.941456334349513,0.01289355737264268,1.7350459697678684
1761475900245245700,8.96524560546875,6.3645665958523745,-0.7259492989838123,1.5625325173333287
1761475900255222500,8.975222412109375,6.796289787399768,-1.4605742179848253,1.398366622005403
1761475900265199600,8.98519970703125,7.366912331071496,-2.2622945050068197,1.1767109530001878
1761475900275176400,8.995176513671876,7.948564218279719,-2.8668229715421796,1.1599183697618543
1761475900285153500,9.005153564453124,7.859497695338725,-3.4135680882811545,1.7752949780479073
1761475900295129600,9.015129638671874,6.933934755548834,-3.5474303230211137,2.186660148960352
1761475900305106700,9.025106689453125,5.7232747711956495,-3.339224210436642,2.243532959783077
1761475900315083300,9.035083251953125,4.894586982271075,-3.1281238377153873,2.0152289388045665
1761475900325060000,9.04506005859375,4.4027749404639005,-2.952233894585073,1.6939045426927506
1761475900335037200,9.055037109375,4.29632122939229,-2.597722245272994,1.431233411079645
1761475900345014000,9.065013916015625,4.562433002978563,-2.186764632248133,1.5077408966988324
1761475900354991000,9.0749912109375,4.9601837822973724,-1.8470647676207124,1.3835446081876754
1761475900364968000,9.084968017578126,5.496339992743731,-1.5038329294748602,0.9993494029473513
1761475900374945300,9.0949453125,6.210344002389908,-1.0818198886241763,0.5864520174989476
1761475900384921000,9.104921142578124,6.643392305061221,-0.5361582562729716,0.5875303507875651
1761475900394898200,9.114898193359375,6.235540987488627,-0.0919437588777393,1.0428154005125165
1761475900404875300,9.124875244140625,4.541176279938221,0.2856535094022751,1.4308267299748956
1761475900414852000,9.13485205078125,2.330211126282811,0.7974800921689719,1.0956060565881431
1761475900424829200,9.1448291015625,-0.4044815488785505,0.7566190164051949,0.38607634281180797
1761475900434806000,9.154805908203125,-3.762606566879153,0.31230456576682625,-0.6279099266447127
1761475900444783000,9.164783203125,-6.372997155067324,0.5016112590268254,-2.0742739790998397
1761475900454760200,9.17476025390625,-8.79605782996118,0.8439242287620902,-2.5877175686091185
1761475900464736300,9.184736328125,-11.182476581156253,-0.12399842785149812,-1.3215380877383052
1761475900474713000,9.194713134765625,-11.897124733924866,-1.8153319510124624,0.06219532101973891
1761475900484690200,9.204690185546875,-11.569969001311064,-2.423706279321015,0.7270511958111077
1761475900494667300,9.214667236328125,-13.016018873250484,-3.043752779114246,2.1633149292081595
1761475900504644000,9.22464404296875,-14.528157128125429,-1.0577749231047928,1.5924093308113514
1761475900514621200,9.23462109375,-14.15123753991127,1.4341478372216223,0.3825417024122551
1761475900524598000,9.244597900390625,-13.349465230441092,0.6193842364922165,0.8847824549816549
1761475900534575000,9.2545751953125,-12.324171750354767,-0.12663812870532273,0.6339597282029688
1761475900544551200,9.26455126953125,-10.857108316481114,-0.32822190054059025,-0.1691758689770475
1761475900554528300,9.2745283203125,-9.821323837518692,-0.8213944170460105,-0.684218527713418
1761475900564505000,9.284505126953125,-8.718373117256164,-1.411593183325231,-0.9155802557621151
1761475900574482200,9.294482177734375,-7.05692225279212,-2.1901243179395795,-1.0438006852228194
1761475900584459000,9.304458984375,-4.737089312660694,-3.0027275257647035,-1.0038421112567186
1761475900594436000,9.31443603515625,-1.9965882434815168,-3.352937678490579,-0.6226229261524975
1761475900604413200,9.3244130859375,0.6268301685839891,-2.9367388038113713,-0.4446998697593808
1761475900614390000,9.33439013671875,2.8965473709374665,-2.030655202125758,-0.7567066946886479
1761475900624366300,9.344366455078125,4.914041039803624,-0.9683468733750283,-1.0688603807426988
1761475900634343200,9.35434326171875,6.238364812737703,0.20348887480422853,-1.2123499102015047
1761475900644320300,9.3643203125,6.617894875711202,1.4574867733635009,-1.1122165612578392
1761475900654297000,9.374297119140625,6.256995863449573,2.311067596004158,-0.8003000449605285
1761475900664274200,9.384274169921875,5.457130848905444,2.401632248548418,-0.39459249795097856
1761475900674251000,9.3942509765625,4.851186231961846,1.5567019114837048,-0.06689599125767126
1761475900684228000,9.40422802734375,5.150992769879102,0.18286701560132204,0.056202181552164256
1761475900694205200,9.414205078125,6.263849967128038,-0.8965634936682879,0.01109360441174358
1761475900704182300,9.424182373046875,7.494692323288321,-1.370046536450088,-0.44030755308456715
1761475900714158300,9.434158447265625,8.405466859269142,-1.8311131652511656,-0.7533105494443326
1761475900724135200,9.44413525390625,8.84538680127561,-2.3660966786563393,-0.41269978051707146
1761475900734112300,9.4541123046875,8.47771902553141,-2.818991837570071,-0.23243330280296504
1761475900744089000,9.464089111328125,7.444905671334266,-2.8440985140368342,-0.3608322306357324
1761475900754066200,9.474066162109375,6.415986986488104,-2.400465981248021,-0.5203526382453739
1761475900764043000,9.48404296875,5.766400796216726,-1.8684110686406492,-0.5716767288997769
1761475900774020000,9.49402001953125,5.71199057611525,-1.4323138997927307,-0.5209153866946697
1761475900783997200,9.5039970703125,6.267753404307365,-0.9010339901458472,-0.6314983795907348
1761475900793973200,9.51397314453125,7.147379937830567,-0.3345219505328685,-0.830714983903244
1761475900803950000,9.5239501953125,8.364563186472655,0.24085626323334872,-1.2732127405084668
1761475900813927200,9.53392724609375,9.729282098159194,0.5472297584507614,-1.5122710874743759
1761475900823904300,9.543904296875,10.66287169253826,0.8148841583691537,-1.1365079758189618
1761475900833881000,9.553881103515625,10.507204160964488,1.209389964417368,-0.46054662351496517
1761475900843858200,9.563858154296875,9.334693582263588,1.662937157499045,0.05382087590619922
1761475900853835000,9.5738349609375,7.63210757433474,1.9375081318728624,0.30374446188807486
1761475900863812000,9.58381201171875,5.860983452230691,2.1521422316782175,0.22394611802995204
1761475900873788200,9.5937880859375,4.70673450640738,2.367087589389831,-0.1271530194249004
1761475900883765200,9.60376513671875,4.256108461469411,2.280950544029474,-0.4528447439007461
1761475900893742000,9.6137421875,3.6328216645807028,1.8542732376947997,-0.6046732453009114
1761475900903719200,9.62371923828125,1.9665210219979286,1.1024055074699222,-0.7234919689595699
1761475900913696300,9.6336962890625,-0.3006920885801315,0.4880915599793195,-0.875780306423828
1761475900923673000,9.643673095703125,-2.5672096181094646,0.11717647287696599,-0.541658168863505
1761475900933650200,9.653650146484376,-4.805197218725085,-0.5387772065997123,0.17302337471805512
1761475900943627000,9.663626953125,-7.7004481201112265,-1.9878209996581075,1.5603732934728265
1761475900953603300,9.673603271484374,-10.85250462207794,-4.377573863711953,2.591621590310335
1761475900963580200,9.683580078125,-13.026832528209685,-5.27347231760025,1.7153990200117228
1761475900973557200,9.69355712890625,-15.267000979995727,-5.725349823904037,1.8557984014354645
1761475900983534000,9.7035341796875,-17.1487265805006,-4.690223224328458,1.532743089877814
1761475900993511200,9.71351123046875,-17.833062597113848,-1.4090946445077657,0.9869644800834357
1761475901003488000,9.723488037109375,-18.05417670658827,-1.456983646146953,2.529287591472268
1761475901013465000,9.733465087890625,-17.741471524131295,-2.541540631584823,2.7457106205210087
1761475901023442200,9.743442138671876,-16.350201874649525,-2.6365616790160535,1.4422637775294482
1761475901033418200,9.753418212890624,-15.130073220205306,-2.461699325367808,0.08080268032876774
1761475901043395300,9.763395263671875,-13.879512018096445,-1.7678031609877942,-1.02720084807761
1761475901053372200,9.7733720703125,-12.06662439149618,-1.3634601437970995,-1.4396153088472783
1761475901063349200,9.783349365234375,-10.209034868860245,-1.763236291463673,-1.3650370377250014
1761475901073326000,9.793326171875,-7.9854685923069715,-2.2795544134959576,-1.6798961833454666
1761475901083303200,9.80330322265625,-4.918911276188492,-2.13283065135628,-1.9218257018335163
1761475901093280000,9.813280029296875,-1.4277052369534968,-1.2071022918716072,-1.7583657628178595
1761475901103257000,9.823257080078125,1.4405729018330573,0.045479602409899234,-1.0612423800196498
1761475901113233200,9.833233154296876,3.224220405423641,1.2771341517359018,0.1995684134248644
1761475901123210200,9.843210205078124,4.267504884752631,2.412530805312097,1.0703173746179788
1761475901133187300,9.853187255859375,4.967859723752737,3.2427059101849793,1.374128837327659
1761475901143164200,9.8631640625,5.277553449434041,3.6430320929497477,1.32745081891343
1761475901153141200,9.873141357421876,5.2629596914142365,3.342596609479189,1.1504559832811354
1761475901163118000,9.8831181640625,5.534464263954758,2.408491174532473,0.9385344303701072
1761475901173095200,9.89309521484375,6.013296412679552,1.3392574304327367,0.9009639936495571
1761475901183072000,9.903072021484375,6.692317956271768,0.6718710873156786,0.5768401395449414
1761475901193048300,9.91304833984375,7.4551277901411055,0.2919467643275857,-0.009270809431374073
1761475901203025200,9.923025146484376,8.247251396778225,-0.14181553183197973,-0.3438950512949377
1761475901213002200,9.933002197265624,8.860952034676075,-0.6825676917664706,-0.29736794912610204
1761475901222979000,9.94297900390625,9.21501272535026,-1.039998297265172,-0.17478073977939784
1761475901232956200,9.9529560546875,9.178518685689568,-1.056863215087354,0.021398396533355117
1761475901242933200,9.962933349609376,8.929745584917068,-0.9142708536639809,0.21645970779731868
1761475901252910000,9.97291015625,8.692571736523508,-0.5652195155844092,0.042230208692513406
1761475901262887200,9.98288720703125,8.550687815630436,-0.11710618411973119,-0.29760844335108994
1761475901272863200,9.99286328125,8.390796528881788,0.17278613189607858,-0.5591025670740754
1761475901282840300,10.00284033203125,8.195181602323055,0.4695971412591636,-0.6309191914632916
1761475901292817200,10.012817138671876,8.113831937369703,0.791655696864426,-0.5382658230114727
1761475901302794200,10.022794189453125,8.195137178659438,1.130495729792118,-0.33581184421293436
1761475901312771000,10.03277099609375,8.256928741183877,1.4938291295938193,-0.19797281479649245
1761475901322749200,10.042749267578126,8.059739112654327,1.7205850443474948,0.06724127929769456
1761475901332726000,10.05272607421875,7.6144778096199035,1.8806031723462044,0.34528402143530545
1761475901342703000,10.062703125,7.131873741140962,1.9197418812967835,0.4442918734803796
1761475901352679000,10.072678955078125,6.121804718193411,1.7179506041906774,0.3880349295336753
1761475901362656000,10.082656005859375,4.8718894127726555,1.4937057954750954,-0.2364086361747235
1761475901372633000,10.092633056640626,3.944180108603835,1.36206503617689,-1.2641114424251019
1761475901382610200,10.102610107421874,2.8866981770962474,1.0015199519194662,-1.7816437625527382
1761475901392587000,10.1125869140625,1.423122585338354,0.412860085645318,-1.848847413253784
1761475901402564000,10.122564208984375,0.10880758072137832,-0.4344482325971126,-1.6353107532963156
1761475901412541200,10.132541259765626,-0.5853752916455268,-0.7256780808269977,-1.4445371292889118
1761475901422518000,10.14251806640625,-1.1936650104105473,-0.5118307474851608,-1.5133987763300538
1761475901432494000,10.152494140625,-3.422960770526528,-1.7127122651457785,-0.8112313349500297
1761475901442471000,10.162470947265625,-6.849310598969459,-3.477216676849127,-0.579911619412154
1761475901452448300,10.1724482421875,-9.557346153351665,-4.589927451364696,-1.0014628149047493
1761475901462425000,10.182425048828126,-10.336860453784466,-4.50616137291938,-0.7764307282689958
1761475901472402200,10.192402099609374,-9.230260563364624,-2.4838822233423588,0.4853844929777085
1761475901482379000,10.20237890625,-7.762763414248823,-1.5922759136900304,2.4871768809735775
1761475901492356000,10.212356201171875,-7.378592831993102,-2.299591239352524,3.7759132076978683
1761475901502333200,10.222333251953126,-7.771410246562957,-2.96632934769392,3.8682039533823724
1761475901512309000,10.23230908203125,-8.15777980016768,-3.3791552388086914,3.2563857682302593
1761475901522285800,10.242285888671875,-8.81981922929883,-3.347068494196236,1.5482519169159232
1761475901532263200,10.25226318359375,-9.58917103215754,-3.2623940687343476,-0.5099626520583406
1761475901542240300,10.262240234375,-9.850562791484593,-2.8680028289765116,-2.130989407403767
1761475901552217000,10.272217041015624,-10.005964950120449,-2.1006714260295034,-2.439359921657294
1761475901562194200,10.282194091796875,-11.001488730365038,-1.5457982401534913,-1.7414640201166272
1761475901572171000,10.2921708984375,-11.671604498445987,-0.9383037634193897,-1.7198915091253817
1761475901582148000,10.302148193359375,-10.945291626846789,-0.3052135115273297,-1.7232833435207604
1761475901592124000,10.3121240234375,-9.110473323467373,0.11106997269541025,-1.4405956981867551
1761475901602101000,10.32210107421875,-6.876755070734023,0.276598973070085,-1.119823821391165
1761475901612077800,10.332077880859375,-4.364236243233084,0.23809870815351605,-0.7533470089972019
1761475901622055200,10.34205517578125,-1.761086127692461,0.12381591089144349,-0.9223493115056306
1761475901632032300,10.3520322265625,0.6092553489267826,-0.06026946752369403,-1.5507754440441728
1761475901642009000,10.362009033203124,2.840834836065769,-0.17482479811683296,-2.124418066189438
1761475901651986200,10.371986083984375,4.644225735524296,0.11562164465039967,-2.049452549315244
1761475901661963000,10.381962890625,5.694892141798138,0.6099613052390516,-1.0989464530572295
1761475901671939000,10.39193896484375,6.353442559769749,0.7847638915240764,0.4181297696765512
1761475901681916000,10.401916015625,6.933059141758084,0.5301943794324994,1.771148818153888
1761475901691893000,10.41189306640625,7.472978504130244,0.10569631683304906,2.492871877744794
1761475901701870000,10.4218701171875,8.280375667744874,-0.5308877685241401,2.1051627460993827
1761475901711847200,10.43184716796875,9.506500932255387,-1.3366760356374083,0.7925752228621393
1761475901721824300,10.44182421875,10.352923115313052,-2.3572844266474244,-0.5184798301108181
1761475901731801000,10.451801025390624,10.366853440988063,-3.3399817508056757,-1.2943161726832388
1761475901741777000,10.46177685546875,9.505614797070622,-3.6281162633687254,-1.730330339422822
1761475901751754000,10.47175390625,8.214545058962702,-2.8567522439047695,-1.7259668835163116
1761475901761731000,10.48173095703125,7.011168217355013,-1.9969779734514652,-1.1163772611338645
1761475901771708000,10.4917080078125,6.174200675863027,-1.6824867843605578,-0.1627963240077719
1761475901781685000,10.50168505859375,5.795829719796776,-1.1580263454701751,0.48504013651944694
1761475901791662000,10.511662109375,5.718538974845409,-0.22450638226121664,0.46149785982519387
1761475901801639200,10.52163916015625,5.819467200493812,0.44125199432782825,0.6885813990980386
1761475901811616000,10.531615966796876,6.29728637278378,0.9087583738528191,0.8639918150831013
1761475901821592000,10.541592041015624,6.96355949396193,1.5596698213785887,0.4470985283989459
1761475901831569000,10.55156884765625,7.054061602663993,2.0042831818982956,0.36475020779706535
1761475901841546000,10.5615458984375,6.125524615499377,1.9279386317558584,0.7065628267947583
1761475901851523000,10.571523193359376,4.624485846787691,2.1242802651539443,0.8534532507382333
1761475901861500000,10.5815,2.935225184378028,2.5149369945585724,0.9843445799086242
1761475901871477200,10.591477294921875,0.8516776193678378,2.4926053357630966,0.978942501669377
1761475901881454000,10.6014541015625,-1.5746014330506324,2.5051173190727827,0.5354730870204046
1761475901891431200,10.61143115234375,-3.211189658936858,2.4363730148009957,0.3359399275720119
1761475901901407000,10.621406982421876,-3.777446408614516,1.901403237660229,0.6145676299907267
1761475901911384000,10.631384033203124,-4.375458478993177,1.2499487692989408,0.4129464487545192
1761475901921361000,10.64136083984375,-5.678825388616323,-0.14423559858575463,0.42748971869610247
1761475901931338000,10.651337890625,-7.540486690735817,-1.9227382866337894,1.0124082795500755
1761475901941314800,10.661314697265626,-10.361886173969507,-1.4777918947674333,0.8614428612526506
1761475901951292200,10.671292236328124,-14.171435109287499,-1.7657560191996395,2.2829857031188903
1761475901961269200,10.681269287109375,-16.54646094433069,-1.0696981467410922,3.4964340030163523
1761475901971246000,10.69124609375,-16.87619792560935,0.8261533020108938,4.87360586130172
1761475901981222100,10.70122216796875,-15.675234574884175,0.5395969985499978,5.866747422584891
1761475901991199000,10.711198974609376,-13.18173199802041,-0.07970131322443484,4.80968342422843
1761475902001176000,10.721176025390625,-10.20423009892702,0.30599662472903727,2.1426212468780577
1761475902011153000,10.73115283203125,-8.410362230095267,0.822795808276534,-0.6188982796061784
1761475902021130000,10.7411298828125,-8.475794194948673,0.18119623284488914,-1.7443593031667173
1761475902031107000,10.751107177734376,-8.628217045512795,-0.6393830684259534,-1.955068776874244
1761475902041084200,10.761084228515625,-7.627829458624124,-0.7231516310892999,-1.8342349505335092
1761475902051061200,10.771061279296875,-5.8331625483691685,-0.28627587908431884,-1.3788814386822283
1761475902061037000,10.781037109375,-3.661217737981677,0.49982320656627416,-0.9832873990058898
1761475902071014100,10.79101416015625,-1.15887777466774,1.026489265742153,-0.4316086252570152
1761475902080991000,10.800990966796874,1.6074609156012534,0.7502851372085512,-0.2029343827266246
1761475902090968000,10.810968017578125,3.8367391400605437,0.4340333681859076,-1.1192627534423023
1761475902100945000,10.82094482421875,4.752078207477927,0.49568581450060006,-2.4525012889117
1761475902110922000,10.830921875,5.261737456142902,0.2979704085312784,-2.796841380560398
1761475902120899000,10.840899169921874,6.2363008659452195,-0.38477220141068097,-2.266584457285702
1761475902130875100,10.850875244140624,7.344726218226551,-1.3206591129466891,-1.9781836950019
1761475902140852000,10.86085205078125,8.738778191903233,-1.8704028269797563,-1.6730702828481792
1761475902150829000,10.8708291015625,10.029410123115778,-1.5376922367177903,-1.594498265914619
1761475902160806000,10.880805908203126,11.904788984942435,1.1535435740329325,-4.371680421759188
1761475902170783000,10.890782958984374,12.142329328560828,1.6597681720741093,-4.45769164878279
1761475902180760000,10.900760009765625,10.78258645172119,0.542270893934369,-2.355454580871761
1761475902190737000,10.91073681640625,9.550424829655885,-0.42300533982366323,-1.4388444706052541
1761475902200714000,10.9207138671875,8.775670875492692,-1.2715595664739607,-0.7038730031888931
1761475902210690000,10.93068994140625,8.12073806349635,-1.8324585885107516,0.46962315248325465
1761475902220667100,10.940667236328125,7.537562327721715,-1.847300622203201,1.88825324870795
1761475902230644000,10.95064404296875,3.0607687958449126,-2.3047414617225526,4.844573535823821
1761475902240621000,10.96062109375,1.0327104783445595,-2.4367351261116563,5.066762581053376
1761475902250598000,10.970597900390626,0.3905038769304752,-1.2393018492087722,3.8161633850216865
1761475902260575000,10.980574951171874,2.177724562832713,0.9482353748470544,2.0868474833384156
1761475902270552000,10.990552001953125,3.6337598222136496,2.62434312569499,0.7350653562448919
1761475902280528100,11.000528076171875,4.743930556857586,3.767661219920218,-0.07519150764979422
1761475902290505200,11.010505126953126,5.513882663697004,4.0717368134588,-0.583202696846798
1761475902300482000,11.02048193359375,5.486731621921062,3.964244699250161,-1.1263121604971587
1761475902310459100,11.030459228515625,4.115040533134341,3.6489050766363738,-1.2787640910252929
1761475902320435500,11.040435546875,1.5321996306508778,2.1314882968366144,0.7584889749955386
1761475902330412300,11.050412353515625,0.5509399380803108,-0.3616942542925477,3.991592432641983
1761475902340389400,11.060389404296876,0.42679625653922554,-2.142241161519289,5.368053220048546
1761475902350366500,11.070366455078124,1.0049901122480631,-1.951143127863109,3.8733389781832694
1761475902360342500,11.080342529296875,1.6091858396977186,-0.6678850864194333,1.1188954544998704
1761475902370319400,11.0903193359375,-0.5979658931493759,-0.75589157891348,-0.0732397159948945
1761475902380296400,11.10029638671875,-4.4131648170530795,-1.7408799366183578,0.44266233604978766
1761475902390273300,11.110273193359374,-7.511085239684581,-3.2641216231793164,3.575865559388697
1761475902400250400,11.12025048828125,-7.311198042634129,-4.291023999767005,4.907350017732382
1761475902410227500,11.1302275390625,-2.6912849105894563,-1.1952100478954613,-0.3889915726713836
1761475902420204300,11.140204345703125,-0.23074235404133794,1.950904350671172,-4.733661968560517
1761475902430181400,11.150181396484374,-1.9026964923411607,3.553970246183872,-5.344067364305258
1761475902440157400,11.160157470703124,-5.559646636006236,4.661621399222314,-5.480372608283162
1761475902450134500,11.170134521484375,-8.367701484498381,4.7732989824220535,-4.543461760526895
1761475902460111400,11.180111328125,-9.489633384084701,3.788854814596474,-2.12442844145298
1761475902470088400,11.19008837890625,-8.603806242355704,2.2602191600374875,-0.4484983852595091
1761475902480065300,11.200065185546874,-6.111745096471905,1.3510276554644107,-0.1648951229179278
1761475902490042400,11.21004248046875,-3.4288521666526792,0.4994277775079012,-0.46894543588478116
1761475902500019200,11.220019287109375,-1.398038412964344,-0.07069748416617512,-1.0137155627563594
1761475902509995500,11.22999560546875,-0.11204407842457294,-0.48122488908022637,-1.1483197019048035
1761475902519972400,11.239972412109376,0.3425543772757053,-0.9712743051290511,-0.6321011677894741
1761475902529949400,11.249949462890624,0.6583867518424987,-1.136437687061727,0.012027414663136005
1761475902539926500,11.259926513671875,0.9965092841506004,-1.0496455387935042,0.5242816482573748
1761475902549903400,11.2699033203125,1.1549211459964512,-1.1949759468786418,0.638328006415069
1761475902559880400,11.27988037109375,1.1513894647389649,-1.423720112840086,0.5759566712412982
1761475902569857300,11.289857177734374,1.3921534465789793,-1.5495426873788236,0.5638218506809324
1761475902579834400,11.29983447265625,1.795139203941822,-1.5174959825158119,0.35526385591886933
1761475902589810400,11.309810546875,1.9791712447345255,-1.267775810151547,-0.18244016849137842
1761475902599787500,11.31978759765625,1.9005010281234977,-1.1610508078578858,0.14803930171765387
1761475902609764400,11.329764404296874,1.73689861189723,-1.2812988701999186,0.7141511630319058
1761475902619741400,11.339741455078125,1.2448095067143439,-1.6044716706573963,0.7186721475876867
1761475902629718500,11.349718505859375,0.33322833052575584,-2.5831355015158652,1.2189238817643373
1761475902639695400,11.3596953125,-0.7090338200181722,-3.306812179392576,2.0958733780980108
1761475902649672400,11.36967236328125,-0.5090764803409576,-2.334745408711582,1.1306862108629196
1761475902659648500,11.3796484375,-0.05254325718581676,-0.4454794027645141,-0.7809870763991028
1761475902669625600,11.38962548828125,-0.6653565908551216,0.48350357460193333,-0.9481624557413161
