time,seconds_elapsed,z,y,x
1761476175361034800,0.11503466796875,0.38740700483322144,0.9614739418029785,0.7865562438964844
1761476175371069700,0.125069580078125,0.4631539583206177,0.8956698775291443,0.7384185194969177
1761476175381105700,0.135105712890625,0.5019994974136353,0.712136447429657,0.6194427609443665
1761476175391141600,0.1451416015625,0.4907202422618866,0.294827401638031,0.4087854027748108
1761476175401177600,0.155177490234375,0.47032421827316284,-0.22565989196300507,0.20005902647972107
1761476175411213600,0.165213623046875,0.4441640079021454,-0.6764100193977356,0.07593762129545212
1761476175421249500,0.17524951171875,0.3981027901172638,-1.0778563022613525,0.03940344229340553
1761476175431284700,0.18528466796875,0.3026524484157562,-1.2864938974380493,0.09016621857881546
1761476175441320700,0.19532080078125,0.18807564675807953,-1.1988329887390137,0.14596311748027802
1761476175451356700,0.205356689453125,0.11856608092784882,-1.015607237815857,0.07085185497999191
1761476175461392600,0.215392578125,0.09569531679153442,-0.7814709544181824,-0.26162904500961304
1761476175471428600,0.2254287109375,0.04974273964762688,-0.30803072452545166,-0.7887732982635498
1761476175481464600,0.235464599609375,-0.05930211767554283,0.21102091670036316,-1.4223353862762451
1761476175491499800,0.245499755859375,-0.1600678712129593,0.6428183913230896,-2.050977945327759
1761476175501535700,0.25553564453125,-0.10138462483882904,0.8417505621910095,-2.495732307434082
1761476175511571700,0.26557177734375,0.15847837924957275,0.7771385312080383,-2.595315933227539
1761476175521607700,0.275607666015625,0.4438292682170868,0.4489773213863373,-2.2982118129730225
1761476175531643600,0.2856435546875,0.5786059498786926,0.010728077962994576,-1.6928588151931763
1761476175541679600,0.2956796875,0.48277047276496887,-0.47931432723999023,-1.0163782835006714
1761476175551714600,0.305714599609375,0.22943831980228424,-0.8823651075363159,-0.4837123155593872
1761476175561750500,0.31575048828125,-0.04292742535471916,-1.1746559143066406,-0.2497960329055786
1761476175571786800,0.325786865234375,-0.21887235343456268,-1.4109166860580444,-0.360417902469635
1761476175581822700,0.33582275390625,-0.24295374751091003,-1.568778157234192,-0.7530676126480103
1761476175591858700,0.345858642578125,-0.12890760600566864,-1.6234617233276367,-1.2881309986114502
1761476175601894700,0.355894775390625,0.09056497365236282,-1.5466750860214233,-1.8122239112854004
1761476175611929600,0.3659296875,0.34392452239990234,-1.3686236143112183,-2.155672788619995
1761476175621965600,0.375965576171875,0.5318800210952759,-1.1320831775665283,-2.252051830291748
1761476175632001500,0.38600146484375,0.606894850730896,-0.7204410433769226,-2.0586259365081787
1761476175642037500,0.39603759765625,0.5807749032974243,-0.3426097333431244,-1.6008657217025757
1761476175652073700,0.40607373046875,0.4569799602031708,-0.07316041737794876,-0.9896084070205688
1761476175662109700,0.416109619140625,0.26319620013237,0.05999024212360382,-0.33339834213256836
1761476175672144600,0.42614453125,0.06110942363739014,0.1066427007317543,0.2557658553123474
1761476175682180600,0.4361806640625,-0.12404830753803253,0.09901852905750275,0.7015421986579895
1761476175692216600,0.446216552734375,-0.2464706301689148,0.09214171022176743,0.9981133937835693
1761476175702252500,0.45625244140625,-0.2884552776813507,0.09417958557605743,1.131415605545044
1761476175712288500,0.46628857421875,-0.2509089708328247,0.1311064511537552,1.1347414255142212
1761476175722324700,0.47632470703125,-0.15659880638122559,0.21642598509788513,1.0858386754989624
1761476175732359700,0.486359619140625,-0.031553007662296295,0.3111855089664459,1.0143709182739258
1761476175742395600,0.496395751953125,0.09818611294031143,0.41630464792251587,0.9537767171859741
1761476175752431600,0.506431640625,0.2136266827583313,0.5094441771507263,0.9127275347709656
1761476175762467600,0.516467529296875,0.29646870493888855,0.5796940922737122,0.9012627601623535
1761476175772503600,0.526503662109375,0.33681854605674744,0.6254011392593384,0.9097571969032288
1761476175782539500,0.53653955078125,0.3297085165977478,0.6693146228790283,0.9408332705497742
1761476175792574700,0.54657470703125,0.27418214082717896,0.6840952038764954,0.9809327721595764
1761476175802610700,0.556610595703125,0.20516246557235718,0.6675072312355042,1.0254557132720947
1761476175812646700,0.566646728515625,0.15303854644298553,0.6183705925941467,1.0480273962020874
1761476175822682600,0.5766826171875,0.11599721014499664,0.5661506652832031,1.02559494972229
1761476175832718600,0.586718505859375,0.093135304749012,0.5311599373817444,0.9572364091873169
1761476175842754600,0.596754638671875,0.09581458568572998,0.4599383771419525,0.8593665361404419
1761476175852789800,0.606789794921875,0.11985120922327042,0.35254427790641785,0.7300583124160767
1761476175862825700,0.61682568359375,0.15634441375732422,0.26498764753341675,0.5907724499702454
1761476175872861700,0.62686181640625,0.21671880781650543,0.2504097521305084,0.4711563289165497
1761476175882897700,0.636897705078125,0.2964116036891937,0.3897246718406677,0.41308435797691345
1761476175892933600,0.64693359375,0.35326236486434937,0.6851344704627991,0.43657052516937256
1761476175902969600,0.656969482421875,0.3457503914833069,0.9336957335472107,0.4801381230354309
1761476175913004500,0.667004638671875,0.29044851660728455,1.0191820859909058,0.5188868641853333
1761476175923040500,0.67704052734375,0.2455708384513855,0.9317642450332642,0.5042706727981567
1761476175933076700,0.68707666015625,0.2460225224494934,0.7315469980239868,0.46763575077056885
1761476175943112700,0.69711279296875,0.23007866740226746,0.5273361802101135,0.6085050702095032
1761476175953148700,0.707148681640625,0.1499851495027542,0.15399137139320374,0.9725229740142822
1761476175963184600,0.7171845703125,-0.05689263716340065,-0.5190858840942383,1.292266607284546
1761476175973219600,0.727219482421875,-0.30212023854255676,-1.363213062286377,1.2338229417800903
1761476175983255600,0.737255615234375,-0.39127662777900696,-2.063096284866333,0.6640999913215637
1761476175993291500,0.74729150390625,-0.3143270015716553,-2.239105463027954,-0.26964688301086426
1761476176003327500,0.757327392578125,-0.20776928961277008,-1.5244210958480835,-1.1950267553329468
1761476176013363700,0.76736376953125,-0.0844699889421463,-0.2603471577167511,-1.9088900089263916
1761476176023399700,0.777399658203125,0.05321969836950302,1.010900616645813,-2.316723346710205
1761476176033434600,0.7874345703125,0.24625438451766968,1.8320820331573486,-2.4376959800720215
1761476176043470600,0.797470703125,0.39066022634506226,1.8701584339141846,-2.412844657897949
1761476176053506600,0.807506591796875,0.39178675413131714,1.1608198881149292,-2.2542219161987305
1761476176063542500,0.81754248046875,0.36425507068634033,0.051953546702861786,-1.8951489925384521
1761476176073578500,0.82757861328125,0.3786121606826782,-1.0548455715179443,-1.315112829208374
1761476176083614500,0.837614501953125,0.34162747859954834,-1.8939213752746582,-0.5761051774024963
1761476176093649700,0.847649658203125,0.24826638400554657,-2.377971887588501,0.12416103482246399
1761476176103685600,0.857685546875,0.15284784138202667,-2.5447237491607666,0.5460085868835449
1761476176113721600,0.8677216796875,0.061070509254932404,-2.356182336807251,0.6596286296844482
1761476176123757600,0.877757568359375,-0.0191485658288002,-1.7013646364212036,0.5462177395820618
1761476176133793500,0.88779345703125,-0.054672203958034515,-0.8592334389686584,0.34412992000579834
1761476176143828700,0.897828857421875,-0.051871467381715775,-0.18897442519664764,0.11019231379032135
1761476176153864700,0.90786474609375,-0.04637416824698448,0.2554038465023041,-0.09369982779026031
1761476176163900700,0.917900634765625,-0.0603039525449276,0.5275651216506958,-0.22609379887580872
1761476176173936600,0.9279365234375,-0.10651671886444092,0.6240418553352356,-0.278630793094635
1761476176183972600,0.93797265625,-0.1798362284898758,0.5704482793807983,-0.23060789704322815
1761476176194008600,0.948008544921875,-0.2704870402812958,0.40524575114250183,-0.10524464398622513
1761476176204043500,0.95804345703125,-0.37424322962760925,0.23381240665912628,0.07866352796554565
1761476176214079700,0.968079833984375,-0.46131688356399536,0.10944171994924545,0.2922857701778412
1761476176224115700,0.97811572265625,-0.4997878074645996,0.05703900381922722,0.5094915628433228
1761476176234151700,0.988151611328125,-0.4687049686908722,0.0614827536046505,0.7310971617698669
1761476176244187600,0.998187744140625,-0.4135405719280243,0.10301642119884491,0.9215250611305237
1761476176254223600,1.0082236328125,-0.37799879908561707,0.13704124093055725,1.0557878017425537
1761476176264258600,1.018258544921875,-0.3501880466938019,0.12677901983261108,1.165594458580017
1761476176274294500,1.02829443359375,-0.3171352744102478,0.07670492678880692,1.2501780986785889
1761476176284330500,1.03833056640625,-0.30364736914634705,0.044367700815200806,1.3007014989852905
1761476176294366700,1.04836669921875,-0.33195412158966064,0.05449064448475838,1.3005616664886475
1761476176304402700,1.058402587890625,-0.3373545706272125,0.099152110517025,1.2282451391220093
1761476176314438700,1.068438720703125,-0.3411804735660553,0.15854859352111816,1.1219816207885742
1761476176324473600,1.0784736328125,-0.3429192900657654,0.22552040219306946,1.0251221656799316
1761476176334509600,1.088509521484375,-0.2803475260734558,0.26568540930747986,0.9251471161842346
1761476176344545500,1.098545654296875,-0.19890998303890228,0.2552020251750946,0.7786358594894409
1761476176354581500,1.10858154296875,-0.11005068570375443,0.2237762063741684,0.6150906085968018
1761476176364617500,1.118617431640625,-0.06046292185783386,0.18981631100177765,0.44977647066116333
1761476176374652700,1.128652587890625,-0.06358335167169571,0.08605155348777771,0.30161789059638977
1761476176384688600,1.138688720703125,-0.08638408780097961,-0.10430468618869781,0.16570213437080383
1761476176394724600,1.148724609375,-0.10837380588054657,-0.2849825918674469,0.008366317488253117
1761476176404760600,1.158760498046875,-0.12421927601099014,-0.4009960889816284,-0.1808132827281952
1761476176414796500,1.168796630859375,-0.13615795969963074,-0.4829375445842743,-0.41511261463165283
1761476176424832500,1.17883251953125,-0.11667259782552719,-0.5575330257415771,-0.6745343804359436
1761476176434867700,1.18886767578125,-0.08692136406898499,-0.6568737030029297,-0.9610418081283569
1761476176444903700,1.198903564453125,-0.026453034952282906,-0.4108428359031677,-1.14442777633667
1761476176454939600,1.208939697265625,0.15632210671901703,-0.5761185884475708,-1.1111814975738525
1761476176464975600,1.2189755859375,0.34681445360183716,-0.6597036719322205,-0.810695469379425
1761476176475011600,1.229011474609375,0.5299557447433472,-0.5695415735244751,-0.33411237597465515
1761476176485046500,1.239046630859375,0.6327886581420898,-0.4597189426422119,0.10046987980604172
1761476176495082500,1.24908251953125,0.5487834811210632,-0.36316418647766113,0.3044496476650238
1761476176505118700,1.25911865234375,0.39092138409614563,-0.4792936444282532,0.17455093562602997
1761476176515154700,1.26915478515625,0.3208794593811035,-0.8580830693244934,-0.22982850670814514
1761476176525190700,1.279190673828125,0.399750292301178,-1.50901198387146,-0.8656473755836487
1761476176535225600,1.2892255859375,0.6183961033821106,-2.1167256832122803,-1.6098730564117432
1761476176545261600,1.299261474609375,0.7898673415184021,-2.011350154876709,-2.3690619468688965
1761476176555297500,1.309297607421875,0.7179968953132629,-1.0874594449996948,-2.925764799118042
1761476176565333500,1.31933349609375,0.3805782198905945,0.2956460118293762,-3.1038594245910645
1761476176575369500,1.329369384765625,-0.01577472686767578,1.3489835262298584,-2.987856149673462
1761476176585404700,1.33940478515625,-0.22019049525260925,1.798947811126709,-2.6607205867767334
1761476176595440600,1.349440673828125,-0.1648673117160797,1.4800140857696533,-2.111593246459961
1761476176605476600,1.3594765625,0.00857885368168354,0.5441103577613831,-1.343224287033081
1761476176615512600,1.3695126953125,0.16794027388095856,-0.5183526873588562,-0.47850337624549866
1761476176625548500,1.379548583984375,0.16899330914020538,-1.284734845161438,0.2333778738975525
1761476176635583700,1.389583740234375,0.11320248991250992,-1.6414780616760254,0.6758514642715454
1761476176645619700,1.39961962890625,0.16502033174037933,-1.632367730140686,0.7670010924339294
1761476176655655700,1.40965576171875,0.2535291314125061,-1.3859553337097168,0.5236624479293823
1761476176665691600,1.419691650390625,0.37509435415267944,-0.9205737709999084,0.15086916089057922
1761476176675727600,1.4297275390625,0.4580099880695343,-0.3587348759174347,-0.24009621143341064
1761476176685762300,1.43976220703125,0.49385011196136475,0.13392850756645203,-0.5412187576293945
1761476176695798500,1.449798583984375,0.4266897439956665,0.48332247138023376,-0.6550837755203247
1761476176705834800,1.459834716796875,0.24307076632976532,0.7136616706848145,-0.5957674384117126
1761476176715870700,1.46987060546875,0.05478395149111748,0.7134031057357788,-0.3893248438835144
1761476176725906700,1.47990673828125,-0.02951866015791893,0.526315450668335,-0.050686147063970566
1761476176735941400,1.48994140625,-0.00004119519144296646,0.24641242623329163,0.3285280168056488
1761476176745977600,1.4999775390625,0.13581861555576324,-0.018142377957701683,0.6837584972381592
1761476176756013600,1.510013671875,0.33175724744796753,-0.16713932156562805,0.9965786933898926
1761476176766049500,1.520049560546875,0.4542493522167206,-0.15757839381694794,1.2612005472183228
1761476176776085500,1.53008544921875,0.4070189893245697,0.037431586533784866,1.4620883464813232
1761476176786120400,1.540120361328125,0.22154328227043152,0.3028832972049713,1.5469930171966553
1761476176796156400,1.550156494140625,-0.020502638071775436,0.55242919921875,1.5354715585708618
1761476176806192600,1.560192626953125,-0.2269515097141266,0.7640591263771057,1.4434195756912231
1761476176816228600,1.570228515625,-0.3334076404571533,0.8353013396263123,1.3372251987457275
1761476176826263600,1.580263671875,-0.3139585852622986,0.7544611096382141,1.2319986820220947
1761476176836299500,1.590299560546875,-0.2013758420944214,0.5444068908691406,1.1030185222625732
1761476176846335500,1.60033544921875,-0.047400929033756256,0.29020756483078003,0.9673649668693542
1761476176856371700,1.610371826171875,0.08393445611000061,0.10210662335157394,0.8797882199287415
1761476176866407700,1.62040771484375,0.13892802596092224,0.016601094976067543,0.8410163521766663
1761476176876442400,1.6304423828125,0.10733920335769653,0.06594707071781158,0.7987213730812073
1761476176886478300,1.640478271484375,-0.011276176199316978,0.20652428269386292,0.7062679529190063
1761476176896514300,1.650514404296875,-0.17392927408218384,0.3631117641925812,0.5343137383460999
1761476176906550500,1.660550537109375,-0.287087082862854,0.5138193368911743,0.2982536554336548
1761476176916586800,1.670586669921875,-0.27692925930023193,0.5117383003234863,0.07070145010948181
1761476176926621400,1.680621337890625,-0.18873853981494904,0.39469584822654724,-0.07376740872859955
1761476176936657400,1.690657470703125,-0.09129295498132706,0.26102885603904724,-0.1041032075881958
1761476176946693400,1.700693359375,-0.029306553304195404,0.12471166253089905,-0.031246136873960495
1761476176956729300,1.710729248046875,-0.013489775359630585,-0.012255778536200523,0.10670454055070877
1761476176966764500,1.7207646484375,-0.038064368069171906,-0.09845682233572006,0.2324964702129364
1761476176976800500,1.730800537109375,-0.09494389593601227,-0.14758841693401337,0.284867525100708
1761476176986836500,1.74083642578125,-0.14253628253936768,-0.0851287916302681,0.2590651512145996
1761476176996872400,1.75087255859375,-0.16616065800189972,0.03749566525220871,0.12169022858142853
1761476177006908400,1.760908447265625,-0.19031697511672974,0.11473828554153442,-0.07478154450654984
1761476177016943400,1.770943359375,-0.22298197448253632,0.1626213937997818,-0.25059306621551514
1761476177026979300,1.780979248046875,-0.27581292390823364,0.24095889925956726,-0.32261937856674194
1761476177037015600,1.791015625,-0.23651933670043945,0.30202093720436096,-0.25282832980155945
1761476177047051500,1.801051513671875,-0.07687205076217651,0.23170243203639984,-0.04273226484656334
1761476177057086500,1.81108642578125,0.0847482681274414,0.1015220507979393,0.17242105305194855
1761476177067122400,1.821122314453125,0.1472054421901703,-0.215362086892128,0.08021558821201324
1761476177077158400,1.831158447265625,0.003899679519236088,-0.837969958782196,-0.5474587678909302
1761476177087194400,1.8411943359375,-0.22004172205924988,-1.4258885383605957,-1.5263477563858032
1761476177097229600,1.8512294921875,-0.28723299503326416,-1.6097636222839355,-2.4592959880828857
1761476177107265500,1.861265625,-0.12485390156507492,-1.0820316076278687,-2.948956251144409
1761476177117301500,1.871301513671875,0.0989709421992302,0.13091333210468292,-2.9644691944122314
1761476177127337500,1.88133740234375,0.2037571519613266,1.4119998216629028,-2.6405670642852783
1761476177137373400,1.89137353515625,0.25063544511795044,2.003962516784668,-2.148686647415161
1761476177147408400,1.901408447265625,0.3034555912017822,1.7060619592666626,-1.604095697402954
1761476177157444400,1.9114443359375,0.32184791564941406,0.6860160827636719,-1.0093679428100586
1761476177167480600,1.92148046875,0.3208538889884949,-0.6012917160987854,-0.36823830008506775
1761476177177516500,1.9315166015625,0.299548864364624,-1.6301425695419312,0.2683256268501282
1761476177187551500,1.941551513671875,0.25941115617752075,-2.202254056930542,0.8278623223304749
1761476177197587500,1.95158740234375,0.20064078271389008,-2.1003434658050537,1.2005239725112915
1761476177207623400,1.96162353515625,0.17046017944812775,-1.4209978580474854,1.2870341539382935
1761476177217659400,1.971659423828125,0.13862422108650208,-0.625444233417511,1.1002485752105713
1761476177227694600,1.981694580078125,0.12534737586975098,0.006388303358107805,0.7702906727790833
1761476177237730600,1.99173046875,0.11230560392141342,0.3355230391025543,0.44508007168769836
1761476177247766500,2.0017666015625,0.07388230413198471,0.35376107692718506,0.2226700782775879
1761476177257802500,2.011802490234375,-0.022175516933202744,0.21379491686820984,0.14880944788455963
1761476177267837400,2.02183740234375,-0.13033859431743622,0.07967787981033325,0.2616390585899353
1761476177277873400,2.031873291015625,-0.22897888720035553,-0.01076413318514824,0.48381859064102173
1761476177287909600,2.04190966796875,-0.301046758890152,0.013406415469944477,0.7607230544090271
1761476177297945600,2.051945556640625,-0.330666184425354,0.15827545523643494,1.0290298461914062
1761476177307981600,2.061981689453125,-0.3462763726711273,0.3815591335296631,1.2533537149429321
1761476177318016500,2.0720166015625,-0.3633807897567749,0.5960842370986938,1.4243065118789673
1761476177328052700,2.082052734375,-0.37692633271217346,0.6686163544654846,1.550830602645874
1761476177338088700,2.092088623046875,-0.37774765491485596,0.6312357187271118,1.6248489618301392
1761476177348124000,2.1021240234375,-0.3474327623844147,0.5489883422851562,1.6449788808822632
1761476177358160000,2.112159912109375,-0.28217440843582153,0.44485318660736084,1.6500996351242065
1761476177368195800,2.12219580078125,-0.20089858770370483,0.3711361885070801,1.6602985858917236
1761476177378231800,2.132231689453125,-0.1360519528388977,0.38397952914237976,1.6727862358093262
1761476177388267800,2.142267822265625,-0.11202847957611084,0.49644148349761963,1.6502982378005981
1761476177398302700,2.152302734375,-0.11634066700935364,0.5821220278739929,1.553475022315979
1761476177408338700,2.162338623046875,-0.15582352876663208,0.6349135637283325,1.3653910160064697
1761476177418374700,2.172374755859375,-0.22878028452396393,0.6554758548736572,1.0935990810394287
1761476177428409900,2.182409912109375,-0.28894102573394775,0.5843282341957092,0.781995415687561
1761476177438445800,2.19244580078125,-0.3119986653327942,0.4749748706817627,0.48446255922317505
1761476177448481800,2.202481689453125,-0.2826683819293976,0.34109461307525635,0.23194746673107147
1761476177458517800,2.212517822265625,-0.24278008937835693,0.1759253591299057,0.041682448238134384
1761476177468552700,2.222552734375,-0.21668876707553864,0.012520011514425278,-0.07858742028474808
1761476177478589000,2.2325888671875,-0.17981649935245514,-0.11630241572856903,-0.15017583966255188
1761476177488625000,2.242625,-0.11923743039369583,-0.18504364788532257,-0.20223025977611542
1761476177498660900,2.252660888671875,-0.06742376834154129,-0.14616362750530243,-0.24716338515281677
1761476177508695800,2.26269580078125,-0.01587432622909546,-0.08827134221792221,-0.322876900434494
1761476177518731800,2.272731689453125,0.03237602859735489,-0.14387814700603485,-0.4336755871772766
1761476177528767700,2.282767822265625,0.06228039786219597,-0.22380173206329346,-0.5665494799613953
1761476177538803700,2.2928037109375,0.07244328409433365,-0.2559351623058319,-0.7106291651725769
1761476177548839000,2.3028388671875,0.12237929552793503,-0.26616916060447693,-0.8209338188171387
1761476177558875000,2.312875,0.1903170645236969,-0.2815835177898407,-0.8855085372924805
1761476177568910800,2.322910888671875,0.23238882422447205,-0.21138694882392883,-0.8314976096153259
1761476177578946800,2.33294677734375,0.2375553548336029,0.014644316397607327,-0.6591735482215881
1761476177588981800,2.342981689453125,0.2123369574546814,0.11857639253139496,-0.5437557697296143
1761476177599018000,2.35301806640625,0.08776066452264786,-0.21661598980426788,-0.7916955351829529
1761476177609054000,2.363053955078125,-0.0831383615732193,-0.999770998954773,-1.4329198598861694
1761476177619090000,2.37308984375,-0.21130964159965515,-1.5918809175491333,-2.089968204498291
1761476177629124900,2.383124755859375,-0.24174724519252777,-1.5200155973434448,-2.465667247772217
1761476177639160800,2.393160888671875,-0.17363743484020233,-0.7169868350028992,-2.605661392211914
1761476177649196800,2.40319677734375,-0.08334775269031525,0.4633623957633972,-2.6239092350006104
1761476177659231700,2.413231689453125,-0.08025262504816055,1.3908064365386963,-2.5635485649108887
1761476177669268000,2.42326806640625,-0.07710663229227066,1.7222559452056885,-2.343726396560669
1761476177679304000,2.433303955078125,-0.03515012562274933,1.4126102924346924,-1.8992732763290405
1761476177689340000,2.44333984375,0.059639014303684235,0.7028651833534241,-1.206372618675232
1761476177699374600,2.45337451171875,0.15811792016029358,-0.10570864379405975,-0.3929545283317566
1761476177709410600,2.46341064453125,0.243724063038826,-0.7911428809165955,0.3308105766773224
1761476177719446800,2.47344677734375,0.31856876611709595,-1.1757501363754272,0.8026628494262695
1761476177729483000,2.48348291015625,0.37638944387435913,-1.2504351139068604,1.0266400575637817
1761476177739517700,2.493517578125,0.39595383405685425,-0.928433358669281,1.0087950229644775
1761476177749553700,2.5035537109375,0.3400295078754425,-0.39148053526878357,0.7867590188980103
1761476177759589600,2.513589599609375,0.2022753655910492,0.037719838321208954,0.46126076579093933
1761476177769624800,2.523624755859375,0.02273642271757126,0.29807189106941223,0.17907701432704926
1761476177779660800,2.533660888671875,-0.15462878346443176,0.35913363099098206,0.012187883257865906
1761476177789696800,2.54369677734375,-0.2776423692703247,0.29049262404441833,-0.010214820504188538
1761476177799732700,2.553732666015625,-0.34065407514572144,0.18840676546096802,0.11908937245607376
1761476177809767700,2.563767578125,-0.3318634331226349,0.0793987363576889,0.35262957215309143
1761476177819803600,2.5738037109375,-0.29239776730537415,0.017618466168642044,0.5711187720298767
1761476177829839600,2.583839599609375,-0.23102647066116333,-0.007413559127599001,0.7713808417320251
1761476177839874800,2.593874755859375,-0.15389573574066162,-0.002316268626600504,0.9834925532341003
1761476177849910800,2.603910888671875,-0.08950094878673553,0.04418325051665306,1.1785306930541992
1761476177859946800,2.61394677734375,-0.06972432136535645,0.12883661687374115,1.3199254274368286
1761476177869982700,2.623982666015625,-0.08872203528881073,0.2327723652124405,1.3812892436981201
1761476177880017700,2.634017578125,-0.12820899486541748,0.331341028213501,1.3808692693710327
1761476177890053600,2.6440537109375,-0.16512900590896606,0.3949008584022522,1.3304376602172852
1761476177900089900,2.65408984375,-0.19603152573108673,0.4260076582431793,1.2476475238800049
1761476177910125800,2.664125732421875,-0.20449824631214142,0.4401295781135559,1.1711399555206299
1761476177920160800,2.674160888671875,-0.17520320415496826,0.43454068899154663,1.1407314538955688
1761476177930196700,2.68419677734375,-0.12446101009845734,0.429643839597702,1.1453746557235718
1761476177940232700,2.694232666015625,-0.08137479424476624,0.4354194402694702,1.1934694051742554
1761476177950268000,2.704267822265625,-0.077754445374012,0.4412497282028198,1.2354234457015991
1761476177960303900,2.714303955078125,-0.09250383079051971,0.4340820908546448,1.2254186868667603
1761476177970339800,2.72433984375,-0.0892857015132904,0.38577529788017273,1.1413724422454834
1761476177980375800,2.734375732421875,-0.07686764746904373,0.28746524453163147,0.9944120049476624
1761476177990410800,2.74441064453125,-0.06777124851942062,0.1817927211523056,0.8252118825912476
1761476178000446700,2.75444677734375,-0.05001063272356987,0.11924386024475098,0.6585730910301208
1761476178010482700,2.764482666015625,-0.01989239826798439,0.12419717013835907,0.4599309265613556
1761476178020518000,2.774517822265625,0.018630225211381912,0.14191864430904388,0.19468380510807037
1761476178030553900,2.784553955078125,0.04015646502375603,0.1005655899643898,-0.09816241264343262
1761476178040589800,2.79458984375,0.03342319652438164,0.017973240464925766,-0.34583958983421326
1761476178050624800,2.804624755859375,0.04071873798966408,-0.031619418412446976,-0.5128009915351868
1761476178060660700,2.81466064453125,0.049975086003541946,-0.1112053319811821,-0.600210964679718
1761476178070696700,2.82469677734375,0.05100110173225403,-0.2358531355857849,-0.6158442497253418
1761476178080733000,2.83473291015625,0.08697853982448578,-0.36565372347831726,-0.5751737356185913
1761476178090768000,2.844767822265625,0.1324765384197235,-0.4517524540424347,-0.5334012508392334
1761476178100803800,2.854803955078125,0.17509084939956665,-0.4585227370262146,-0.5258139371871948
1761476178110839800,2.86483984375,0.24541115760803223,-0.37551820278167725,-0.5868864059448242
1761476178120875000,2.874875,0.3498006761074066,-0.22287513315677643,-0.7148408889770508
1761476178130911000,2.884910888671875,0.45459604263305664,-0.012826785445213318,-0.7918622493743896
1761476178140947000,2.894947021484375,0.5191052556037903,0.2599983811378479,-0.7515361309051514
1761476178150981600,2.904981689453125,0.5356111526489258,0.3976978659629822,-0.686190664768219
1761476178161017600,2.915017578125,0.4440724849700928,0.21512779593467712,-0.8271245956420898
1761476178171053800,2.9250537109375,0.32493069767951965,-0.34377750754356384,-1.300795078277588
1761476178181089800,2.93508984375,0.20506130158901215,-0.9695015549659729,-2.00264048576355
1761476178191124700,2.945124755859375,0.05139486491680145,-1.3019565343856812,-2.632948398590088
1761476178201160700,2.95516064453125,-0.10539368540048599,-1.0280346870422363,-3.057312488555908
1761476178211196700,2.96519677734375,-0.12618182599544525,-0.2868075966835022,-3.2587571144104004
1761476178221231600,2.975231689453125,-0.01943114772439003,0.6911730766296387,-3.259976387023926
1761476178231267600,2.985267578125,0.12391893565654755,1.438676357269287,-3.0164551734924316
1761476178241303800,2.9953037109375,0.24873970448970795,1.5912821292877197,-2.501873731613159
1761476178251338800,3.0053388671875,0.30977320671081543,1.0839968919754028,-1.7956234216690063
1761476178261374700,3.015374755859375,0.33829087018966675,-0.053192101418972015,-0.9261322617530823
1761476178271410700,3.02541064453125,0.38990071415901184,-1.4060933589935303,-0.0058422512374818325
1761476178281446700,3.03544677734375,0.40906986594200134,-2.514254331588745,0.7821714282035828
1761476178291481900,3.04548193359375,0.3920559287071228,-2.857651948928833,1.3624935150146484
1761476178301517800,3.055517822265625,0.34404951333999634,-2.3326194286346436,1.5960428714752197
1761476178311553800,3.0655537109375,0.24008481204509735,-1.3686970472335815,1.3996026515960693
1761476178321588700,3.075588623046875,0.11737539619207382,-0.47063761949539185,0.9527357816696167
1761476178331628300,3.085628173828125,-0.005485078319907188,0.08606335520744324,0.546883761882782
1761476178341664300,3.095664306640625,-0.12441386282444,0.31278759241104126,0.28493818640708923
1761476178351699500,3.105699462890625,-0.23174917697906494,0.29552754759788513,0.1641586571931839
1761476178361735400,3.1157353515625,-0.34692928194999695,0.19527550041675568,0.15144899487495422
1761476178371771400,3.125771484375,-0.43979233503341675,0.09677772223949432,0.269199013710022
1761476178381806300,3.135806396484375,-0.40783414244651794,0.03062000498175621,0.589735746383667
1761476178391842300,3.14584228515625,-0.3018440306186676,0.060873907059431076,1.0294554233551025
1761476178401878300,3.155878173828125,-0.2322620153427124,0.15024453401565552,1.4086087942123413
1761476178411913200,3.165913330078125,-0.24747328460216522,0.2823483645915985,1.639176845550537
1761476178421949400,3.175949462890625,-0.3015860319137573,0.4111095368862152,1.714226245880127
1761476178431985400,3.1859853515625,-0.3736436665058136,0.49059122800827026,1.633993148803711
1761476178442020000,3.19602001953125,-0.4234687387943268,0.49766483902931213,1.4356228113174438
1761476178452056000,3.20605615234375,-0.44020745158195496,0.44309282302856445,1.1811459064483643
1761476178462092300,3.21609228515625,-0.431614488363266,0.3816204071044922,0.941096842288971
1761476178472127200,3.226127197265625,-0.38821306824684143,0.3630138337612152,0.7440059185028076
1761476178482163200,3.2361630859375,-0.297199547290802,0.39642614126205444,0.6394965648651123
1761476178492199200,3.24619921875,-0.17598959803581238,0.41509807109832764,0.6078140139579773
1761476178502235100,3.256235107421875,-0.08173447102308273,0.4157489538192749,0.608735978603363
1761476178512270300,3.266270263671875,-0.0439549945294857,0.3853835165500641,0.56781005859375
1761476178522306300,3.276306396484375,-0.09743659198284149,0.28526732325553894,0.46888771653175354
1761476178532342300,3.28634228515625,-0.20463430881500244,0.10215099900960922,0.32414305210113525
1761476178542377200,3.296377197265625,-0.3159051835536957,-0.08920297771692276,0.13649487495422363
1761476178552413200,3.3064130859375,-0.3795507550239563,-0.20317625999450684,-0.06940825283527374
1761476178562449200,3.31644921875,-0.37182676792144775,-0.2435431182384491,-0.24304234981536865
1761476178572484400,3.326484375,-0.2849791646003723,-0.23164652287960052,-0.35996291041374207
1761476178582520300,3.336520263671875,-0.14994731545448303,-0.17840300500392914,-0.4257411062717438
1761476178592556300,3.346556396484375,0.0005906093865633011,-0.06467136740684509,-0.4448029398918152
1761476178602591200,3.35659130859375,0.10541901737451553,0.05227602645754814,-0.4311547577381134
1761476178612627200,3.366627197265625,0.12762486934661865,0.09705206751823425,-0.4401814043521881
1761476178622663200,3.3766630859375,0.11117212474346161,0.04523255303502083,-0.5127496123313904
1761476178632698400,3.386698486328125,0.058613575994968414,-0.09202171117067337,-0.6265345215797424
1761476178642734300,3.396734375,-0.02138485014438629,-0.20689743757247925,-0.7555931806564331
1761476178652770300,3.406770263671875,-0.04264079034328461,-0.2910446226596832,-0.8510401844978333
1761476178662805200,3.41680517578125,0.08392461389303207,-0.335448294878006,-0.8308882713317871
1761476178672841200,3.42684130859375,0.28032729029655457,-0.20920558273792267,-0.7113533020019531
1761476178682877200,3.436877197265625,0.4243992269039154,0.0299161858856678,-0.5527673959732056
1761476178692912400,3.446912353515625,0.49867209792137146,0.17542341351509094,-0.5056971907615662
1761476178702948400,3.4569482421875,0.5094701647758484,0.18509894609451294,-0.6129970550537109
1761476178712984300,3.466984375,0.4178500771522522,-0.05424381047487259,-0.9833981394767761
1761476178723019300,3.477019287109375,0.2967630624771118,-0.4813857972621918,-1.65952467918396
1761476178733055200,3.48705517578125,0.18364857137203217,-0.7898804545402527,-2.4972774982452393
1761476178743091500,3.497091552734375,0.05636252462863922,-0.8406214118003845,-3.3478951454162598
1761476178753126400,3.50712646484375,0.025479143485426903,-0.36606693267822266,-3.9840333461761475
1761476178763162400,3.517162353515625,0.06838054209947586,0.7108823657035828,-4.194544792175293
1761476178773198300,3.5271982421875,0.14978395402431488,1.8262708187103271,-3.850531816482544
1761476178783233300,3.5372333984375,0.29064705967903137,2.2581942081451416,-2.981538772583008
1761476178793269200,3.547269287109375,0.4945671856403351,1.783183217048645,-1.7559820413589478
1761476178803305500,3.557305419921875,0.6086340546607971,0.6047155857086182,-0.4888989329338074
1761476178813340200,3.567340087890625,0.6183086037635803,-0.6959627270698547,0.5483282804489136
1761476178823376100,3.577376220703125,0.5900567173957825,-1.5808022022247314,1.3017120361328125
1761476178833412000,3.587412109375,0.5688734650611877,-1.9812488555908203,1.814064621925354
1761476178843447300,3.597447265625,0.5978968739509583,-1.8220293521881104,2.016191005706787
1761476178853483300,3.607483154296875,0.6491043567657471,-1.274393081665039,1.8472094535827637
1761476178863519200,3.617519287109375,0.6722557544708252,-0.6153930425643921,1.3993419408798218
1761476178873554200,3.62755419921875,0.6145207285881042,-0.03368587791919708,0.8422447443008423
1761476178883590100,3.637590087890625,0.5074619054794312,0.2719600796699524,0.35213547945022583
1761476178893625300,3.647625244140625,0.39902785420417786,0.24481201171875,0.0721454918384552
1761476178903661300,3.657661376953125,0.28642863035202026,0.08473045378923416,0.025658950209617615
1761476178913697300,3.667697265625,0.1852768510580063,0.010553975589573383,0.22977371513843536
1761476178923732200,3.677732177734375,0.13438251614570618,0.09863723069429398,0.5946113467216492
1761476178933768200,3.687768310546875,0.11161870509386063,0.2629407048225403,0.964404821395874
1761476178943804200,3.69780419921875,0.14017418026924133,0.46286740899086,1.3096524477005005
1761476178953839400,3.70783935546875,0.20606087148189545,0.6895541548728943,1.585064172744751
1761476178963875300,3.717875244140625,0.24902565777301788,0.87063068151474,1.7505117654800415
1761476178973911300,3.727911376953125,0.26112496852874756,0.8907091021537781,1.7971874475479126
1761476178983946200,3.7379462890625,0.19010832905769348,0.7845246195793152,1.7514753341674805
1761476178993982200,3.747982177734375,0.06968166679143906,0.612656831741333,1.6354531049728394
1761476179004018400,3.758018310546875,-0.032201554626226425,0.45073291659355164,1.4897329807281494
1761476179014053400,3.768053466796875,-0.07339489459991455,0.33930981159210205,1.346161961555481
1761476179024089300,3.77808935546875,-0.0390278697013855,0.2869051992893219,1.255881905555725
1761476179034125300,3.788125244140625,0.026224609464406967,0.32468700408935547,1.2029454708099365
1761476179044160300,3.79816015625,0.09532006084918976,0.39546528458595276,1.1583311557769775
1761476179054196500,3.808196533203125,0.14307795464992523,0.5231115221977234,1.0585788488388062
1761476179064232400,3.818232421875,0.14935342967510223,0.5371319651603699,0.8868893980979919
1761476179074267400,3.828267333984375,0.10956903547048569,0.4707739055156708,0.6808439493179321
1761476179084303400,3.838303466796875,0.05668238550424576,0.4298805296421051,0.48381268978118896
1761476179094338300,3.84833837890625,0.002829005941748619,0.3916628360748291,0.29396817088127136
1761476179104374300,3.858374267578125,-0.004993231035768986,0.2883590757846832,0.15716449916362762
1761476179114410200,3.86841015625,0.027178766205906868,0.16980116069316864,0.07616283744573593
1761476179124445200,3.878445068359375,0.09330771863460541,0.08775662630796432,0.0429830476641655
1761476179134481200,3.888481201171875,0.15075618028640747,0.04488537088036537,0.035224638879299164
1761476179144517000,3.89851708984375,0.19024047255516052,-0.01896311715245247,0.05004992336034775
1761476179154552300,3.90855224609375,0.2096293568611145,-0.05042516812682152,0.06633728742599487
1761476179164588300,3.91858837890625,0.21324566006660461,-0.08747533708810806,0.02629053220152855
1761476179174624300,3.928624267578125,0.17838072776794434,-0.17513418197631836,-0.07273117452859879
1761476179184659200,3.9386591796875,0.1369805485010147,-0.23164485394954681,-0.1719493716955185
1761476179194695200,3.948695068359375,0.10225994139909744,-0.23589777946472168,-0.22943317890167236
1761476179204731100,3.958731201171875,0.11224466562271118,-0.2902486324310303,-0.2445649951696396
1761476179214766300,3.968766357421875,0.1462949961423874,-0.35987791419029236,-0.24902449548244476
1761476179224802300,3.97880224609375,0.16302071511745453,-0.3592587411403656,-0.17657425999641418
1761476179234837200,3.988837158203125,0.1684695929288864,-0.18992525339126587,-0.0008242446929216385
1761476179244873200,3.998873291015625,0.18885022401809692,0.03483569994568825,0.19156651198863983
1761476179254909200,4.0089091796875,0.21987271308898926,0.1969931721687317,0.17435531318187714
1761476179264943400,4.018943359375,0.23435470461845398,0.1505255252122879,-0.15191973745822906
1761476179274979300,4.028979248046875,0.20482896268367767,-0.20946013927459717,-0.7545990943908691
1761476179285014300,4.03901416015625,0.013820390217006207,-0.5289193391799927,-1.4190218448638916
1761476179295050500,4.049050537109375,-0.2569695711135864,-0.5338159799575806,-1.865012288093567
1761476179305085200,4.059085205078125,-0.38305824995040894,-0.26940321922302246,-2.016397476196289
1761476179315121200,4.06912109375,-0.23990599811077118,0.3384190797805786,-1.8971253633499146
1761476179325157000,4.0791572265625,-0.07299451529979706,0.9878000020980835,-1.643938660621643
1761476179335190000,4.08918994140625,-0.045828066766262054,1.2954410314559937,-1.3746987581253052
1761476179345226000,4.09922607421875,-0.08377571403980255,1.1719944477081299,-1.1362923383712769
1761476179355262000,4.109261962890625,-0.11339055001735687,0.8045008778572083,-0.9150582551956177
1761476179365297000,4.119296875,-0.1274413764476776,0.27031657099723816,-0.7163293957710266
1761476179375332900,4.129332763671875,-0.10281386971473694,-0.2265942245721817,-0.4630522131919861
1761476179385367800,4.139367919921875,-0.029272809624671936,-0.5426392555236816,-0.11439968645572662
1761476179395403800,4.14940380859375,0.05018340051174164,-0.7153279781341553,0.23325522243976593
1761476179405439700,4.159439697265625,0.13560456037521362,-0.6762010455131531,0.4724544882774353
1761476179415475000,4.169474853515625,0.1926131695508957,-0.5454638004302979,0.5821266174316406
1761476179425511000,4.179510986328125,0.1810566484928131,-0.4291883111000061,0.5951893925666809
1761476179435547000,4.189546875,0.11777206510305405,-0.3242567181587219,0.56275874376297
1761476179445581800,4.199581787109375,0.04071483761072159,-0.2596377730369568,0.5069050788879395
1761476179455617800,4.20961767578125,-0.03767020255327225,-0.24760384857654572,0.4478963017463684
1761476179465654000,4.219654052734375,-0.12042553722858429,-0.2382710874080658,0.41341501474380493
1761476179475689000,4.22968896484375,-0.26742756366729736,-0.197345569729805,0.37649714946746826
1761476179485725000,4.239724853515625,-0.41655153036117554,-0.12599922716617584,0.3788604140281677
1761476179495760000,4.249759765625,-0.41760188341140747,0.014318829402327538,0.5067231059074402
1761476179505795800,4.2597958984375,-0.2848094701766968,0.18575848639011383,0.7584738731384277
1761476179515832000,4.26983203125,-0.13035491108894348,0.2775762677192688,1.0573770999908447
1761476179525867000,4.279866943359375,-0.00995952170342207,0.2685353755950928,1.3043272495269775
1761476179535903000,4.289903076171875,0.03229108080267906,0.23866286873817444,1.4842733144760132
1761476179545939000,4.29993896484375,-0.020093299448490143,0.22985659539699554,1.561911702156067
1761476179555974000,4.309973876953125,-0.10058002918958664,0.19897307455539703,1.5449291467666626
1761476179566010000,4.320010009765625,-0.17327900230884552,0.21488307416439056,1.4418104887008667
1761476179576045000,4.330045166015625,-0.2295943796634674,0.20670589804649353,1.2982896566390991
1761476179586081000,4.3400810546875,-0.24940457940101624,0.17902207374572754,1.1598659753799438
1761476179596117000,4.350116943359375,-0.22367367148399353,0.18702945113182068,1.0524225234985352
1761476179606152000,4.36015185546875,-0.18845096230506897,0.26490747928619385,0.9702892899513245
1761476179616188200,4.370188232421875,-0.16290152072906494,0.4087772071361542,0.8955219984054565
1761476179626222800,4.380222900390625,-0.1388704925775528,0.5119155645370483,0.8051995635032654
1761476179636258800,4.3902587890625,-0.11240680515766144,0.48694297671318054,0.6897094249725342
1761476179646294800,4.400294677734375,-0.10655158013105392,0.3484668433666229,0.5770556330680847
1761476179656330000,4.410330078125,-0.12135344743728638,0.144618958234787,0.4488261938095093
1761476179666366000,4.420365966796875,-0.14127708971500397,-0.06303943693637848,0.32135504484176636
1761476179676402000,4.43040185546875,-0.16143769025802612,-0.19882647693157196,0.19460414350032806
1761476179686436900,4.440436767578125,-0.1628025472164154,-0.26737943291664124,0.08305816352367401
1761476179696472800,4.450472900390625,-0.1510353684425354,-0.2813742458820343,-0.017762649804353714
1761476179706508000,4.460508056640625,-0.11936158686876297,-0.24895426630973816,-0.12395912408828735
1761476179716544000,4.4705439453125,-0.08256097882986069,-0.1833760142326355,-0.24097181856632233
1761476179726580000,4.480580078125,-0.04511959105730057,-0.12191932648420334,-0.34637975692749023
1761476179736615000,4.490614990234375,-0.024898255243897438,-0.08781597018241882,-0.4654054343700409
1761476179746651000,4.50065087890625,-0.04247751459479332,-0.08413361757993698,-0.578102171421051
1761476179756686000,4.51068603515625,-0.06825995445251465,-0.08317086845636368,-0.6402574181556702
1761476179766722000,4.52072216796875,-0.061076343059539795,-0.038627102971076965,-0.6309943795204163
1761476179776758000,4.530758056640625,-0.01913595199584961,0.0644235908985138,-0.5432689785957336
1761476179786793000,4.54079296875,0.02490181475877762,0.20280490815639496,-0.41641539335250854
1761476179796829000,4.550828857421875,0.06461482495069504,0.24347242712974548,-0.3083008825778961
1761476179806865000,4.560864990234375,0.08692599087953568,0.2303113341331482,-0.2679007053375244
1761476179816900000,4.570900146484375,0.11443103104829788,0.2139337658882141,-0.36114054918289185
1761476179826936000,4.58093603515625,0.1394548863172531,0.03685247525572777,-0.6969004273414612
1761476179836971000,4.590970947265625,0.11837049573659897,-0.3452347218990326,-1.2368848323822021
1761476179847007000,4.601007080078125,0.08474115282297134,-0.7776534557342529,-1.8504632711410522
1761476179857045000,4.611044921875,-0.005185697227716446,-1.0428693294525146,-2.3749196529388428
1761476179867081000,4.6210810546875,-0.14344929158687592,-0.9160051345825195,-2.7126924991607666
1761476179877117000,4.631116943359375,-0.2499934434890747,-0.25742971897125244,-2.7976059913635254
1761476179887151900,4.64115185546875,-0.28591787815093994,0.7488584518432617,-2.5883114337921143
1761476179897187800,4.651187744140625,-0.1903558224439621,1.486405849456787,-2.199082851409912
1761476179907223000,4.66122314453125,0.018351586535573006,1.5875614881515503,-1.726069688796997
1761476179917259000,4.671259033203125,0.1912367045879364,0.8887560367584229,-1.160156488418579
1761476179927295000,4.681294921875,0.265457421541214,-0.336159884929657,-0.48446404933929443
1761476179937330000,4.691329833984375,0.27022504806518555,-1.4165973663330078,0.2423863261938095
1761476179947366000,4.701365966796875,0.25985682010650635,-2.1092922687530518,0.9050681591033936
1761476179957401000,4.711401123046875,0.26258111000061035,-2.258021116256714,1.3549860715866089
1761476179967437000,4.72143701171875,0.24085503816604614,-1.8474048376083374,1.4934872388839722
1761476179977473000,4.73147314453125,0.19214016199111938,-1.247040867805481,1.3180253505706787
1761476179987508000,4.741508056640625,0.06626905500888824,-0.6853570342063904,0.9380472302436829
1761476179997544000,4.7515439453125,-0.09971952438354492,-0.30408138036727905,0.4765787720680237
1761476180007579000,4.761578857421875,-0.28219929337501526,-0.16270241141319275,0.02230420708656311
1761476180017614800,4.77161474609375,-0.4466289281845093,-0.1057870015501976,-0.2794022262096405
1761476180027650800,4.78165087890625,-0.6070084571838379,-0.025165125727653503,-0.39331308007240295
1761476180037685800,4.791685791015625,-0.7403530478477478,0.10740654170513153,-0.37161561846733093
1761476180047722000,4.801721923828125,-0.7826911807060242,0.2544412612915039,-0.2347743809223175
1761476180057757000,4.8117568359375,-0.6970915198326111,0.35866057872772217,0.036594294011592865
1761476180067793000,4.82179296875,-0.5052933096885681,0.4684195816516876,0.4325498640537262
1761476180077828900,4.831828857421875,-0.287549763917923,0.5988070368766785,0.9178219437599182
1761476180087863800,4.84186376953125,-0.13769687712192535,0.6318150758743286,1.3645555973052979
1761476180097900000,4.851900146484375,-0.07815980911254883,0.5178526043891907,1.6893353462219238
1761476180107935000,4.86193505859375,-0.10244570672512054,0.2693730294704437,1.8708913326263428
1761476180117971000,4.871970947265625,-0.14781837165355682,-0.045004069805145264,1.883513331413269
1761476180128007000,4.8820068359375,-0.16462557017803192,-0.26827099919319153,1.7269457578659058
1761476180138041900,4.892041748046875,-0.12985697388648987,-0.3657614290714264,1.4653820991516113
1761476180148078000,4.902078125,-0.05660327523946762,-0.2969070076942444,1.141964077949524
1761476180158113000,4.912113037109375,0.059792354702949524,-0.11515200138092041,0.7978205680847168
1761476180168149000,4.92214892578125,0.19185051321983337,0.09589605778455734,0.4650000035762787
1761476180178185000,4.93218505859375,0.26517364382743835,0.28866347670555115,0.18644139170646667
1761476180188220000,4.942219970703125,0.27919623255729675,0.4077099859714508,-0.006100621074438095
1761476180198256000,4.952256103515625,0.2400280237197876,0.42017999291419983,-0.12832188606262207
1761476180208291000,4.962291015625,0.15102598071098328,0.31415820121765137,-0.18965847790241241
1761476180218327000,4.9723271484375,0.05129404738545418,0.0970420315861702,-0.20523403584957123
1761476180228363000,4.982363037109375,-0.03683394938707352,-0.16356344521045685,-0.20165954530239105
1761476180238398000,4.99239794921875,-0.08855977654457092,-0.37579798698425293,-0.2163846492767334
1761476180248434000,5.002433837890625,-0.09461234509944916,-0.5115688443183899,-0.23868036270141602
1761476180258468900,5.01246875,-0.08340253680944443,-0.5899829864501953,-0.2561812400817871
1761476180268504800,5.0225048828125,-0.04117865115404129,-0.5922048687934875,-0.2751639783382416
1761476180278539800,5.032539794921875,0.02756417915225029,-0.5067942142486572,-0.31919118762016296
1761476180288576000,5.042575927734375,0.11070273816585541,-0.3553817868232727,-0.3827568590641022
1761476180298612000,5.052612060546875,0.18141895532608032,-0.17457959055900574,-0.45906907320022583
1761476180308647000,5.06264697265625,0.22484499216079712,-0.0348091721534729,-0.5194242596626282
1761476180318683000,5.072682861328125,0.21918092668056488,0.05383538454771042,-0.5550846457481384
1761476180328717800,5.0827177734375,0.216615229845047,0.09701108187437057,-0.5449574589729309
1761476180338753000,5.0927529296875,0.2801498472690582,0.0750645250082016,-0.46225404739379883
1761476180348789000,5.1027890625,0.3638492822647095,0.03024032898247242,-0.3403635621070862
1761476180358824000,5.112823974609375,0.4004690945148468,0.09949948638677597,-0.19327490031719208
1761476180368860000,5.12285986328125,0.3703080117702484,0.2630274295806885,-0.1505921632051468
1761476180378894800,5.132894775390625,0.2335296869277954,0.16947749257087708,-0.39883872866630554
1761476180388930800,5.142930908203125,0.015469532459974289,-0.39481621980667114,-1.029688835144043
1761476180398965800,5.1529658203125,-0.20310121774673462,-0.9914061427116394,-1.8972012996673584
1761476180409001700,5.163001708984375,-0.42492786049842834,-1.2928084135055542,-2.837817430496216
1761476180419037700,5.17303759765625,-0.6951377391815186,-0.8040691018104553,-3.4840972423553467
1761476180429073000,5.183072998046875,-0.8011435270309448,0.6198592185974121,-3.5517289638519287
1761476180439108900,5.19310888671875,-0.5743420720100403,2.09725284576416,-3.0706675052642822
1761476180449143800,5.203143798828125,-0.09658005088567734,2.910378932952881,-2.1727209091186523
1761476180459179800,5.2131796875,0.3958542048931122,2.6366357803344727,-1.0953481197357178
1761476180469215000,5.223215087890625,0.6997174620628357,1.4284377098083496,0.004165622405707836
1761476180479251000,5.2332509765625,0.8178254961967468,-0.23844580352306366,1.121711254119873
1761476180489287000,5.243286865234375,0.8252397179603577,-1.8110160827636719,2.079181432723999
1761476180499321900,5.25332177734375,0.7533125281333923,-2.853696584701538,2.7531635761260986
1761476180509357800,5.26335791015625,0.5963380932807922,-2.93137264251709,3.0001819133758545
1761476180519393000,5.27339306640625,0.41725894808769226,-2.2295830249786377,2.7306017875671387
1761476180529429000,5.283428955078125,0.23821064829826355,-1.1070681810379028,2.0281028747558594
1761476180539464000,5.2934638671875,0.12752093374729156,-0.10269349068403244,1.1239217519760132
1761476180549500000,5.3035,0.13311196863651276,0.5308482646942139,0.3374016284942627
1761476180559535900,5.313535888671875,0.17045752704143524,0.6979599595069885,-0.1508333683013916
1761476180569571000,5.323571044921875,0.1712609976530075,0.49354875087738037,-0.31320497393608093
1761476180579607000,5.33360693359375,0.1317836195230484,0.09905372560024261,-0.17970754206180573
1761476180589641700,5.343641845703125,0.024164754897356033,-0.25695177912712097,0.15042375028133392
1761476180599677700,5.353677734375,-0.15087807178497314,-0.4180302917957306,0.49831917881965637
1761476180609713000,5.363712890625,-0.33088645339012146,-0.3680211901664734,0.767598032951355
1761476180619748900,5.373748779296875,-0.4879934787750244,-0.13778115808963776,0.9152928590774536
1761476180629784800,5.383784912109375,-0.5791678428649902,0.1933746635913849,0.9491791725158691
1761476180639819800,5.39381982421875,-0.5725855827331543,0.5276690125465393,0.9387118816375732
1761476180649855700,5.403855712890625,-0.50954270362854,0.7635113596916199,0.9203618764877319
1761476180659891000,5.413890869140625,-0.4207489490509033,0.8602780699729919,0.901716947555542
1761476180669927000,5.423927001953125,-0.3384554088115692,0.8315305709838867,0.9043031334877014
1761476180679961900,5.4339619140625,-0.2621253430843353,0.7019367814064026,0.9254233241081238
1761476180689997800,5.443997802734375,-0.19634100794792175,0.4754392206668854,0.9384363293647766
1761476180700033800,5.45403369140625,-0.16074784100055695,0.2322961688041687,0.9299617409706116
1761476180710069000,5.464069091796875,-0.1345396637916565,0.07197094708681107,0.8959693908691406
1761476180720105000,5.47410498046875,-0.12429000437259674,0.04814771190285683,0.8193801641464233
1761476180730140000,5.484139892578125,-0.11368262767791748,0.14709480106830597,0.6893976926803589
1761476180740176000,5.49417578125,-0.10946324467658997,0.2658775746822357,0.4989272356033325
1761476180750211000,5.504211181640625,-0.098329097032547,0.375617116689682,0.26295652985572815
1761476180760247000,5.5142470703125,-0.079228475689888,0.445734441280365,0.02906884253025055
1761476180770281700,5.52428173828125,-0.05346931889653206,0.41055089235305786,-0.18651191890239716
1761476180780317700,5.534317626953125,-0.04549453407526016,0.291437566280365,-0.3578234910964966
1761476180790354000,5.54435400390625,-0.05601535737514496,0.14130663871765137,-0.4758968651294708
1761476180800388900,5.554388916015625,-0.05868859961628914,-0.0034791352227330208,-0.5412101745605469
1761476180810424800,5.5644248046875,-0.037135373800992966,-0.10427525639533997,-0.5520865321159363
1761476180820459800,5.574459716796875,-0.02497825399041176,-0.11903180927038193,-0.5391004681587219
1761476180830495700,5.584495849609375,-0.05193796381354332,-0.032182659953832626,-0.48981040716171265
1761476180840531000,5.594531005859375,-0.07814304530620575,0.11678576469421387,-0.4161960482597351
1761476180850567000,5.60456689453125,-0.08620123565196991,0.23965974152088165,-0.3916768729686737
1761476180860601900,5.614601806640625,-0.10196638852357864,0.2605227828025818,-0.41367822885513306
1761476180870637800,5.624637939453125,-0.09241309762001038,0.18217472732067108,-0.41847512125968933
1761476180880673800,5.634673828125,-0.02368338592350483,0.08563285320997238,-0.39950859546661377
1761476180890709000,5.644708984375,0.02709190919995308,0.05540943518280983,-0.3448461592197418
1761476180900745000,5.654744873046875,0.03939581662416458,0.11896629631519318,-0.2725556790828705
1761476180910780000,5.66477978515625,0.04138519987463951,0.2671613395214081,-0.2627027630805969
1761476180920815900,5.67481591796875,0.05189236253499985,0.352679580450058,-0.36387547850608826
1761476180930851000,5.68485107421875,0.10599447786808014,0.1519845724105835,-0.639552891254425
1761476180940887000,5.694886962890625,0.13287584483623505,-0.3868551552295685,-1.168677568435669
1761476180950922000,5.704921875,0.035514138638973236,-1.1560152769088745,-1.9050650596618652
1761476180960958000,5.7149580078125,-0.14376938343048096,-1.7239960432052612,-2.6436970233917236
1761476180970993000,5.724992919921875,-0.3591301441192627,-1.384345531463623,-3.249507427215576
1761476180981028900,5.73502880859375,-0.5402368307113647,-0.07881946861743927,-3.656517505645752
1761476180991064800,5.74506494140625,-0.5415675640106201,1.5238524675369263,-3.660531997680664
1761476181001099800,5.755099853515625,-0.27363526821136475,2.5438718795776367,-3.1385490894317627
1761476181011135700,5.7651357421875,0.140985906124115,2.472205400466919,-2.1782991886138916
1761476181021171000,5.7751708984375,0.46498942375183105,1.3158352375030518,-1.033112645149231
1761476181031207000,5.78520703125,0.5885046720504761,-0.3072400391101837,0.16978265345096588
1761476181041241900,5.795241943359375,0.5450027585029602,-1.669317603111267,1.267289638519287
1761476181051277800,5.80527783203125,0.4494357407093048,-2.5277819633483887,2.076535940170288
1761476181061313000,5.81531298828125,0.35872340202331543,-2.8052146434783936,2.514904022216797
1761476181071349000,5.825348876953125,0.37328824400901794,-2.456369161605835,2.474879026412964
1761476181081384000,5.835384033203125,0.46672913432121277,-1.8096859455108643,1.9637348651885986
1761476181091420000,5.845419921875,0.608999490737915,-1.133668303489685,1.166318655014038
1761476181101456000,5.855455810546875,0.7179712653160095,-0.6271832585334778,0.3236272931098938
1761476181111491000,5.865490966796875,0.7261000275611877,-0.38411951065063477,-0.34325113892555237
1761476181121527000,5.875527099609375,0.629849374294281,-0.33618345856666565,-0.6962841153144836
1761476181131562000,5.88556201171875,0.483249306678772,-0.3516916036605835,-0.7805929183959961
1761476181141598000,5.895597900390625,0.27905914187431335,-0.32772329449653625,-0.6714801788330078
1761476181151633000,5.9056328125,0.01992449164390564,-0.1995088756084442,-0.4570179581642151
1761476181161669000,5.915669189453125,-0.23462797701358795,-0.006767233833670616,-0.19600315392017365
1761476181171703800,5.925703857421875,-0.4319913685321808,0.13441306352615356,0.027564693242311478
1761476181181739800,5.93573974609375,-0.4988354444503784,0.23559556901454926,0.2534317076206207
1761476181191774700,5.945774658203125,-0.41807320713996887,0.3296280801296234,0.5305452942848206
1761476181201811000,5.95581103515625,-0.26864102482795715,0.3911508321762085,0.8069601058959961
1761476181211846000,5.965845947265625,-0.12830893695354462,0.36950013041496277,1.0306483507156372
1761476181221881900,5.9758818359375,-0.03937898948788643,0.25744909048080444,1.1811902523040771
1761476181231916800,5.985916748046875,-0.011257072910666466,0.1276644617319107,1.2535696029663086
1761476181241953000,5.995953125,-0.02820778638124466,0.035854872316122055,1.2469109296798706
1761476181251989000,6.005989013671875,-0.08766312152147293,0.030075279995799065,1.1651428937911987
1761476181262024000,6.01602392578125,-0.16537655889987946,0.08943713456392288,1.0079418420791626
1761476181272060000,6.026059814453125,-0.2192472517490387,0.15309707820415497,0.8052815794944763
1761476181282094800,6.0360947265625,-0.25942263007164,0.19803334772586823,0.5803114175796509
1761476181292131000,6.046131103515625,-0.25410109758377075,0.2096351534128189,0.3320736289024353
1761476181302166000,6.056166015625,-0.20915117859840393,0.1798820197582245,0.09403079003095627
1761476181312202000,6.066201904296875,-0.14886626601219177,0.1257021278142929,-0.1166771873831749
1761476181322237000,6.07623681640625,-0.09311147034168243,0.10119687020778656,-0.30120912194252014
1761476181332273000,6.08627294921875,-0.060323961079120636,0.06068060174584389,-0.4440664052963257
1761476181342307800,6.096307861328125,-0.04558425396680832,0.016383519396185875,-0.5341039896011353
1761476181352343800,6.10634375,-0.053804367780685425,0.019400615245103836,-0.5756216049194336
1761476181362378800,6.116378662109375,-0.09397123008966446,0.05069941654801369,-0.5916429758071899
1761476181372414700,6.126414794921875,-0.11037177592515945,0.11969418823719025,-0.591437578201294
1761476181382450000,6.136449951171875,-0.08290037512779236,0.21355348825454712,-0.5649192929267883
1761476181392486000,6.14648583984375,-0.051537126302719116,0.2574160397052765,-0.5348016023635864
1761476181402520600,6.1565205078125,-0.04557489603757858,0.2761620283126831,-0.49324458837509155
1761476181412556800,6.166556884765625,-0.04452401399612427,0.35782280564308167,-0.39444026350975037
1761476181422591700,6.176591796875,0.0027093645185232162,0.4983827471733093,-0.2338879108428955
1761476181432627700,6.186627685546875,0.06322730332612991,0.653537929058075,-0.0435030572116375
1761476181442663700,6.19666357421875,0.11491654813289642,0.8695266842842102,0.16333433985710144
1761476181452698600,6.20669873046875,0.1933000236749649,1.0346685647964478,0.2666599452495575
1761476181462734600,6.216734619140625,0.2621868848800659,1.0184863805770874,0.13480354845523834
1761476181472769800,6.226769775390625,0.3048155903816223,0.7363218069076538,-0.25258201360702515
1761476181482805800,6.2368056640625,0.35850790143013,0.1891612708568573,-0.8257284164428711
1761476181492840700,6.2468408203125,0.3272128403186798,-0.5554385781288147,-1.4843618869781494
1761476181502876700,6.256876708984375,0.1603527069091797,-1.021753191947937,-1.8848642110824585
1761476181512912000,6.266911865234375,-0.02973894029855728,-0.893375813961029,-1.9402896165847778
1761476181522947800,6.27694775390625,-0.22989271581172943,-0.13127027451992035,-1.7683513164520264
1761476181532982800,6.286982666015625,-0.3625524938106537,0.9254640340805054,-1.4663476943969727
1761476181543018800,6.297018798828125,-0.26945894956588745,1.7386125326156616,-1.0874130725860596
1761476181553054000,6.307053955078125,-0.015975290909409523,1.8546546697616577,-0.756456196308136
1761476181563090000,6.31708984375,0.18567386269569397,1.3385882377624512,-0.4487711191177368
1761476181573124900,6.327124755859375,0.2698987126350403,0.4707028865814209,-0.08118431270122528
1761476181583160800,6.337160888671875,0.2432691901922226,-0.44022735953330994,0.28632789850234985
1761476181593195800,6.34719580078125,0.16323161125183105,-1.1568541526794434,0.5542576313018799
1761476181603231700,6.357231689453125,0.08698196709156036,-1.554205298423767,0.6896889209747314
1761476181613266700,6.3672666015625,0.053214676678180695,-1.5336151123046875,0.6288700699806213
1761476181623302700,6.377302734375,0.07029511034488678,-1.2232894897460938,0.3372482359409332
1761476181633337900,6.387337890625,0.07970378547906876,-0.8187915086746216,-0.06950514018535614
1761476181643373800,6.397373779296875,0.03953009471297264,-0.4304955303668976,-0.4636033773422241
1761476181653408800,6.40740869140625,-0.010684073902666569,-0.13264916837215424,-0.7152819633483887
1761476181663444700,6.41744482421875,-0.06172788515686989,0.014194492250680923,-0.8056283593177795
1761476181673479700,6.427479736328125,-0.106376051902771,0.03902048245072365,-0.763608455657959
1761476181683516000,6.437515869140625,-0.14230941236019135,-0.008633144199848175,-0.6057150363922119
1761476181693550800,6.44755078125,-0.14538456499576569,-0.08771757781505585,-0.3365155756473541
1761476181703586800,6.4575869140625,-0.126999169588089,-0.1510113775730133,0.011166122741997242
1761476181713621800,6.467621826171875,-0.12373839318752289,-0.1299939900636673,0.3828757703304291
1761476181723657700,6.47765771484375,-0.158140167593956,0.012604359537363052,0.7272370457649231
1761476181733693000,6.48769287109375,-0.19141529500484467,0.21791782975196838,0.9865232110023499
1761476181743729000,6.49772900390625,-0.1907138079404831,0.4231381416320801,1.1131210327148438
1761476181753763600,6.507763671875,-0.15640591084957123,0.5369036197662354,1.139122486114502
1761476181763799600,6.517799560546875,-0.0938102975487709,0.5625771284103394,1.114464521408081
1761476181773834800,6.527834716796875,-0.01523639913648367,0.5250755548477173,1.082400918006897
1761476181783870700,6.53787060546875,0.05256061628460884,0.4599837362766266,1.0247501134872437
1761476181793905700,6.54790576171875,0.09580768644809723,0.3698919415473938,0.9566552042961121
1761476181803941600,6.557941650390625,0.13525909185409546,0.24840077757835388,0.9072925448417664
1761476181813976800,6.567976806640625,0.14897702634334564,0.14280244708061218,0.8633905649185181
1761476181824012800,6.5780126953125,0.1368536651134491,0.09764021635055542,0.8110743165016174
1761476181834047700,6.5880478515625,0.09550409764051437,0.14093628525733948,0.7330285310745239
1761476181844083700,6.598083740234375,0.0438118651509285,0.19665910303592682,0.6084277033805847
1761476181854119000,6.608118896484375,-0.026174943894147873,0.19056552648544312,0.4393702447414398
1761476181864155000,6.61815478515625,-0.09470763057470322,0.10104542970657349,0.23960019648075104
1761476181874189800,6.62818994140625,-0.13036735355854034,-0.007170252036303282,0.03863886743783951
1761476181884225800,6.638225830078125,-0.13245533406734467,-0.13385015726089478,-0.1316383332014084
1761476181894261000,6.648260986328125,-0.09263760596513748,-0.25334274768829346,-0.1971166878938675
1761476181904297000,6.658296875,-0.025900928303599358,-0.3492237627506256,-0.14665870368480682
1761476181914331600,6.66833154296875,0.0404173769056797,-0.37516748905181885,-0.004204342141747475
1761476181924367600,6.67836767578125,0.07481170445680618,-0.2634114921092987,0.17348797619342804
1761476181934402800,6.68840283203125,0.052444081753492355,-0.03824519366025925,0.3230087459087372
1761476181944438800,6.698438720703125,-0.0859285518527031,0.1588182896375656,0.36627060174942017
1761476181954473700,6.7084736328125,-0.24979685246944427,0.2909478545188904,0.3308183252811432
1761476181964509700,6.718509765625,-0.2918500304222107,0.31661713123321533,0.28433552384376526
1761476181974544600,6.728544677734375,-0.2118300348520279,0.3056854009628296,0.31328675150871277
1761476181984580900,6.738580810546875,-0.0655578151345253,0.24456249177455902,0.4380672574043274
1761476181994615800,6.74861572265625,0.11315014213323593,0.2897624671459198,0.6533622741699219
1761476182004651800,6.75865185546875,0.24707074463367462,0.49206238985061646,0.8903869390487671
1761476182014686700,6.768686767578125,0.27462220191955566,0.4712236821651459,0.9729814529418945
1761476182024722700,6.77872265625,0.19141824543476105,0.26056715846061707,0.8015294075012207
1761476182034758000,6.7887578125,0.05351709946990013,-0.08228181302547455,0.42906132340431213
1761476182044793900,6.7987939453125,-0.08104623854160309,-0.44038692116737366,0.10140883922576904
1761476182054828800,6.808828857421875,-0.11948257684707642,-0.5593844056129456,-0.06853998452425003
1761476182064864800,6.81886474609375,-0.025758571922779083,-0.1724988967180252,-0.08134902268648148
1761476182074899700,6.828899658203125,0.07603170722723007,0.38339176774024963,-0.05145983397960663
1761476182084935700,6.838935791015625,0.09866569191217422,0.838001012802124,-0.058461397886276245
1761476182094970600,6.848970703125,0.1632193773984909,1.1152894496917725,-0.07321930676698685
1761476182105006600,6.859006591796875,0.19861887395381927,1.1174523830413818,-0.13883069157600403
1761476182115041800,6.869041748046875,0.14824199676513672,0.8780576586723328,-0.22299189865589142
1761476182125077800,6.879077880859375,0.04565045237541199,0.5058450698852539,-0.30708715319633484
1761476182135112700,6.88911279296875,-0.07074034214019775,0.11041412502527237,-0.3821867108345032
1761476182145148700,6.899148681640625,-0.17057554423809052,-0.17858760058879852,-0.4659918546676636
1761476182155183900,6.909183837890625,-0.22194179892539978,-0.2780052721500397,-0.5393121242523193
1761476182165219800,6.9192197265625,-0.22241471707820892,-0.2076222449541092,-0.6077877283096313
1761476182175254800,6.9292548828125,-0.1735220104455948,-0.04813777655363083,-0.6480544805526733
1761476182185290800,6.939290771484375,-0.1186784952878952,0.10847441852092743,-0.6468138694763184
1761476182195326000,6.949325927734375,-0.08406272530555725,0.1902047097682953,-0.5974385738372803
1761476182205362000,6.95936181640625,-0.0657423809170723,0.12365727126598358,-0.4979667365550995
1761476182215396900,6.96939697265625,-0.0966973751783371,-0.046372778713703156,-0.37189799547195435
1761476182225432800,6.979432861328125,-0.16290245950222015,-0.24858570098876953,-0.19448557496070862
1761476182235467800,6.9894677734375,-0.1675073355436325,-0.38995134830474854,0.09417550265789032
1761476182245503700,6.999503662109375,-0.10174693912267685,-0.40711525082588196,0.43258440494537354
1761476182255538700,7.00953857421875,0.006582464091479778,-0.3573746085166931,0.7129103541374207
1761476182265574700,7.01957470703125,0.09471582621335983,-0.27888762950897217,0.8864746689796448
1761476182275609900,7.02960986328125,0.11458807438611984,-0.20336012542247772,0.9610021710395813
1761476182285645800,7.039645751953125,0.0758575052022934,-0.16133274137973785,0.9621836543083191
1761476182295680800,7.0496806640625,0.01359865814447403,-0.07988874614238739,0.8912141919136047
1761476182305716700,7.059716796875,-0.039325565099716187,0.019143465906381607,0.7933903336524963
1761476182315751700,7.069751708984375,-0.07219669967889786,0.12906916439533234,0.6851645112037659
1761476182325788000,7.079787841796875,-0.0804850161075592,0.24169009923934937,0.5900282263755798
1761476182335824000,7.089823974609375,-0.05970383435487747,0.3393554091453552,0.5385647416114807
1761476182345859800,7.09985986328125,-0.023857399821281433,0.38351571559906006,0.5166266560554504
1761476182355894800,7.109894775390625,0.0393090546131134,0.38409656286239624,0.5114532113075256
1761476182365929700,7.1199296875,0.10646116733551025,0.3605208694934845,0.5092947483062744
1761476182375965700,7.129965576171875,0.12657736241817474,0.3334066867828369,0.516282856464386
1761476182386000600,7.140000732421875,0.07807136327028275,0.2995912432670593,0.4944571852684021
1761476182396036600,7.15003662109375,-0.028752289712429047,0.2226187288761139,0.4387659728527069
1761476182406071600,7.160071533203125,-0.12871849536895752,0.10544420033693314,0.35179877281188965
1761476182416107800,7.170107666015625,-0.1786530315876007,-0.03467562422156334,0.269802987575531
1761476182426142700,7.180142822265625,-0.19310055673122406,-0.17161794006824493,0.19811078906059265
1761476182436178700,7.1901787109375,-0.20324426889419556,-0.2868843376636505,0.13483461737632751
1761476182446213600,7.200213623046875,-0.18853852152824402,-0.34681421518325806,0.07878266274929047
1761476182456249600,7.21024951171875,-0.17840997874736786,-0.297614187002182,0.022339362651109695
1761476182466284800,7.220284912109375,-0.17766650021076202,-0.224727064371109,-0.053592097014188766
1761476182476320800,7.23032080078125,-0.20880310237407684,-0.2088804543018341,-0.17117838561534882
1761476182486355700,7.240355712890625,-0.27396315336227417,-0.22952055931091309,-0.30402708053588867
1761476182496391700,7.2503916015625,-0.3757614195346832,-0.31303539872169495,-0.41070693731307983
1761476182506426600,7.260426513671875,-0.4243861138820648,-0.4612703025341034,-0.47718507051467896
1761476182516462800,7.270462890625,-0.3548693358898163,-0.5023165345191956,-0.4460764229297638
1761476182526497500,7.28049755859375,-0.1649128943681717,-0.10771741718053818,-0.17348933219909668
1761476182536533500,7.290533447265625,0.03812677785754204,0.5972256064414978,0.30021432042121887
1761476182546568700,7.300568603515625,0.10661786049604416,1.0597189664840698,0.693777859210968
1761476182556604700,7.310604736328125,0.014523353427648544,0.9888713955879211,0.8322688937187195
1761476182566639600,7.3206396484375,-0.14175526797771454,0.47638702392578125,0.7512127161026001
1761476182576674800,7.3306748046875,-0.21094126999378204,-0.5534685254096985,0.5705875158309937
1761476182586710800,7.340710693359375,-0.13008949160575867,-1.9175293445587158,0.16355110704898834
1761476182596745700,7.350745849609375,0.14209197461605072,-2.791110038757324,-0.4666188657283783
1761476182606781700,7.36078173828125,0.4343334436416626,-2.3859455585479736,-1.1464985609054565
1761476182616816600,7.370816650390625,0.4208219051361084,-0.843080997467041,-1.726649522781372
1761476182626852900,7.380852783203125,0.07018484175205231,1.0572593212127686,-2.016004800796509
1761476182636887800,7.3908876953125,-0.2091629058122635,2.3823959827423096,-1.8134227991104126
1761476182646923800,7.400923828125,-0.167979434132576,2.6244778633117676,-1.3989222049713135
1761476182656958500,7.41095849609375,0.018446356058120728,1.8558223247528076,-0.963061511516571
1761476182666994700,7.42099462890625,0.1842767596244812,0.5471862554550171,-0.5025931000709534
1761476182677029600,7.431029541015625,0.30928608775138855,-0.8132693767547607,-0.03693434223532677
1761476182687065600,7.441065673828125,0.3473101258277893,-1.8323692083358765,0.3544631004333496
1761476182697100500,7.4511005859375,0.26829439401626587,-2.405921697616577,0.6124498844146729
1761476182707136500,7.461136474609375,0.15222971141338348,-2.5239486694335938,0.635840892791748
1761476182717171700,7.471171630859375,0.0427948422729969,-2.1305947303771973,0.3490637242794037
1761476182727207700,7.481207763671875,-0.031523697078228,-1.437766432762146,-0.20395714044570923
1761476182737242600,7.49124267578125,-0.14321106672286987,-0.7190597653388977,-0.893303394317627
1761476182747277800,7.50127783203125,-0.3138374984264374,-0.09774288535118103,-1.54899001121521
1761476182757313800,7.511313720703125,-0.48564842343330383,0.38777267932891846,-2.018601179122925
1761476182767348700,7.5213486328125,-0.6106274724006653,0.6022195219993591,-2.2560651302337646
1761476182777384700,7.531384765625,-0.7466702461242676,0.5557222962379456,-2.289525270462036
1761476182787420000,7.541419921875,-0.807450532913208,0.2988228499889374,-2.0999093055725098
1761476182797456000,7.551455810546875,-0.7282291650772095,-0.0706782266497612,-1.6714935302734375
1761476182807490600,7.561490478515625,-0.5735824108123779,-0.3204733431339264,-1.0867053270339966
1761476182817526500,7.571526611328125,-0.41742292046546936,-0.2801898419857025,-0.491645872592926
1761476182827561700,7.581561767578125,-0.2586233913898468,-0.09525781869888306,0.05487807095050812
1761476182837597700,7.59159765625,-0.12148817628622055,0.04567533731460571,0.5044228434562683
1761476182847632600,7.601632568359375,-0.06609027087688446,0.08371306955814362,0.8498969674110413
1761476182857668600,7.611668701171875,-0.09905301034450531,0.08660659939050674,1.1144813299179077
1761476182867703600,7.62170361328125,-0.16031824052333832,0.043514154851436615,1.312271237373352
1761476182877738800,7.63173876953125,-0.22817984223365784,-0.0074294498190283775,1.43479585647583
1761476182887774700,7.641774658203125,-0.2855316400527954,-0.04899275302886963,1.479540228843689
1761476182897809700,7.6518095703125,-0.29736191034317017,-0.0499485619366169,1.4664027690887451
1761476182907845600,7.661845703125,-0.24412164092063904,0.015754884108901024,1.4043846130371094
1761476182917880800,7.671880859375,-0.1616573929786682,0.12383022159337997,1.3223052024841309
1761476182927916800,7.681916748046875,-0.08515767753124237,0.21028703451156616,1.2381751537322998
1761476182937951700,7.69195166015625,-0.02460724487900734,0.2275848090648651,1.1424592733383179
1761476182947987700,7.70198779296875,-0.006427596788853407,0.21884384751319885,1.0380451679229736
1761476182958022700,7.712022705078125,-0.0715528056025505,0.18300355970859528,0.9268400073051453
1761476182968058600,7.72205859375,-0.17683936655521393,0.12207233905792236,0.80162113904953
1761476182978093600,7.732093505859375,-0.27578219771385193,0.060463033616542816,0.6723286509513855
1761476182988128800,7.742128662109375,-0.32685208320617676,0.013568347319960594,0.5760591626167297
1761476182998164700,7.752164794921875,-0.32245439291000366,-0.03443166986107826,0.4777027666568756
1761476183008199700,7.76219970703125,-0.24781307578086853,-0.10550031810998917,0.373772531747818
1761476183018235600,7.772235595703125,-0.13178500533103943,-0.1415667086839676,0.2204948365688324
1761476183028270800,7.782270751953125,-0.01032740157097578,-0.10273221880197525,0.0528724268078804
1761476183038306800,7.792306884765625,0.049428604543209076,0.07391179352998734,-0.16712066531181335
1761476183048341800,7.802341796875,0.028983842581510544,0.4118366837501526,-0.3640606999397278
1761476183058377700,7.812377685546875,-0.1293400228023529,0.7857801914215088,-0.42241987586021423
1761476183068412700,7.82241259765625,-0.41100770235061646,0.952844500541687,-0.27684491872787476
1761476183078449000,7.832448974609375,-0.6366506814956665,0.7600648999214172,0.01579812914133072
1761476183088483600,7.842483642578125,-0.5946313738822937,0.303435742855072,0.3985961377620697
1761476183098518500,7.8525185546875,-0.20212431252002716,-0.4241824746131897,0.7303258776664734
1761476183108554500,7.862554443359375,0.26512202620506287,-1.3183289766311646,0.7619796991348267
1761476183118589700,7.872589599609375,0.5311387777328491,-2.056753635406494,0.2848655879497528
1761476183128625700,7.882625732421875,0.5806726813316345,-2.131443738937378,-0.6253560185432434
1761476183138660600,7.89266064453125,0.45590758323669434,-1.3838521242141724,-1.6844903230667114
1761476183148696600,7.902696533203125,0.22413694858551025,0.040826477110385895,-2.472475528717041
1761476183158731800,7.912731689453125,0.007278935052454472,1.5657570362091064,-2.5683422088623047
1761476183168767700,7.922767822265625,-0.0574062317609787,2.405221462249756,-2.0371923446655273
1761476183178802700,7.932802734375,0.02244066260755062,2.373318910598755,-1.2162460088729858
1761476183188838000,7.942837890625,0.1480085551738739,1.478567123413086,-0.49591684341430664
1761476183198873900,7.952873779296875,0.27238962054252625,0.07382184267044067,0.021685026586055756
1761476183208908800,7.96290869140625,0.393265962600708,-1.2238730192184448,0.3652389943599701
1761476183218944800,7.97294482421875,0.4878806173801422,-2.086648464202881,0.5540344715118408
1761476183228979700,7.982979736328125,0.5761807560920715,-2.468714714050293,0.6064567565917969
1761476183239015700,7.993015625,0.6482906341552734,-2.2364673614501953,0.44242095947265625
1761476183249050600,8.003050537109376,0.6270421147346497,-1.5021322965621948,0.08924053609371185
1761476183259086600,8.013086669921876,0.5446313619613647,-0.6857873797416687,-0.3751351237297058
1761476183269118700,8.02311865234375,0.4070320725440979,-0.0957697182893753,-0.8786318898200989
1761476183279154700,8.03315478515625,0.23410022258758545,0.14615395665168762,-1.2965407371520996
1761476183289189600,8.043189697265625,0.07431209087371826,0.10449936240911484,-1.513161540031433
1761476183299224600,8.053224609375,-0.04540073126554489,-0.06598582118749619,-1.4945420026779175
1761476183309260500,8.063260498046875,-0.1474027782678604,-0.28054895997047424,-1.2713608741760254
1761476183319295700,8.073295654296874,-0.2184082418680191,-0.46219518780708313,-0.920198917388916
1761476183329331700,8.083331787109374,-0.24716608226299286,-0.5392235517501831,-0.4818577170372009
1761476183339366400,8.093366455078124,-0.19253931939601898,-0.4352468252182007,0.001649320125579834
1761476183349402400,8.10340234375,-0.08754419535398483,-0.16456611454486847,0.44489696621894836
1761476183359437600,8.1134375,-0.019127855077385902,0.16297100484371185,0.7875871658325195
1761476183369472500,8.123472412109376,-0.0435473695397377,0.38703829050064087,1.0746091604232788
1761476183379508500,8.133508544921876,-0.11390195786952972,0.42969921231269836,1.3256237506866455
1761476183389543200,8.143543212890625,-0.17027068138122559,0.3691744804382324,1.5209591388702393
1761476183399579400,8.153579345703125,-0.1930636167526245,0.2722010612487793,1.637761116027832
1761476183409614300,8.1636142578125,-0.17392092943191528,0.18958574533462524,1.656959056854248
1761476183419650300,8.173650390625,-0.13345950841903687,0.1433064043521881,1.598097562789917
1761476183429685200,8.183685302734375,-0.09220409393310547,0.11900269240140915,1.4518531560897827
1761476183439720400,8.193720458984375,-0.049451038241386414,0.1654950976371765,1.2276901006698608
1761476183449756400,8.20375634765625,0.022947635501623154,0.34307610988616943,0.9703091979026794
1761476183459791400,8.213791259765625,0.0671214908361435,0.5478473901748657,0.7142243981361389
1761476183469827300,8.223827392578125,0.07945425808429718,0.6591617465019226,0.5027478933334351
1761476183479862500,8.233862548828125,0.06140974164009094,0.6358247399330139,0.3625492453575134
1761476183489898500,8.2438984375,0.021684713661670685,0.522258996963501,0.2662673592567444
1761476183499933400,8.253933349609374,-0.01264902576804161,0.35739925503730774,0.20061643421649933
1761476183509968400,8.263968505859374,-0.034823350608348846,0.1949455738067627,0.1504005342721939
1761476183520004600,8.274004638671874,-0.03923807293176651,0.06807231158018112,0.1039464920759201
1761476183530039300,8.284039306640626,-0.04997367411851883,-0.00694324029609561,0.07338176667690277
1761476183540075300,8.2940751953125,-0.09851564466953278,-0.08100494742393494,0.046993304044008255
1761476183550110500,8.3041103515625,-0.11570858210325241,-0.0646856278181076,0.05555187165737152
1761476183560146400,8.314146484375,-0.07746265828609467,0.05261730030179024,0.09464520961046219
1761476183570181400,8.324181396484375,-0.01170928031206131,0.21703886985778809,0.12143722176551819
1761476183580216300,8.33421630859375,0.051680609583854675,0.31802406907081604,0.11287888884544373
1761476183590252300,8.344252197265625,0.08958683907985687,0.3125726580619812,0.052564505487680435
1761476183600287500,8.35428759765625,0.12024354934692383,0.20753014087677002,-0.041313521564006805
1761476183610323500,8.364323486328125,0.08273225277662277,0.09275006502866745,-0.17266543209552765
1761476183620358400,8.3743583984375,0.019516799598932266,-0.12475482374429703,-0.27820518612861633
1761476183630394400,8.384394287109375,-0.058613330125808716,-0.422632098197937,-0.3281322717666626
1761476183640429600,8.3944296875,-0.03926520049571991,-0.6099948287010193,-0.3187454044818878
1761476183650464300,8.40446435546875,0.19735008478164673,-0.6075299978256226,-0.38584059476852417
1761476183660500200,8.414500244140624,0.6067575216293335,-0.6900464296340942,-0.7456812858581543
1761476183670535400,8.424535400390624,0.8973687887191772,-0.9651997685432434,-1.435065746307373
1761476183680571400,8.4345712890625,0.9074658751487732,-1.1296888589859009,-2.1618332862854004
1761476183690606300,8.4446064453125,0.6506152153015137,-1.0253407955169678,-2.685650110244751
1761476183700642300,8.454642333984374,0.1503036469221115,-0.44813039898872375,-2.887000560760498
1761476183710677500,8.464677490234376,-0.27887558937072754,0.4370105266571045,-2.7016613483428955
1761476183720712400,8.47471240234375,-0.33790239691734314,1.3814343214035034,-2.170433521270752
1761476183730748400,8.48474853515625,-0.09089943021535873,2.024867534637451,-1.522487759590149
1761476183740783400,8.494783447265625,0.19853930175304413,2.040283679962158,-0.9012358784675598
1761476183750819300,8.5048193359375,0.35796093940734863,1.4639627933502197,-0.292196124792099
1761476183760854500,8.5148544921875,0.3724125623703003,0.5118973255157471,0.33598604798316956
1761476183770889200,8.52488916015625,0.30034300684928894,-0.497860312461853,0.9393903613090515
1761476183780925400,8.534925537109375,0.23220470547676086,-1.3286826610565186,1.4785630702972412
1761476183790960400,8.54496044921875,0.23632469773292542,-1.5881966352462769,1.8358384370803833
1761476183800996400,8.554996337890625,0.3262793719768524,-1.1890820264816284,1.759481430053711
1761476183811031300,8.56503125,0.4483223855495453,-0.5174016952514648,1.2693618535995483
1761476183821067300,8.5750673828125,0.5637978315353394,-0.014281846582889557,0.5794708132743835
1761476183831102500,8.5851025390625,0.6021893620491028,0.1624010056257248,0.01848444528877735
1761476183841137400,8.595137451171874,0.48145386576652527,0.17749792337417603,-0.26541706919670105
1761476183851177500,8.605177490234375,0.23731520771980286,0.17262908816337585,-0.23900748789310455
1761476183861212400,8.61521240234375,-0.034373823553323746,0.17265546321868896,0.03419768437743187
1761476183871248400,8.625248291015625,-0.26689279079437256,0.18070943653583527,0.42970794439315796
1761476183881283300,8.635283447265625,-0.4296095371246338,0.20174548029899597,0.8182554244995117
1761476183891319600,8.645319580078125,-0.4786149263381958,0.21454940736293793,1.1399686336517334
1761476183901354200,8.655354248046875,-0.4033800959587097,0.2681569457054138,1.401716947555542
1761476183911390200,8.66539013671875,-0.27556484937667847,0.3558526933193207,1.588667392730713
1761476183921425400,8.67542529296875,-0.16924424469470978,0.4616299867630005,1.6860030889511108
1761476183931460400,8.68546044921875,-0.11510244756937027,0.573025107383728,1.6730002164840698
1761476183941496300,8.695496337890624,-0.11408725380897522,0.6238928437232971,1.551475167274475
1761476183951531500,8.705531494140626,-0.13407643139362335,0.5824845433235168,1.3715320825576782
1761476183961567500,8.7155673828125,-0.14606544375419617,0.6024904847145081,1.1806550025939941
1761476183971602400,8.7256025390625,-0.10763463377952576,0.6528928875923157,1.0100445747375488
1761476183981637400,8.735637451171876,-0.11168104410171509,0.6184092164039612,0.8635520935058594
1761476183991673300,8.74567333984375,-0.1355382800102234,0.5609815120697021,0.7661093473434448
1761476184001708500,8.75570849609375,-0.11999501287937164,0.4708974361419678,0.7042443752288818
1761476184011744500,8.76574462890625,-0.08819438517093658,0.400547593832016,0.6199578046798706
1761476184021779200,8.775779296875,-0.06455349922180176,0.4230542480945587,0.5099678635597229
1761476184031814400,8.785814453125,-0.049573563039302826,0.507977306842804,0.373557984828949
1761476184041850400,8.795850341796875,-0.026987560093402863,0.5563551783561707,0.2269083857536316
1761476184051885300,8.80588525390625,-0.029935427010059357,0.509472668170929,0.06079700589179993
1761476184061921300,8.81592138671875,-0.04668431356549263,0.40097177028656006,-0.11137315630912781
1761476184071956500,8.82595654296875,-0.06808772683143616,0.2128159999847412,-0.2604828476905823
1761476184081992400,8.835992431640625,-0.10011489689350128,0.0033389448653906584,-0.37926197052001953
1761476184092027400,8.84602734375,-0.10172604024410248,-0.16503410041332245,-0.4278123676776886
1761476184102062300,8.856062255859374,-0.03450572490692139,-0.23588190972805023,-0.3883802592754364
1761476184112098600,8.8660986328125,0.09492488205432892,-0.18687774240970612,-0.26979801058769226
1761476184122133500,8.876133544921874,0.2592879831790924,-0.04306384548544884,-0.0712372288107872
1761476184132169500,8.88616943359375,0.40735554695129395,0.1756383627653122,0.15076671540737152
1761476184142204200,8.8962041015625,0.4699994921684265,0.31756114959716797,0.2914561927318573
1761476184152239400,8.9062392578125,0.4130462110042572,0.3182234764099121,0.3243663012981415
1761476184162275300,8.916275390625,0.3362371623516083,0.13899408280849457,0.2878943085670471
1761476184172310300,8.926310302734375,0.3637392818927765,-0.07069387286901474,0.23242919147014618
1761476184182346200,8.93634619140625,0.5396557450294495,-0.16695436835289001,0.21855172514915466
1761476184192381400,8.94638134765625,0.7041299343109131,-0.19360516965389252,0.19438274204730988
1761476184202416400,8.95641650390625,0.7977637052536011,-0.2749437093734741,-0.0915941596031189
1761476184212452400,8.966452392578125,0.8281126618385315,-0.5391393303871155,-0.6817361116409302
1761476184222487600,8.976487548828125,0.7829979062080383,-1.0136197805404663,-1.4438430070877075
1761476184232523500,8.9865234375,0.7414497137069702,-1.264668345451355,-2.1338226795196533
1761476184242558500,8.996558349609375,0.7160809636116028,-0.8174996376037598,-2.630197763442993
1761476184252593400,9.006593505859374,0.5439645648002625,0.2476644515991211,-2.795015335083008
1761476184262629600,9.016629638671875,0.2449595332145691,1.399304986000061,-2.4977474212646484
1761476184272664300,9.026664306640624,0.02490454912185669,2.114203691482544,-1.7655282020568848
1761476184282699300,9.03669921875,0.0442899651825428,2.1670422554016113,-0.8848354816436768
1761476184292735200,9.0467353515625,0.2681441605091095,1.5355603694915771,-0.15013845264911652
1761476184302770400,9.0567705078125,0.49720287322998047,0.35429370403289795,0.3501504957675934
1761476184312806400,9.066806396484376,0.6212277412414551,-0.8473455309867859,0.6448435187339783
1761476184322841300,9.07684130859375,0.6566331386566162,-1.7867082357406616,0.7895980477333069
1761476184332876000,9.0868759765625,0.6247484087944031,-2.3491334915161133,0.7989978194236755
1761476184342912000,9.096912109375,0.5768751502037048,-2.4378111362457275,0.7316741347312927
1761476184352947000,9.106947021484375,0.5044925808906555,-2.007661819458008,0.5786191821098328
1761476184362983000,9.11698291015625,0.3879731595516205,-1.3094758987426758,0.3656325936317444
1761476184373017900,9.127017822265625,0.24907663464546204,-0.47252658009529114,0.09161381423473358
1761476184383052800,9.137052734375,0.06560826301574707,0.341543972492218,-0.2957861125469208
1761476184393088800,9.1470888671875,-0.10111629962921143,0.9102638363838196,-0.745064914226532
1761476184403124000,9.1571240234375,-0.23830744624137878,1.0824006795883179,-1.1099467277526855
1761476184413160000,9.167159912109375,-0.3772953748703003,0.8827056884765625,-1.2952563762664795
1761476184423195000,9.17719482421875,-0.5242241024971008,0.46630150079727173,-1.3369311094284058
1761476184433229800,9.187229736328124,-0.6103640198707581,0.04258379340171814,-1.2383129596710205
1761476184443265800,9.197265869140624,-0.5593282580375671,-0.21380165219306946,-0.9824842810630798
1761476184453301000,9.207301025390626,-0.4578251242637634,-0.2587531805038452,-0.6097904443740845
1761476184463337000,9.2173369140625,-0.3823079764842987,-0.1055942252278328,-0.13951615989208221
1761476184473372000,9.227371826171876,-0.33313775062561035,0.06599974632263184,0.3397703468799591
1761476184483406800,9.23740673828125,-0.3665289878845215,0.18587101995944977,0.713401198387146
1761476184493443000,9.247443115234375,-0.45776090025901794,0.279462605714798,0.956826388835907
1761476184503477800,9.257477783203125,-0.570458173751831,0.316297322511673,1.1095064878463745
1761476184513513700,9.267513671875,-0.6675302982330322,0.30647024512290955,1.1886862516403198
1761476184523549000,9.277548828125,-0.7239072918891907,0.2783259451389313,1.2166569232940674
1761476184533584000,9.287583984375,-0.7115903496742249,0.28175777196884155,1.1927944421768188
1761476184543619800,9.297619873046875,-0.6223281025886536,0.2933257520198822,1.1504374742507935
1761476184553654800,9.30765478515625,-0.4995747208595276,0.2849352955818176,1.094139575958252
1761476184563690000,9.31768994140625,-0.38475650548934937,0.28604477643966675,1.0394645929336548
1761476184573726000,9.327725830078125,-0.29818275570869446,0.2993830740451813,0.9726024866104126
1761476184583761000,9.337760986328124,-0.23038852214813232,0.2873634397983551,0.8634880185127258
1761476184593796900,9.347796875,-0.1775784194469452,0.27646955847740173,0.7064389586448669
1761476184603832000,9.35783203125,-0.15587711334228516,0.23486727476119995,0.517477810382843
1761476184613866800,9.36786669921875,-0.16619935631752014,0.1387379765510559,0.3358858823776245
1761476184623902700,9.37790283203125,-0.2118411362171173,0.04278455302119255,0.20984616875648499
1761476184633938000,9.38793798828125,-0.2729838788509369,-0.05326605960726738,0.11211614310741425
1761476184643972900,9.397972900390625,-0.3381514251232147,-0.09841436892747879,0.03489513322710991
1761476184654008800,9.4080087890625,-0.3349718451499939,-0.041120465844869614,-0.010570086538791656
1761476184664043800,9.418043701171875,-0.26583459973335266,0.06277583539485931,-0.1064089983701706
1761476184674080000,9.428080078125,-0.20932886004447937,0.16940850019454956,-0.22323644161224365
1761476184684115000,9.438114990234375,-0.1692080795764923,0.2528485357761383,-0.3550168573856354
1761476184694150000,9.44814990234375,-0.1646028608083725,0.30933985114097595,-0.49926841259002686
1761476184704185900,9.458185791015625,-0.21201857924461365,0.4277309477329254,-0.5835766196250916
1761476184714221000,9.468220947265625,-0.22597604990005493,0.6509383916854858,-0.5302050709724426
1761476184724255700,9.478255859375,-0.18922336399555206,0.7619181871414185,-0.34623846411705017
1761476184734291700,9.488291748046874,-0.1610351800918579,0.7159925103187561,-0.05814941227436066
1761476184744327000,9.498326904296874,-0.14980196952819824,0.6630678176879883,0.2646549940109253
1761476184754363000,9.50836279296875,-0.20194490253925323,0.5401280522346497,0.4265776574611664
1761476184764397800,9.518397705078126,-0.3674294948577881,0.24146705865859985,0.29452401399612427
1761476184774433000,9.52843310546875,-0.5367311835289001,-0.19651637971401215,-0.1980200558900833
1761476184784469000,9.538468994140626,-0.5944394469261169,-0.8277915716171265,-0.9877123236656189
1761476184794504000,9.54850390625,-0.4883398115634918,-1.3211305141448975,-1.7737159729003906
1761476184804539000,9.558538818359375,-0.277584433555603,-1.320662260055542,-2.369415521621704
1761476184814574800,9.568574951171875,-0.07385431975126266,-0.4420354664325714,-2.673588752746582
1761476184824610000,9.578610107421875,0.06541382521390915,0.9685442447662354,-2.559232473373413
1761476184834646000,9.58864599609375,0.1765897274017334,2.033008337020874,-2.113884687423706
1761476184844680700,9.5986806640625,0.1976047307252884,2.391798973083496,-1.4713728427886963
1761476184854716000,9.6087158203125,0.08733616769313812,1.9837687015533447,-0.8097962737083435
1761476184864751900,9.618751953125,-0.06620758026838303,0.9623404145240784,-0.2064850777387619
1761476184874786800,9.628786865234375,-0.20392316579818726,-0.24876679480075836,0.3406509757041931
1761476184884822000,9.638822021484375,-0.2849101722240448,-1.1752901077270508,0.6757211089134216
1761476184894858000,9.64885791015625,-0.28846117854118347,-1.6937366724014282,0.8149581551551819
1761476184904893000,9.658892822265624,-0.2019617110490799,-1.7138721942901611,0.7845020294189453
1761476184914927900,9.668927978515624,-0.016109105199575424,-1.3151088953018188,0.6193023920059204
1761476184924963800,9.6789638671875,0.16582447290420532,-0.8268643021583557,0.3333265781402588
1761476184934999000,9.6889990234375,0.26792651414871216,-0.5084322690963745,0.010923663154244423
1761476184945035000,9.699034912109376,0.30616337060928345,-0.46402138471603394,-0.26327380537986755
1761476184955069700,9.709069580078125,0.24383698403835297,-0.7143248915672302,-0.4672383964061737
1761476184965105000,9.71910498046875,0.08098123222589493,-1.0866364240646362,-0.6190968751907349
1761476184975140900,9.729140869140625,-0.12320219725370407,-1.3828368186950684,-0.7497941851615906
1761476184985175800,9.73917578125,-0.28573814034461975,-1.4791840314865112,-0.840618371963501
1761476184995211000,9.7492109375,-0.36435437202453613,-1.3856319189071655,-0.8923553228378296
1761476185005247000,9.7592470703125,-0.3702351748943329,-1.06147301197052,-0.9139500856399536
1761476185015282000,9.769281982421875,-0.26104941964149475,-0.597625732421875,-0.8351921439170837
1761476185025316900,9.77931689453125,-0.10606225579977036,-0.19625410437583923,-0.670350193977356
1761476185035352800,9.789352783203125,0.04016752168536186,0.04486122727394104,-0.43884605169296265
1761476185045388000,9.799387939453124,0.11676616221666336,0.16524836421012878,-0.1692952811717987
1761476185055424000,9.809424072265625,0.09533368051052094,0.20704714953899384,0.12151089310646057
1761476185065459000,9.819458984375,0.00014538224786520004,0.21531547605991364,0.39529985189437866
1761476185075494000,9.829493896484376,-0.13601629436016083,0.23001110553741455,0.6162149906158447
1761476185085529900,9.83952978515625,-0.2704899311065674,0.22845102846622467,0.7921586036682129
1761476185095564800,9.849564697265626,-0.38933220505714417,0.17367596924304962,0.9097669124603271
1761476185105600000,9.85960009765625,-0.4954461455345154,0.13412190973758698,0.9663990139961243
1761476185115636000,9.869635986328126,-0.5136998295783997,0.17633278667926788,0.9972035884857178
1761476185125671000,9.8796708984375,-0.4469706118106842,0.3042912781238556,0.9975817203521729
1761476185135705900,9.889705810546875,-0.33574458956718445,0.4462735056877136,0.9617626070976257
1761476185145741800,9.899741943359375,-0.24039863049983978,0.5379360318183899,0.9010239243507385
1761476185155777000,9.909777099609375,-0.19003120064735413,0.5633108615875244,0.8248176574707031
1761476185165812000,9.91981201171875,-0.17900970578193665,0.45400914549827576,0.7066071033477783
1761476185175848000,9.929847900390625,-0.23293504118919373,0.30303576588630676,0.5826971530914307
1761476185185883000,9.9398828125,-0.359112948179245,0.24031297862529755,0.4222020208835602
1761476185195917800,9.949917724609374,-0.4728074073791504,0.1768319308757782,0.2879759669303894
1761476185205953800,9.959953857421874,-0.5082517266273499,0.16553187370300293,0.18733882904052734
1761476185215989000,9.969989013671874,-0.42889243364334106,0.28443431854248047,0.11720280349254608
1761476185226025000,9.98002490234375,-0.28616270422935486,0.4285472631454468,0.08188209682703018
1761476185236060000,9.990059814453126,-0.11930535733699799,0.5505759119987488,0.11527858674526215
1761476185246094800,10.0000947265625,0.0323086678981781,0.6515307426452637,0.2489735186100006
1761476185256130800,10.010130859375,0.12889355421066284,0.634114682674408,0.4138779640197754
1761476185266166000,10.020166015625,0.1160707026720047,0.609980583190918,0.516701340675354
1761476185276201000,10.030200927734375,0.02005782723426819,0.6029404401779175,0.5143411755561829
1761476185286237000,10.04023681640625,-0.10179831087589264,0.6344366073608398,0.4409133195877075
1761476185296272000,10.05027197265625,-0.20588450133800507,0.7217003703117371,0.3264751434326172
1761476185306306800,10.060306884765625,-0.2454894334077835,0.7143551111221313,0.25208666920661926
1761476185316342800,10.0703427734375,-0.19777581095695496,0.3984137177467346,0.14333897829055786
1761476185326378000,10.0803779296875,-0.17220227420330048,-0.16759935021400452,-0.187163308262825
1761476185336412700,10.09041259765625,-0.250990629196167,-0.620099663734436,-0.6437566876411438
1761476185346448600,10.10044873046875,-0.356860876083374,-0.7672480940818787,-1.0304604768753052
1761476185356483600,10.110483642578124,-0.421278715133667,-0.6822054982185364,-1.3236006498336792
1761476185366518800,10.120518798828124,-0.4327694773674011,-0.23994635045528412,-1.5618762969970703
1761476185376554800,10.1305546875,-0.37696826457977295,0.43350207805633545,-1.7458178997039795
1761476185386589700,10.140589599609376,-0.203327476978302,0.9824703931808472,-1.8042724132537842
1761476185396624600,10.150624755859376,0.029701508581638336,1.265893816947937,-1.6680371761322021
1761476185406660600,10.16066064453125,0.21208623051643372,1.1836186647415161,-1.3638859987258911
1761476185416695600,10.170695556640625,0.22658337652683258,0.7491713762283325,-0.9892165660858154
1761476185426730800,10.180730712890625,0.1375989019870758,0.2074466496706009,-0.6204572319984436
1761476185436766700,10.1907666015625,0.055062223225831985,-0.30199548602104187,-0.37779131531715393
1761476185446801700,10.2008017578125,0.01597154699265957,-0.6884390711784363,-0.24774889647960663
1761476185456836600,10.210836669921875,-0.022134222090244293,-0.8739218711853027,-0.19634543359279633
1761476185466872600,10.22087255859375,-0.04650161415338516,-0.9211740493774414,-0.1727980375289917
1761476185476907800,10.23090771484375,-0.04357568174600601,-0.9386082887649536,-0.14903080463409424
1761476185486942700,10.240942626953125,-0.02160220593214035,-0.9722298979759216,-0.09569568932056427
1761476185496978700,10.250978759765625,-0.02001207321882248,-1.0354981422424316,-0.0906992256641388
1761476185507013600,10.261013671875,-0.047361139208078384,-1.044309139251709,-0.24114039540290833
1761476185517048600,10.271048583984374,-0.08252924680709839,-0.9451043009757996,-0.5158119201660156
1761476185527084500,10.28108447265625,-0.061449263244867325,-0.7476930022239685,-0.7833032608032227
1761476185537119700,10.29111962890625,0.026714956387877464,-0.572227954864502,-0.9296891689300537
1761476185547154700,10.30115478515625,0.13145041465759277,-0.47976166009902954,-0.9430233836174011
1761476185557190700,10.311190673828126,0.21845564246177673,-0.4042777419090271,-0.806521475315094
1761476185567225600,10.3212255859375,0.23677659034729004,-0.3111456632614136,-0.5870040655136108
1761476185577260800,10.3312607421875,0.1867387890815735,-0.1374923437833786,-0.3464670479297638
1761476185587296800,10.341296875,0.11285284161567688,0.08573275804519653,-0.11667221784591675
1761476185597331700,10.351331787109375,0.06211042404174805,0.3029714822769165,0.109379343688488
1761476185607366700,10.36136669921875,0.05156749486923218,0.4558022916316986,0.35080981254577637
1761476185617402600,10.371402587890625,0.0858905017375946,0.5045644640922546,0.6330698728561401
1761476185627437600,10.3814375,0.16818910837173462,0.49387213587760925,0.9446402788162231
1761476185637472500,10.391472412109374,0.2509259879589081,0.44636887311935425,1.2296466827392578
1761476185647508700,10.4015087890625,0.27355512976646423,0.4355494976043701,1.3898587226867676
1761476185657543700,10.411543701171874,0.2613269090652466,0.46860575675964355,1.4183140993118286
1761476185667578600,10.42157861328125,0.22975754737854004,0.49826669692993164,1.3762030601501465
1761476185677614600,10.431614501953124,0.17646008729934692,0.488884299993515,1.2883517742156982
1761476185687649800,10.44164990234375,0.13482795655727386,0.4318689703941345,1.1952463388442993
1761476185697684700,10.451684814453126,0.1686248779296875,0.36358028650283813,1.1077605485916138
1761476185707720700,10.461720703125,0.236059308052063,0.3360311985015869,1.0163952112197876
1761476185717755600,10.471755615234375,0.2991761863231659,0.40204954147338867,0.901938796043396
1761476185727790600,10.48179052734375,0.3480185866355896,0.5363178849220276,0.7904117703437805
1761476185737826600,10.49182666015625,0.3540366291999817,0.6785263419151306,0.6684954166412354
1761476185747861500,10.501861572265625,0.3180448114871979,0.7717190980911255,0.5658459663391113
1761476185757896700,10.511896728515625,0.25262367725372314,0.7804560661315918,0.48590224981307983
1761476185767932700,10.5219326171875,0.18693041801452637,0.6859330534934998,0.4654523730278015
1761476185777967600,10.531967529296875,0.14436542987823486,0.49896255135536194,0.5244094729423523
1761476185788002800,10.5420029296875,0.14849598705768585,0.2957670986652374,0.5916156768798828
1761476185798038800,10.552038818359375,0.1798326075077057,0.23670127987861633,0.6481583714485168
1761476185808073700,10.56207373046875,0.2133660614490509,0.3265227973461151,0.6866532564163208
1761476185818108700,10.572108642578126,0.22544342279434204,0.538310170173645,0.6656234264373779
1761476185828144600,10.58214453125,0.24285677075386047,0.8812091946601868,0.6532360315322876
1761476185838179600,10.5921796875,0.24088720977306366,1.0876630544662476,0.682691216468811
1761476185848214500,10.602214599609376,0.17259123921394348,1.1578950881958008,0.7671059966087341
1761476185858250500,10.61225048828125,0.043184585869312286,0.903330385684967,0.8169033527374268
1761476185868285700,10.62228564453125,-0.12524090707302094,0.4071289002895355,0.7297221422195435
1761476185878320600,10.632320556640625,-0.3360656797885895,-0.06066686660051346,0.5270305275917053
1761476185888355800,10.64235595703125,-0.531967282295227,-0.2710467278957367,0.31714650988578796
1761476185898391800,10.652391845703125,-0.6453297734260559,-0.3278335928916931,0.12324336916208267
1761476185908426800,10.6624267578125,-0.6672644019126892,-0.25840523838996887,-0.12311794608831406
1761476185918461400,10.67246142578125,-0.5834307670593262,-0.029081175103783607,-0.5118350982666016
1761476185928497700,10.68249755859375,-0.39776474237442017,0.2126944363117218,-1.0486180782318115
1761476185938532600,10.69253271484375,-0.22239252924919128,0.4656311273574829,-1.5362920761108398
1761476185948567600,10.702567626953124,-0.12506145238876343,0.6220614910125732,-1.7908860445022583
1761476185958603500,10.712603515625,-0.09904400259256363,0.6226743459701538,-1.756676197052002
1761476185968638700,10.722638671875,-0.17351077497005463,0.6315298676490784,-1.4799028635025024
1761476185978673700,10.732673583984376,-0.3045336902141571,0.5933014154434204,-1.1045795679092407
1761476185988709600,10.742709716796876,-0.3972415030002594,0.37472912669181824,-0.833394467830658
1761476185998744800,10.752744873046876,-0.4920212924480438,-0.02106667123734951,-0.6830846071243286
1761476186008779800,10.76277978515625,-0.5788229703903198,-0.5297259092330933,-0.5088275671005249
1761476186018815700,10.772815673828125,-0.6298472285270691,-1.0126632452011108,-0.3109228312969208
1761476186028850400,10.782850341796875,-0.6245049238204956,-1.2764503955841064,-0.27513447403907776
1761476186038885600,10.7928857421875,-0.5937442779541016,-1.1381758451461792,-0.47798869013786316
1761476186048921600,10.802921630859375,-0.5819163918495178,-0.7798773050308228,-0.814322292804718
1761476186058956500,10.81295654296875,-0.5904332995414734,-0.5068725943565369,-1.1352651119232178
1761476186068991700,10.82299169921875,-0.5534560680389404,-0.5123626589775085,-1.3412909507751465
1761476186079026700,10.833026611328124,-0.4620007872581482,-0.7367819547653198,-1.3634886741638184
