time,seconds_elapsed,z,y,x
1761470489105527000,0.075527099609375,0.4326862394809723,-0.3289247453212738,0.039857786148786545
1761470489115502800,0.0855029296875,0.43116265535354614,-0.13599950075149536,0.03975339233875275
1761470489125478700,0.095478759765625,0.4506109952926636,0.039585188031196594,0.014125104993581772
1761470489135455700,0.105455810546875,0.4978086054325104,0.20711000263690948,-0.040845468640327454
1761470489145431800,0.115431884765625,0.5751347541809082,0.42809316515922546,-0.07935834676027298
1761470489155409000,0.125408935546875,0.6628941297531128,0.6759583950042725,-0.09901273995637894
1761470489165384700,0.135384765625,0.7475457191467285,0.9269857406616211,-0.11197831481695175
1761470489175361000,0.145361083984375,0.8032848834991455,1.1334160566329956,-0.11148004233837128
1761470489185337900,0.155337890625,0.8377866744995117,1.2804358005523682,-0.08433478325605392
1761470489195314000,0.16531396484375,0.8387728333473206,1.4232041835784912,-0.03797740861773491
1761470489205289700,0.175289794921875,0.8038833141326904,1.499726414680481,0.02711034193634987
1761470489215266800,0.185266845703125,0.7294618487358093,1.5750845670700073,0.07770241051912308
1761470489225243000,0.195242919921875,0.651923656463623,1.5717291831970215,0.11496464908123016
1761470489235218700,0.20521875,0.6011006832122803,1.5130491256713867,0.17148466408252716
1761470489245195800,0.21519580078125,0.5819481611251831,1.4355005025863647,0.20492929220199585
1761470489255171800,0.225171875,0.5703887343406677,1.323769211769104,0.20297692716121674
1761470489265148000,0.23514794921875,0.5748037099838257,1.2177180051803589,0.15144884586334229
1761470489275124700,0.245124755859375,0.6642646193504333,1.1000148057937622,0.0400107279419899
1761470489285101000,0.25510107421875,0.8639175891876221,1.0595890283584595,-0.1073668971657753
1761470489295076900,0.265076904296875,1.0696760416030884,1.1671338081359863,-0.32881301641464233
1761470489305054000,0.275053955078125,1.214246153831482,1.2967338562011719,-0.5389543175697327
1761470489315029800,0.28502978515625,1.3247604370117188,1.3295754194259644,-0.7018561363220215
1761470489325006800,0.2950068359375,1.4281901121139526,1.28705894947052,-0.8253326416015625
1761470489334983000,0.30498291015625,1.5582972764968872,1.1325911283493042,-0.9061891436576843
1761470489344958700,0.314958740234375,1.7151460647583008,0.9236809015274048,-0.9400140047073364
1761470489354935800,0.324935791015625,1.819744348526001,0.7476488351821899,-0.923230767250061
1761470489364911900,0.334911865234375,1.8282727003097534,0.6336087584495544,-0.8725997805595398
1761470489374888000,0.344887939453125,1.781459927558899,0.4589024484157562,-0.7814025282859802
1761470489384864800,0.35486474609375,1.724385380744934,0.13660569489002228,-0.6371303796768188
1761470489394840800,0.3648408203125,1.673946499824524,-0.29629379510879517,-0.4292435050010681
1761470489404817000,0.37481689453125,1.6015230417251587,-0.7256627082824707,-0.18085597455501556
1761470489414793700,0.384793701171875,1.4559645652770996,-1.104063868522644,0.13193468749523163
1761470489424769800,0.394769775390625,1.1918299198150635,-1.20231294631958,0.49069711565971375
1761470489434745900,0.404745849609375,0.8638233542442322,-0.6864463090896606,0.7872662544250488
1761470489444723000,0.414722900390625,0.5786091685295105,-0.2261660248041153,1.0938702821731567
1761470489454698800,0.42469873046875,0.4365103840827942,-0.16132071614265442,1.300459384918213
1761470489464675000,0.434675048828125,0.3419863283634186,-0.8445805907249451,1.3439570665359497
1761470489474652000,0.44465185546875,0.1222771629691124,-1.381361722946167,1.2730506658554077
1761470489484627700,0.454627685546875,-0.18931910395622253,-1.343021273612976,1.1934911012649536
1761470489494604800,0.464604736328125,-0.3705221712589264,-1.3551011085510254,1.0830066204071045
1761470489504580900,0.474580810546875,-0.3994986116886139,-1.6531894207000732,0.8931708335876465
1761470489514557000,0.484556884765625,-0.39701467752456665,-2.3070757389068604,0.5528275966644287
1761470489524533800,0.49453369140625,-0.5105900168418884,-3.173588514328003,-0.0076201907359063625
1761470489534509800,0.504509765625,-0.7622758150100708,-3.8248281478881836,-0.7379284501075745
1761470489544486000,0.51448583984375,-1.038886547088623,-3.9598066806793213,-1.5767766237258911
1761470489554463000,0.524462890625,-1.254594087600708,-3.2265493869781494,-2.5049400329589844
1761470489564438800,0.534438720703125,-1.4148048162460327,-2.4924471378326416,-3.263158082962036
1761470489574414800,0.544414794921875,-1.6308009624481201,-1.8276832103729248,-4.023470401763916
1761470489584392000,0.554391845703125,-1.8965877294540405,-1.359928011894226,-4.8263773918151855
1761470489594367700,0.56436767578125,-2.1246044635772705,-0.9086052775382996,-5.311555862426758
1761470489604343800,0.57434375,-2.266265869140625,0.06757384538650513,-5.137579441070557
1761470489614320600,0.584320556640625,-2.3191721439361572,0.9153559803962708,-4.616744041442871
1761470489624297000,0.594296875,-2.293400526046753,1.2260695695877075,-3.909118175506592
1761470489634272800,0.604272705078125,-2.1738200187683105,0.9916993379592896,-3.1272637844085693
1761470489644249900,0.614249755859375,-1.931230068206787,0.7722856402397156,-2.292022228240967
1761470489654226000,0.624225830078125,-1.6538914442062378,0.8683778047561646,-1.499733567237854
1761470489664203000,0.634203125,-1.4023354053497314,0.593836784362793,-1.0383601188659668
1761470489674178800,0.6441787109375,-1.115776538848877,0.26924943923950195,-0.8737964034080505
1761470489684154600,0.654154541015625,-0.758248507976532,0.1126367449760437,-0.8671821355819702
1761470489694132000,0.664132080078125,-0.43627631664276123,0.11646051704883575,-0.9612252712249756
1761470489704107800,0.674107666015625,-0.250222384929657,0.1804400235414505,-1.0717881917953491
1761470489714083800,0.684083740234375,-0.20963050425052643,0.04205897077918053,-1.112754464149475
1761470489724060700,0.694060791015625,-0.28850165009498596,-0.12783998250961304,-0.986213743686676
1761470489734037000,0.704037109375,-0.4244866669178009,0.034744661301374435,-0.5743700265884399
1761470489744012800,0.7140126953125,-0.5817892551422119,0.5808613300323486,-0.014149604365229607
1761470489753990000,0.723989990234375,-0.7887256741523743,1.0531792640686035,0.42409592866897583
1761470489763965200,0.733965087890625,-0.9945818781852722,0.8819159865379333,0.705618143081665
1761470489773941200,0.743941162109375,-1.2054930925369263,0.5499796271324158,0.9561553001403809
1761470489783918000,0.75391796875,-1.373916506767273,0.32497525215148926,1.213093876838684
1761470489793894100,0.76389404296875,-1.4570233821868896,0.1933026909828186,1.5323418378829956
1761470489803870200,0.7738701171875,-1.472632884979248,0.25153684616088867,1.8560154438018799
1761470489813847000,0.783846923828125,-1.4103552103042603,0.3773496448993683,2.084808111190796
1761470489823823000,0.793822998046875,-1.223520040512085,0.3700130581855774,2.1532034873962402
1761470489833799200,0.803799072265625,-0.9452807307243347,0.02964695356786251,2.1693005561828613
1761470489843776300,0.8137763671875,-0.6983569860458374,-0.3366526663303375,2.2611489295959473
1761470489853752000,0.823751953125,-0.5730717778205872,-0.534950852394104,2.5315043926239014
1761470489863729200,0.833729248046875,-0.5928177237510681,-0.26683831214904785,2.7971913814544678
1761470489873705200,0.843705322265625,-0.6054728031158447,0.20314252376556396,2.911883592605591
1761470489883681000,0.853680908203125,-0.545013964176178,0.6407185196876526,2.8867902755737305
1761470489893658000,0.863658203125,-0.5889468193054199,0.6141721606254578,2.6829845905303955
1761470489903634200,0.87363427734375,-0.8336759805679321,0.04129917174577713,2.5592668056488037
1761470489913610200,0.8836103515625,-1.0548299551010132,-0.42860811948776245,2.9066545963287354
1761470489923587000,0.893587158203125,-1.100394606590271,-0.6613024473190308,3.4970579147338867
1761470489933563100,0.903563232421875,-1.0601401329040527,-1.1487376689910889,3.702042579650879
1761470489943539200,0.913539306640625,-1.1232664585113525,-1.798183798789978,3.308210611343384
1761470489953516300,0.923516357421875,-1.2892777919769287,-2.067164897918701,2.4843738079071045
1761470489963492000,0.9334921875,-1.257226586341858,-2.139697313308716,1.5661875009536743
1761470489973468200,0.94346826171875,-0.8590958714485168,-1.808064579963684,0.8185333013534546
1761470489983445200,0.9534453125,-0.2680506408214569,-0.9667280316352844,0.22394317388534546
1761470489993421000,0.963421142578125,0.43013644218444824,-0.03424747660756111,-0.24432362616062164
1761470490003397000,0.973397216796875,1.1273467540740967,0.7165774703025818,-0.6016181111335754
1761470490013374200,0.983374267578125,1.6465805768966675,1.1214815378189087,-0.918083131313324
1761470490023350300,0.993350341796875,1.8060381412506104,1.2011306285858154,-1.1930761337280273
1761470490033327000,1.0033271484375,1.6473398208618164,1.033278465270996,-1.4065709114074707
1761470490043303200,1.01330322265625,1.3359497785568237,0.7024820446968079,-1.596423864364624
1761470490053279200,1.023279296875,1.034071683883667,0.3695877194404602,-1.8244200944900513
1761470490063256300,1.03325634765625,0.8185445666313171,0.246940016746521,-2.03369140625
1761470490073232100,1.043232177734375,0.6876180171966553,0.32938775420188904,-2.1726174354553223
1761470490083208200,1.053208251953125,0.6865573525428772,0.5713043212890625,-2.225893497467041
1761470490093185300,1.063185302734375,0.8138772249221802,0.9291165471076965,-2.1929452419281006
1761470490103161000,1.0731611328125,1.0033527612686157,1.2844159603118896,-2.0992984771728516
1761470490113137200,1.08313720703125,1.1980836391448975,1.5495915412902832,-1.9419814348220825
1761470490123114000,1.093114013671875,1.3087494373321533,1.6234184503555298,-1.7042505741119385
1761470490133090300,1.10309033203125,1.2947587966918945,1.5387635231018066,-1.4119105339050293
1761470490143066000,1.113066162109375,1.1976996660232544,1.3279192447662354,-1.103200912475586
1761470490153043200,1.123043212890625,1.0525147914886475,0.9881707429885864,-0.7469062209129333
1761470490163019300,1.133019287109375,0.9090515375137329,0.6382119059562683,-0.37830498814582825
1761470490172995000,1.1429951171875,0.8039246201515198,0.341987669467926,-0.06896445900201797
1761470490182972200,1.15297216796875,0.7379447221755981,0.2189616709947586,0.17717137932777405
1761470490192948200,1.1629482421875,0.6861183047294617,0.29281139373779297,0.40076157450675964
1761470490202925300,1.17292529296875,0.6174058318138123,0.4400160014629364,0.5793180465698242
1761470490212901000,1.182901123046875,0.5069237947463989,0.5947397947311401,0.694784939289093
1761470490222877200,1.192877197265625,0.353980153799057,0.6756486892700195,0.7621556520462036
1761470490232854000,1.20285400390625,0.1912498027086258,0.6655792593955994,0.7962880730628967
1761470490242830300,1.212830322265625,0.04004329442977905,0.5909280776977539,0.8362993597984314
1761470490252806100,1.22280615234375,-0.07615947723388672,0.47395458817481995,0.9126383066177368
1761470490262783000,1.232782958984375,-0.11956093460321426,0.37279537320137024,1.0573523044586182
1761470490272759300,1.24275927734375,-0.0773295909166336,0.31456005573272705,1.239287257194519
1761470490282735000,1.252735107421875,0.0007434902945533395,0.3321590721607208,1.3825562000274658
1761470490292712200,1.262712158203125,0.06717231869697571,0.4389323890209198,1.465997338294983
1761470490302688000,1.27268798828125,0.14233563840389252,0.550825297832489,1.4948774576187134
1761470490312664300,1.282664306640625,0.1463165283203125,0.5562147498130798,1.4156886339187622
1761470490322641200,1.29264111328125,-0.034600287675857544,0.3727359473705292,1.285015344619751
1761470490332617200,1.3026171875,-0.3502250909805298,0.09475944191217422,1.1350250244140625
1761470490342593300,1.31259326171875,-0.6649673581123352,0.020950529724359512,1.0099154710769653
1761470490352570000,1.322570068359375,-0.8039026260375977,0.3383471369743347,1.0201678276062012
1761470490362546200,1.332546142578125,-0.5895917415618896,0.9249247312545776,1.3579505681991577
1761470490372523000,1.34252294921875,-0.07084501534700394,1.4875513315200806,1.9601008892059326
1761470490382499300,1.352499267578125,0.41938894987106323,1.49215829372406,2.4136135578155518
1761470490392475100,1.36247509765625,0.4237312376499176,0.8102114796638489,2.4292867183685303
1761470490402452200,1.3724521484375,-0.0281477402895689,0.08570486307144165,2.245000123977661
1761470490412428000,1.382427978515625,-0.4949186444282532,0.015585693530738354,2.3557114601135254
1761470490422404000,1.392404052734375,-0.854993462562561,0.3195299208164215,2.6491992473602295
1761470490432381200,1.402381103515625,-1.0299205780029297,0.6911713480949402,2.8248326778411865
1761470490442357000,1.41235693359375,-0.8884245157241821,0.7201462984085083,2.6926796436309814
1761470490452333300,1.422333251953125,-0.5126367807388306,0.5633814334869385,2.323655605316162
1761470490462310100,1.43231005859375,-0.17470893263816833,0.19049715995788574,1.6046221256256104
1761470490472286200,1.4422861328125,-0.09702824801206589,-0.36536020040512085,0.5771104693412781
1761470490482262000,1.452261962890625,-0.21157944202423096,-0.8738679885864258,-0.5382118225097656
1761470490492239400,1.4622392578125,-0.30754992365837097,-1.1864045858383179,-1.5818734169006348
1761470490502215200,1.472215087890625,-0.3343793749809265,-1.1129319667816162,-2.3992865085601807
1761470490512191000,1.48219091796875,-0.22781404852867126,-0.7832299470901489,-2.9243662357330322
1761470490522168000,1.49216796875,0.13796615600585938,-0.4727812111377716,-3.1958909034729004
1761470490532144000,1.50214404296875,0.6869890689849854,-0.38561806082725525,-3.2569658756256104
1761470490542120200,1.5121201171875,1.3264409303665161,-0.5853350162506104,-3.0990970134735107
1761470490552097000,1.522096923828125,1.8771512508392334,-0.9353042244911194,-2.7893853187561035
1761470490562073300,1.5320732421875,2.201371192932129,-1.1794565916061401,-2.415724039077759
1761470490572050200,1.54205029296875,2.3043932914733887,-1.1890833377838135,-2.0227103233337402
1761470490582026200,1.552026123046875,2.2876224517822266,-1.0684694051742554,-1.6513314247131348
1761470490592002000,1.562001953125,2.1753478050231934,-0.8802362680435181,-1.2708446979522705
1761470490601979100,1.571979248046875,1.9175955057144165,-0.5341655015945435,-0.8623391389846802
1761470490611955200,1.581955078125,1.5090240240097046,-0.0653386190533638,-0.4731661081314087
1761470490621931000,1.591930908203125,1.0398019552230835,0.34674009680747986,-0.18426349759101868
1761470490631908000,1.601908203125,0.6595714688301086,0.3998613655567169,-0.022736914455890656
1761470490641884200,1.61188427734375,0.34678390622138977,0.17530909180641174,0.07437130808830261
1761470490651860200,1.621860107421875,0.07590021938085556,-0.08311712741851807,0.11239112913608551
1761470490661837000,1.631837158203125,-0.15323759615421295,-0.20734809339046478,0.12572458386421204
1761470490671813400,1.6418134765625,-0.3367118239402771,-0.1104322150349617,0.12604522705078125
1761470490681789200,1.6517890625,-0.4662187695503235,0.17558269202709198,0.10832738131284714
1761470490691766300,1.661766357421875,-0.4736764132976532,0.5885362029075623,0.08472857624292374
1761470490701742000,1.6717421875,-0.3842606246471405,0.9653090238571167,0.07636942714452744
1761470490711718100,1.68171826171875,-0.28145113587379456,1.268423080444336,0.08294583857059479
1761470490721695200,1.6916953125,-0.19322600960731506,1.36086905002594,0.1484403908252716
1761470490731671000,1.701671142578125,-0.1264195442199707,1.154497504234314,0.22620175778865814
1761470490741648100,1.711648193359375,-0.14109797775745392,0.7929196357727051,0.2134379893541336
1761470490751624200,1.721624267578125,-0.24884654581546783,0.4876321852207184,0.13757890462875366
1761470490761600300,1.731600341796875,-0.36620229482650757,0.36258429288864136,0.12596869468688965
1761470490771577900,1.741577880859375,-0.3902703523635864,0.37101665139198303,0.22510114312171936
1761470490781554000,1.751553955078125,-0.303573340177536,0.4220395088195801,0.4157848358154297
1761470490791530000,1.761530029296875,-0.10745522379875183,0.43633827567100525,0.6559699773788452
1761470490801507000,1.771507080078125,0.11912646889686584,0.45867839455604553,0.8566901087760925
1761470490811483000,1.78148291015625,0.2856462299823761,0.4011929929256439,1.0203992128372192
1761470490821459000,1.791458984375,0.2963838577270508,-0.1354701817035675,1.0398916006088257
1761470490831436000,1.80143603515625,0.03317621722817421,-1.1763414144515991,0.8376260995864868
1761470490841411800,1.811411865234375,-0.2981034219264984,-1.8302744626998901,0.7393332719802856
1761470490851388000,1.821387939453125,-0.3923795819282532,-1.4782791137695312,1.1371219158172607
1761470490861364700,1.83136474609375,-0.36085212230682373,-0.6040574312210083,1.8602330684661865
1761470490871341000,1.841341064453125,-0.3107202351093292,0.4038752615451813,2.4924473762512207
1761470490881316900,1.85131689453125,-0.4358384311199188,0.8207317590713501,2.6618235111236572
1761470490891294000,1.8612939453125,-0.7415624260902405,0.5695139169692993,2.4051074981689453
1761470490901270000,1.87127001953125,-1.0866317749023438,-0.14834532141685486,2.0593039989471436
1761470490911247000,1.8812470703125,-1.1793603897094727,-1.469455361366272,1.6179156303405762
1761470490921223000,1.891222900390625,-0.9632871747016907,-2.8322830200195312,0.9869222640991211
1761470490931198700,1.90119873046875,-0.4703983664512634,-3.6031506061553955,0.13064351677894592
1761470490941176000,1.911176025390625,0.1393778771162033,-3.423281669616699,-0.7838820815086365
1761470490951151900,1.92115185546875,0.6711733341217041,-2.793064594268799,-1.6970579624176025
1761470490961128000,1.9311279296875,1.1133735179901123,-2.2154436111450195,-2.5950961112976074
1761470490971104800,1.941104736328125,1.2264649868011475,-1.599219560623169,-3.3600704669952393
1761470490981081000,1.9510810546875,1.0223894119262695,-0.8719536066055298,-3.877811908721924
1761470490991057000,1.961056884765625,0.8018255829811096,-0.23388788104057312,-4.055153846740723
1761470491001034000,1.971033935546875,0.8289499282836914,0.07050367444753647,-3.8775787353515625
1761470491011010000,1.981010009765625,1.0106310844421387,0.17149686813354492,-3.4474377632141113
1761470491020985900,1.99098583984375,1.2480833530426025,0.20390218496322632,-2.896815776824951
1761470491030963000,2.000962890625,1.3753153085708618,0.24428822100162506,-2.4225151538848877
1761470491040938800,2.010938720703125,1.2161113023757935,0.3751796782016754,-2.082258701324463
1761470491050915000,2.0209150390625,0.8682030439376831,0.6249902844429016,-1.7910277843475342
1761470491060892000,2.030891845703125,0.5531550049781799,0.9279869198799133,-1.4707890748977661
1761470491070868000,2.040867919921875,0.39574065804481506,1.0213550329208374,-1.0590754747390747
1761470491080844000,2.050843994140625,0.36747679114341736,0.6832858324050903,-0.6550607085227966
1761470491090821000,2.060821044921875,0.21110154688358307,-0.12745308876037598,-0.4331999123096466
1761470491100797000,2.070796875,-0.2352207899093628,-1.122335433959961,-0.4327034056186676
1761470491110773800,2.080773681640625,-0.8358967900276184,-1.862152338027954,-0.5938653945922852
1761470491120749800,2.090749755859375,-1.4109817743301392,-2.1226015090942383,-0.7987767457962036
1761470491130726000,2.100725830078125,-1.8715685606002808,-1.9260156154632568,-1.0177879333496094
1761470491140703000,2.110702880859375,-2.003127336502075,-1.464149832725525,-1.1316640377044678
1761470491150678800,2.1206787109375,-1.8277279138565063,-0.9401795864105225,-1.1263459920883179
1761470491160655000,2.130655029296875,-1.446850061416626,-0.5203493237495422,-1.0052878856658936
1761470491170632000,2.1406318359375,-0.9723066091537476,-0.2535351514816284,-0.8408819437026978
1761470491180608000,2.15060791015625,-0.5439720749855042,-0.16905008256435394,-0.7551178336143494
1761470491190584000,2.160583984375,-0.2803002595901489,-0.2546344995498657,-0.8033319711685181
1761470491200561000,2.170560791015625,-0.20678333938121796,-0.3608088791370392,-0.8522772192955017
1761470491210537000,2.180536865234375,-0.2755051553249359,-0.41821014881134033,-0.8546793460845947
1761470491220512800,2.1905126953125,-0.3720920979976654,-0.43334588408470154,-0.7460340261459351
1761470491230489900,2.20048974609375,-0.3823239803314209,-0.3466722369194031,-0.4935644567012787
1761470491240466000,2.2104658203125,-0.31594613194465637,-0.22052350640296936,-0.17244337499141693
1761470491250442000,2.22044189453125,-0.2296581268310547,-0.026939384639263153,0.1496632993221283
1761470491260418800,2.230418701171875,-0.17771117389202118,0.27712321281433105,0.4371756911277771
1761470491270395000,2.240394775390625,-0.23422372341156006,0.4580005705356598,0.5815113186836243
1761470491280371000,2.250370849609375,-0.3571384847164154,0.45739614963531494,0.5488408803939819
1761470491290347800,2.26034765625,-0.4093646705150604,0.31330129504203796,0.3456054925918579
1761470491300323800,2.27032373046875,-0.36259159445762634,0.35988742113113403,0.23514997959136963
1761470491310301000,2.280301025390625,-0.06351541727781296,0.7746379375457764,0.4690921902656555
1761470491320277000,2.290277099609375,0.5513454675674438,1.4436625242233276,0.9917784929275513
1761470491330252800,2.300252685546875,1.105661153793335,2.1060051918029785,1.4001445770263672
1761470491340230000,2.31022998046875,1.2224011421203613,2.477144956588745,1.463847279548645
1761470491350206000,2.3202060546875,1.2024633884429932,2.5383222103118896,1.377693772315979
1761470491360181800,2.330181640625,1.2677468061447144,2.5914833545684814,1.5365386009216309
1761470491370158800,2.340158935546875,1.3712142705917358,2.8374221324920654,1.9934241771697998
1761470491380135000,2.350135009765625,1.6092820167541504,2.683338165283203,2.3837802410125732
1761470491390111000,2.360111083984375,1.7811392545700073,1.9011589288711548,2.4860668182373047
1761470491400087800,2.370087890625,1.9413764476776123,0.9531894326210022,2.5400521755218506
1761470491410064000,2.38006396484375,1.9466392993927002,0.0055450922809541225,2.269956111907959
1761470491420040000,2.3900400390625,1.9984158277511597,-0.10740054398775101,1.6666561365127563
1761470491430017000,2.40001708984375,2.06380033493042,0.28575313091278076,0.9854325652122498
1761470491439992800,2.409992919921875,1.9845054149627686,0.5450932383537292,0.2574850916862488
1761470491449969000,2.419968994140625,1.78041410446167,0.5976893305778503,-0.34350645542144775
1761470491459946000,2.429946044921875,1.4721685647964478,0.3811962306499481,-0.7452002763748169
1761470491469921800,2.439921875,1.0675143003463745,-0.001601742347702384,-0.9916009902954102
1761470491479897900,2.44989794921875,0.5987529754638672,-0.5454657673835754,-1.2241381406784058
1761470491489875000,2.459875,0.17438703775405884,-1.1110713481903076,-1.4594906568527222
1761470491499851000,2.46985107421875,-0.06846921145915985,-1.5544019937515259,-1.6746301651000977
1761470491509827800,2.479827880859375,-0.02743123099207878,-1.697853446006775,-1.8935999870300293
1761470491519804000,2.489803955078125,0.28434082865715027,-1.4140102863311768,-2.0663559436798096
1761470491529780000,2.499780029296875,0.7099938988685608,-0.756223201751709,-2.103872060775757
1761470491539757000,2.509757080078125,1.149066686630249,0.02968384511768818,-1.9505929946899414
1761470491549732900,2.51973291015625,1.5245060920715332,0.7050846219062805,-1.6090927124023438
1761470491559709000,2.529708984375,1.7543206214904785,0.8767609000205994,-1.2299845218658447
1761470491569686000,2.53968603515625,1.723924994468689,0.36234018206596375,-0.9670662879943848
1761470491579661800,2.549661865234375,1.380057692527771,-0.49081137776374817,-0.8062964677810669
1761470491589638000,2.559637939453125,0.8541725277900696,-1.3036068677902222,-0.6839337944984436
1761470491599615000,2.569614990234375,0.4513757824897766,-1.8728375434875488,-0.5216246247291565
1761470491609591000,2.579591064453125,0.34136807918548584,-2.076057195663452,-0.26316380500793457
1761470491619566800,2.58956689453125,0.4149903953075409,-1.8303437232971191,0.03615457937121391
1761470491629544000,2.5995439453125,0.549288272857666,-1.2522318363189697,0.2814098596572876
1761470491639520000,2.60952001953125,0.7036135792732239,-0.4950611889362335,0.49033495783805847
1761470491649495800,2.619495849609375,0.8450738191604614,0.17388120293617249,0.6626039147377014
1761470491659473000,2.629472900390625,0.9153655171394348,0.4969082176685333,0.7918882966041565
1761470491669449000,2.639448974609375,0.8525490164756775,0.35664406418800354,0.8213257789611816
1761470491679425000,2.649425048828125,0.636396050453186,-0.13474810123443604,0.7114359140396118
1761470491689401900,2.65940185546875,0.2638453543186188,-0.706110417842865,0.48579853773117065
1761470491699378000,2.6693779296875,-0.11810433119535446,-1.1126192808151245,0.2007921040058136
1761470491709354800,2.679354736328125,-0.35093945264816284,-1.1219751834869385,-0.05036343261599541
1761470491719331000,2.6893310546875,-0.33878064155578613,-0.7606930136680603,-0.14454686641693115
1761470491729307000,2.699306884765625,-0.1060778871178627,-0.223365917801857,-0.08742525428533554
1761470491739283700,2.70928369140625,0.24173952639102936,0.28930896520614624,0.0015873690135776997
1761470491749260000,2.719260009765625,0.5691991448402405,0.6783164143562317,0.05644768476486206
1761470491759235800,2.72923583984375,0.8082416653633118,0.8483056426048279,0.07429249584674835
1761470491769212000,2.7392119140625,0.9536699652671814,0.7658967971801758,0.06520179659128189
1761470491779188200,2.749188232421875,0.966119647026062,0.5534747838973999,-0.03140705078840256
1761470491789164000,2.7591640625,0.8499243259429932,0.4418089687824249,-0.08447053283452988
1761470491799140900,2.769140869140625,0.7817985415458679,0.6421640515327454,0.059984028339385986
1761470491809117200,2.7791171875,0.9012746214866638,1.0184714794158936,0.38871264457702637
1761470491819093000,2.789093017578125,1.0802631378173828,1.3485100269317627,0.7367895245552063
1761470491829070000,2.799070068359375,1.0072556734085083,1.4946848154067993,0.9384400844573975
1761470491839046000,2.8090458984375,0.7616865634918213,1.2073638439178467,0.853997528553009
1761470491849022200,2.819022216796875,0.5056920647621155,0.4002561569213867,0.4596051871776581
1761470491858999000,2.8289990234375,0.2813693583011627,-0.12284355610609055,0.04004266858100891
1761470491868975000,2.83897509765625,0.12451210618019104,0.36700204014778137,-0.09293455630540848
1761470491878952000,2.848951904296875,0.3004128932952881,1.2951905727386475,0.20518147945404053
1761470491888928000,2.858927978515625,0.9560027122497559,1.3420460224151611,0.6835129261016846
1761470491898904000,2.868904052734375,1.61327064037323,0.6869587898254395,1.169489860534668
1761470491908881000,2.878880859375,2.0403261184692383,0.06520465761423111,1.5384588241577148
1761470491918857200,2.888857177734375,1.8703160285949707,-0.4737948179244995,1.7308032512664795
1761470491928833000,2.8988330078125,1.341834306716919,-1.051702618598938,1.7205746173858643
1761470491938810000,2.90881005859375,1.0100369453430176,-1.5700613260269165,1.5982306003570557
1761470491948786000,2.918785888671875,0.9723256826400757,-1.7455106973648071,1.418802261352539
1761470491958762000,2.928761962890625,1.0760289430618286,-1.606183409690857,1.1288965940475464
1761470491968739000,2.938739013671875,1.219813346862793,-1.325175404548645,0.6818584203720093
1761470491978715000,2.94871484375,1.3123308420181274,-0.8544900417327881,0.10289564728736877
1761470491988691200,2.958691162109375,1.3705734014511108,-0.21030014753341675,-0.5457944869995117
1761470491998668000,2.96866796875,1.4478267431259155,0.525663435459137,-1.0713036060333252
1761470492008644000,2.97864404296875,1.609614610671997,1.3763096332550049,-1.2960009574890137
1761470492018620000,2.988619873046875,1.807855486869812,1.9882242679595947,-1.2169060707092285
1761470492028597000,2.998596923828125,1.9412184953689575,2.0123493671417236,-1.0201653242111206
1761470492038573000,3.008572998046875,1.9524022340774536,1.593884825706482,-0.7810813188552856
1761470492048548900,3.018548828125,1.7855427265167236,1.0269068479537964,-0.5445824861526489
1761470492058526000,3.02852587890625,1.4819157123565674,0.5696961879730225,-0.35311853885650635
1761470492068502000,3.038501953125,1.1807668209075928,0.26120996475219727,-0.21897538006305695
1761470492078479000,3.04847900390625,0.9376527070999146,0.09424655884504318,-0.14261136949062347
1761470492088455000,3.058454833984375,0.6908887624740601,0.17963655292987823,-0.13372839987277985
1761470492098431200,3.06843115234375,0.43881410360336304,0.46764981746673584,-0.1534612774848938
1761470492108408000,3.078407958984375,0.19212152063846588,0.7393321990966797,-0.14587952196598053
1761470492118384000,3.088384033203125,-0.048880934715270996,0.9812414050102234,-0.07502193748950958
1761470492128360000,3.09835986328125,-0.23551872372627258,1.171273946762085,0.06978558003902435
1761470492138337000,3.1083369140625,-0.3592439591884613,1.0444639921188354,0.2341233789920807
1761470492148313000,3.11831298828125,-0.563216507434845,0.5428453683853149,0.2924388647079468
1761470492158289000,3.128288818359375,-0.926268994808197,-0.011509941890835762,0.1870567947626114
1761470492168266000,3.138265869140625,-1.274323582649231,-0.5449573993682861,-0.012333276681602001
1761470492178242000,3.148241943359375,-1.5665918588638306,-0.7901054620742798,-0.30669960379600525
1761470492188218000,3.158218017578125,-1.7134870290756226,-0.6297325491905212,-0.5721064805984497
1761470492198195000,3.16819482421875,-1.6051768064498901,-0.3462001085281372,-0.6693364977836609
1761470492208171000,3.1781708984375,-1.2631531953811646,-0.07929065078496933,-0.6426018476486206
1761470492218147000,3.18814697265625,-0.8585261106491089,0.12237026542425156,-0.5792347192764282
1761470492228124200,3.198124267578125,-0.5282571315765381,0.15642143785953522,-0.5337346196174622
1761470492238100000,3.208099853515625,-0.337085485458374,-0.06558287888765335,-0.5112775564193726
1761470492248076000,3.218075927734375,-0.3537837862968445,-0.4460836350917816,-0.5062737464904785
1761470492258053000,3.22805322265625,-0.510603129863739,-0.7489147782325745,-0.5002534985542297
1761470492268029000,3.23802880859375,-0.6356601119041443,-0.7889333367347717,-0.40805143117904663
1761470492278006000,3.248006103515625,-0.7158975601196289,-0.4850124716758728,-0.1433703899383545
1761470492287982000,3.257982177734375,-0.7205266952514648,-0.032196540385484695,0.2746172845363617
1761470492297958100,3.267958251953125,-0.5474942922592163,0.20764221251010895,0.6854503154754639
1761470492307935000,3.27793505859375,-0.33083632588386536,-0.09093090891838074,0.911165714263916
1761470492317911000,3.2879111328125,-0.361844003200531,-0.6563236117362976,1.0165961980819702
1761470492327887000,3.29788720703125,-0.6985615491867065,-0.8593661785125732,1.490365982055664
1761470492337864200,3.3078642578125,-1.001143455505371,-0.9936971068382263,2.36579966545105
1761470492347840000,3.317840087890625,-1.078320026397705,-1.3370062112808228,3.1415443420410156
1761470492357816000,3.327816162109375,-1.0108625888824463,-2.0134735107421875,3.449223518371582
1761470492367793200,3.337793212890625,-0.9516213536262512,-2.6659648418426514,3.221573829650879
1761470492377769000,3.34776904296875,-0.8460165858268738,-3.305990695953369,2.7415528297424316
1761470492387745000,3.3577451171875,-0.847126841545105,-3.8904693126678467,1.984983205795288
1761470492397722000,3.36772216796875,-0.6166960000991821,-3.3992881774902344,1.2162878513336182
1761470492407698200,3.3776982421875,-0.16155216097831726,-2.2472145557403564,0.7581250667572021
1761470492417674000,3.387674072265625,0.3077700138092041,-1.3432978391647339,0.6491158604621887
1761470492427650800,3.39765087890625,0.6932953000068665,-1.149317741394043,0.6811789870262146
1761470492437627100,3.407627197265625,0.601536214351654,-1.3934134244918823,0.7491541504859924
1761470492447603000,3.41760302734375,-0.006527642719447613,-2.0558698177337646,0.6671050786972046
1761470492457580000,3.427580078125,-0.9965072870254517,-3.2098705768585205,0.14077341556549072
1761470492467556000,3.43755615234375,-1.5900598764419556,-4.1113667488098145,-1.0244932174682617
1761470492477533200,3.447533203125,-1.4606504440307617,-3.673962354660034,-2.3153693675994873
1761470492487509000,3.457509033203125,-0.9968141317367554,-1.710984706878662,-3.1522274017333984
1761470492497485000,3.467485107421875,-0.46925875544548035,0.7414115071296692,-3.4583566188812256
1761470492507462100,3.477462158203125,-0.22630736231803894,2.827195405960083,-3.237121105194092
1761470492517438000,3.48743798828125,-0.22451165318489075,4.025629043579102,-2.606522798538208
1761470492527414000,3.4974140625,-0.3766748309135437,3.9716238975524902,-1.7511944770812988
1761470492537390800,3.507390869140625,-0.6575946807861328,3.052503824234009,-0.749687671661377
1761470492547367200,3.5173671875,-0.9336920380592346,1.8606551885604858,0.2958616614341736
1761470492557343000,3.527343017578125,-1.1348297595977783,0.807917594909668,1.2156625986099243
1761470492567320000,3.537320068359375,-1.2671867609024048,0.14077924191951752,1.838910460472107
1761470492577296100,3.547296142578125,-1.2809522151947021,-0.09517757594585419,2.1100664138793945
1761470492587272000,3.55727197265625,-1.233532428741455,0.12022608518600464,2.034193277359009
1761470492597249000,3.5672490234375,-1.1830626726150513,0.7032796144485474,1.6514482498168945
1761470492607224800,3.577224853515625,-1.2104434967041016,1.516526699066162,1.06496262550354
1761470492617201200,3.587201171875,-1.312544345855713,2.2537729740142822,0.46070146560668945
1761470492627178000,3.597177978515625,-1.4476613998413086,2.6892518997192383,0.013786793686449528
1761470492637154000,3.607154052734375,-1.4763803482055664,2.6899707317352295,-0.1962437629699707
1761470492647131000,3.617130859375,-1.3015164136886597,2.24098539352417,-0.20113812386989594
1761470492657107200,3.627107177734375,-1.0245925188064575,1.5830601453781128,-0.13574467599391937
1761470492667083000,3.6370830078125,-0.8116959929466248,1.0013997554779053,-0.10416890680789948
1761470492677060000,3.64706005859375,-0.7459703087806702,0.6459575295448303,-0.10094231367111206
1761470492687036200,3.6570361328125,-0.7813538312911987,0.5033473968505859,-0.0894627571105957
1761470492697012000,3.667011962890625,-0.8302952647209167,0.5259836316108704,-0.11115226149559021
1761470492706989000,3.676989013671875,-0.8470888733863831,0.6681311726570129,-0.12201876193284988
1761470492716964900,3.68696484375,-0.8020793199539185,0.8188140988349915,-0.08708499372005463
1761470492726941200,3.696941162109375,-0.6390938758850098,0.7461391091346741,-0.025031208992004395
1761470492736918000,3.70691796875,-0.358501672744751,0.34764358401298523,0.0011272068368270993
1761470492746894000,3.71689404296875,-0.09189875423908234,-0.1273604780435562,-0.03228108212351799
1761470492756870100,3.7268701171875,0.019500762224197388,-0.54105144739151,-0.164028599858284
1761470492766847200,3.73684716796875,-0.053146544843912125,-0.7662405967712402,-0.4010544419288635
1761470492776823000,3.746822998046875,-0.24204756319522858,-0.6015738248825073,-0.5637563467025757
1761470492786798800,3.756798828125,-0.31750261783599854,-0.1661892980337143,-0.5022434592247009
1761470492796776000,3.76677587890625,-0.09425582736730576,0.2146487534046173,-0.2960939407348633
1761470492806752000,3.776751953125,0.33413442969322205,0.3382633626461029,-0.08134621381759644
1761470492816728000,3.78672802734375,0.7302917242050171,0.014209093526005745,0.26777637004852295
1761470492826705000,3.796704833984375,0.683160662651062,-0.5924869775772095,0.8434423208236694
1761470492836681200,3.80668115234375,0.1124524176120758,-1.2614763975143433,1.490363359451294
1761470492846657000,3.816656982421875,-0.5950863361358643,-1.878263235092163,1.867919921875
1761470492856634000,3.826634033203125,-1.268129825592041,-2.4793567657470703,1.8508870601654053
1761470492866610200,3.836610107421875,-1.5679088830947876,-2.7997522354125977,1.4654868841171265
1761470492876587300,3.846587158203125,-1.5087400674819946,-2.650888204574585,0.7184096574783325
1761470492886563000,3.85656298828125,-0.9914833307266235,-1.841949224472046,-0.20476768910884857
1761470492896539000,3.866538818359375,-0.30437004566192627,-0.5097123384475708,-1.0788522958755493
1761470492906516000,3.876515869140625,0.263383150100708,0.7298954129219055,-1.7567609548568726
1761470492916492000,3.886491943359375,0.49392786622047424,1.1930099725723267,-2.3528473377227783
1761470492926468000,3.896468017578125,0.2016986757516861,0.7470172643661499,-3.090925455093384
1761470492936445000,3.90644482421875,-0.4219934642314911,-0.0391986109316349,-3.8084189891815186
1761470492946421200,3.916421142578125,-0.9955506920814514,-0.7447434663772583,-4.288032531738281
1761470492956397000,3.92639697265625,-1.2692012786865234,-1.139966368675232,-4.650250434875488
1761470492966374100,3.9363740234375,-1.2198995351791382,-1.0347381830215454,-4.790085315704346
1761470492976350000,3.946349853515625,-0.9636915922164917,-0.4812496304512024,-4.5851731300354
1761470492986326000,3.956325927734375,-0.7538459897041321,0.38032907247543335,-4.060301780700684
1761470492996303000,3.96630322265625,-0.7071714401245117,1.4212534427642822,-3.1017510890960693
1761470493006279000,3.97627880859375,-0.7262894511222839,2.09861421585083,-1.807395577430725
1761470493016255200,3.986255126953125,-0.6817035675048828,1.7278354167938232,-0.48132583498954773
1761470493026232000,3.996232177734375,-0.7428334951400757,0.38545021414756775,0.7081418037414551
1761470493036208000,4.0062080078125,-1.0261573791503906,-1.2127848863601685,1.6090141534805298
1761470493046184000,4.016183837890625,-1.4590336084365845,-2.3839457035064697,2.1209311485290527
1761470493056161000,4.0261611328125,-1.8258026838302612,-2.7633707523345947,2.3397622108459473
1761470493066137000,4.03613720703125,-2.00178861618042,-2.535351037979126,2.289210796356201
1761470493076114000,4.046114013671875,-2.0212128162384033,-1.9512602090835571,1.9670240879058838
1761470493086090000,4.056090087890625,-1.9676365852355957,-1.2158690690994263,1.4581891298294067
1761470493096066000,4.066066162109375,-1.8167507648468018,-0.5059224367141724,0.8741164803504944
1761470493106042000,4.0760419921875,-1.5586994886398315,0.07542002201080322,0.30781203508377075
1761470493116019000,4.08601904296875,-1.2412068843841553,0.48782122135162354,-0.18216019868850708
1761470493125995300,4.095995361328125,-0.8547667264938354,0.6740941405296326,-0.5770933628082275
1761470493135972000,4.10597216796875,-0.5083311796188354,0.5814352035522461,-0.9139129519462585
1761470493145948000,4.115947998046875,-0.2793329358100891,0.40506845712661743,-1.1900004148483276
1761470493155924000,4.125924072265625,-0.23369257152080536,0.3232928216457367,-1.3977959156036377
1761470493165901000,4.135901123046875,-0.4086931347846985,0.425935834646225,-1.5246597528457642
1761470493175877000,4.145877197265625,-0.7872852683067322,0.6850931644439697,-1.504429817199707
1761470493185853000,4.15585302734375,-1.2272557020187378,1.0246784687042236,-1.2610670328140259
1761470493195830000,4.165830078125,-1.5924056768417358,1.325982928276062,-0.8696356415748596
1761470493205806000,4.17580615234375,-1.7705628871917725,1.4230269193649292,-0.4355374276638031
1761470493215782000,4.185781982421875,-1.6841315031051636,1.2579478025436401,0.057346612215042114
1761470493225759000,4.195759033203125,-1.4265446662902832,0.9002677202224731,0.6059271693229675
1761470493235735000,4.205735107421875,-1.1408737897872925,0.4313773512840271,1.1051733493804932
1761470493245711000,4.215711181640625,-0.898224413394928,-0.027159057557582855,1.4987516403198242
1761470493255688000,4.22568798828125,-0.7638310790061951,-0.44883546233177185,1.8138021230697632
1761470493265664000,4.2356640625,-0.7535733580589294,-0.6532309651374817,2.040633201599121
1761470493275640000,4.24564013671875,-0.8754678964614868,-0.6195364594459534,2.1966681480407715
1761470493285617200,4.2556171875,-1.1143721342086792,-0.4264508783817291,2.3249661922454834
1761470493295593000,4.265593017578125,-1.4780770540237427,-0.08142860978841782,2.374398946762085
1761470493305570000,4.275570068359375,-1.7340511083602905,0.07324565201997757,2.339207887649536
1761470493315546000,4.285546142578125,-1.6754895448684692,-0.05279907211661339,2.389064073562622
1761470493325522000,4.29552197265625,-1.4007104635238647,-0.0739767923951149,2.568605422973633
1761470493335499000,4.3054990234375,-1.184622883796692,-0.05175577104091644,2.7024765014648438
1761470493345475000,4.31547509765625,-1.2768971920013428,-0.16579286754131317,2.503094434738159
1761470493355451100,4.325451171875,-1.5473787784576416,-0.36556321382522583,1.88447105884552
1761470493365428000,4.335427978515625,-1.65659761428833,-0.7574092745780945,1.0893107652664185
1761470493375404000,4.345404052734375,-1.481283187866211,-1.0989161729812622,0.20092521607875824
1761470493385380000,4.355380126953125,-0.9329001903533936,-0.8950690627098083,-0.36799120903015137
1761470493395357200,4.365357177734375,-0.3587653636932373,-0.3720622956752777,-0.5693170428276062
1761470493405333000,4.3753330078125,0.052099376916885376,-0.03307705745100975,-0.5957150459289551
1761470493415309000,4.38530908203125,0.15317219495773315,0.05729571729898453,-0.48588016629219055
1761470493425286100,4.3952861328125,-0.2967139780521393,-0.24363775551319122,-0.35525986552238464
1761470493435262000,4.405261962890625,-1.1551958322525024,-1.0065358877182007,-0.3034595251083374
1761470493445239000,4.415239013671875,-1.9209470748901367,-1.9698888063430786,-0.3224790394306183
1761470493455215000,4.425215087890625,-2.1120784282684326,-2.7087180614471436,-0.4965049922466278
1761470493465191200,4.435191162109375,-1.5911773443222046,-2.9132840633392334,-0.9573082327842712
1761470493475168000,4.44516796875,-0.6970994472503662,-2.3901264667510986,-1.6638810634613037
1761470493485144000,4.45514404296875,0.17136749625205994,-1.2280535697937012,-2.321274518966675
1761470493495120100,4.4651201171875,0.8331694602966309,0.30787867307662964,-2.6974151134490967
1761470493505097200,4.47509716796875,1.0782593488693237,1.940708041191101,-2.726410388946533
1761470493515073000,4.485072998046875,0.9668318033218384,3.1099305152893066,-2.3819289207458496
1761470493525049000,4.495049072265625,0.6498162746429443,3.3155579566955566,-1.8627337217330933
1761470493535026200,4.505026123046875,0.14321668446063995,2.4811248779296875,-1.321865200996399
1761470493545002000,4.515001953125,-0.5154890418052673,1.106119990348816,-0.7776926755905151
1761470493554978000,4.52497802734375,-1.121451497077942,-0.2974226772785187,-0.26303285360336304
1761470493564955000,4.534954833984375,-1.5559715032577515,-1.187028408050537,0.1604907214641571
1761470493574931200,4.54493115234375,-1.8237098455429077,-1.5992563962936401,0.4398825168609619
1761470493584907000,4.554906982421875,-2.0269694328308105,-1.649619221687317,0.5847252011299133
1761470493594884000,4.564884033203125,-2.2098658084869385,-1.5072853565216064,0.5530465841293335
1761470493604860200,4.574860107421875,-2.3235344886779785,-1.249333143234253,0.3678692579269409
1761470493614837000,4.5848369140625,-2.3220622539520264,-0.8814108967781067,0.12456396222114563
1761470493624813000,4.59481298828125,-2.238990545272827,-0.5138658881187439,-0.08693363517522812
1761470493634788900,4.604788818359375,-2.139199733734131,-0.3730814754962921,-0.2732710838317871
1761470493644766200,4.61476611328125,-2.0607118606567383,-0.5073769688606262,-0.4471193253993988
1761470493654742000,4.624741943359375,-2.0366601943969727,-0.699705183506012,-0.5622836947441101
1761470493664718000,4.634718017578125,-2.1134793758392334,-0.7638383507728577,-0.5819018483161926
1761470493674695000,4.64469482421875,-2.2572526931762695,-0.725872278213501,-0.5529884696006775
1761470493684671000,4.6546708984375,-2.456271171569824,-0.6539909243583679,-0.518344521522522
1761470493694647000,4.66464697265625,-2.684344530105591,-0.5968683362007141,-0.5729382634162903
1761470493704623900,4.674623779296875,-2.861353874206543,-0.49291691184043884,-0.6981779336929321
1761470493714600200,4.68460009765625,-2.8470561504364014,-0.3337112367153168,-0.7681878209114075
1761470493724576000,4.694575927734375,-2.58286714553833,-0.15038159489631653,-0.7143605351448059
1761470493734553000,4.704552978515625,-2.1352317333221436,0.020890049636363983,-0.5245048999786377
1761470493744529000,4.71452880859375,-1.6112641096115112,0.03449214622378349,-0.22658483684062958
1761470493754505200,4.724505126953125,-1.2713162899017334,-0.03311241418123245,0.007195398211479187
1761470493764482000,4.73448193359375,-1.3047692775726318,-0.06060502678155899,0.09729733318090439
1761470493774458600,4.744458740234375,-1.6432511806488037,0.019623972475528717,0.14137841761112213
1761470493784434400,4.754434326171875,-2.137576103210449,0.2591758668422699,0.24952885508537292
1761470493794411800,4.764411865234375,-2.5720298290252686,0.6017903685569763,0.6508952379226685
1761470493804387600,4.7743876953125,-2.8174993991851807,0.5093358159065247,1.2595194578170776
1761470493814364700,4.78436474609375,-2.7472023963928223,-0.28187474608421326,1.74918794631958
1761470493824340500,4.794340576171875,-2.4370973110198975,-1.0917623043060303,1.9611761569976807
1761470493834316800,4.80431689453125,-2.223564863204956,-1.0876567363739014,1.9279552698135376
1761470493844293600,4.814293701171875,-2.332488775253296,-0.13907790184020996,1.797766089439392
1761470493854269700,4.824269775390625,-2.7082114219665527,0.8769212365150452,1.530037522315979
1761470493864245800,4.834245849609375,-3.185344696044922,0.846147894859314,1.113373875617981
1761470493874222800,4.844222900390625,-3.066136360168457,0.5868449807167053,0.854278028011322
1761470493884198700,4.85419873046875,-2.478771686553955,0.4723125100135803,1.0830297470092773
1761470493894174500,4.864174560546875,-2.0539159774780273,0.16829665005207062,1.5317448377609253
1761470493904151600,4.874151611328125,-1.9187180995941162,-0.6296961307525635,1.8261133432388306
1761470493914127600,4.884127685546875,-2.257634162902832,-1.5092147588729858,1.9513843059539795
1761470493924103700,4.894103759765625,-2.962686538696289,-2.128532886505127,1.853171706199646
1761470493934080500,4.90408056640625,-3.566678285598755,-2.257816791534424,1.495478868484497
1761470493944056800,4.914056884765625,-3.6760284900665283,-2.068735122680664,1.0050684213638306
1761470493954032600,4.92403271484375,-3.2748401165008545,-1.792116641998291,0.4239944815635681
1761470493964009700,4.934009765625,-2.641514539718628,-1.252423882484436,-0.2911494970321655
1761470493973985800,4.94398583984375,-2.052701234817505,-0.3307020962238312,-0.9899134635925293
1761470493983963000,4.953962890625,-1.6336729526519775,0.7977271676063538,-1.4213563203811646
1761470493993938700,4.963938720703125,-1.3795311450958252,1.7005181312561035,-1.4605796337127686
1761470494003914500,4.97391455078125,-1.2108482122421265,2.0590882301330566,-1.2155197858810425
1761470494013891600,4.9838916015625,-1.2006486654281616,1.939024806022644,-0.8124881386756897
1761470494023867600,4.99386767578125,-1.4334089756011963,1.495712161064148,-0.325168251991272
1761470494033843700,5.00384375,-1.8028004169464111,0.7116653323173523,0.10424020886421204
1761470494043820500,5.013820556640625,-2.1598806381225586,-0.21837705373764038,0.4142760932445526
1761470494053796900,5.023796875,-2.4401447772979736,-1.088695764541626,0.6620861887931824
1761470494063772700,5.033772705078125,-2.6294994354248047,-1.6824837923049927,0.801676332950592
1761470494073749800,5.043749755859375,-2.781099557876587,-1.9448840618133545,0.8293978571891785
1761470494083725600,5.0537255859375,-2.9068267345428467,-1.9126733541488647,0.8327355980873108
1761470494093701600,5.06370166015625,-3.0162739753723145,-1.621691107749939,0.8127689957618713
1761470494103678700,5.0736787109375,-3.0820508003234863,-1.2190568447113037,0.7292834520339966
1761470494113654500,5.083654541015625,-3.1235475540161133,-0.9452483057975769,0.5613998174667358
1761470494123630800,5.093630859375,-3.1568872928619385,-0.8935055136680603,0.2804586887359619
1761470494133607700,5.103607666015625,-3.130934476852417,-0.9201973080635071,-0.03998885676264763
1761470494143583700,5.113583740234375,-2.9940600395202637,-1.0104347467422485,-0.3625703454017639
1761470494153559800,5.123559814453125,-2.8168141841888428,-1.013256311416626,-0.6844824552536011
1761470494163537000,5.133536865234375,-2.6630373001098633,-0.8966516852378845,-0.9878383278846741
1761470494173512700,5.1435126953125,-2.5397863388061523,-0.6470313668251038,-1.2396163940429688
1761470494183489500,5.153489501953125,-2.4355196952819824,-0.2677948474884033,-1.402629017829895
1761470494193465600,5.163465576171875,-2.339505434036255,0.20201444625854492,-1.4706872701644897
1761470494203441700,5.173441650390625,-2.2793173789978027,0.7210261821746826,-1.3771629333496094
1761470494213418800,5.183418701171875,-2.2261834144592285,1.1230629682540894,-1.0685358047485352
1761470494223394600,5.19339453125,-2.190164089202881,1.1724227666854858,-0.6409069299697876
1761470494233371000,5.203370849609375,-2.19952654838562,0.842583417892456,-0.2525657117366791
1761470494243347700,5.21334765625,-2.3313722610473633,0.30849015712738037,-0.033691685646772385
1761470494253323500,5.223323486328125,-2.579235315322876,-0.007391945458948612,0.18336515128612518
1761470494263299600,5.233299560546875,-2.818765163421631,0.045967947691679,0.615482747554779
1761470494273276700,5.243276611328125,-2.882509469985962,0.22413313388824463,1.2249290943145752
1761470494283252700,5.253252685546875,-2.885892629623413,-0.07639020681381226,1.7536296844482422
1761470494293228500,5.263228515625,-3.0624914169311523,-1.0587109327316284,1.9236528873443604
1761470494303205600,5.27320556640625,-3.4667928218841553,-1.9832462072372437,1.6378117799758911
1761470494313181700,5.283181640625,-3.9077365398406982,-1.8194904327392578,1.4082605838775635
1761470494323157800,5.29315771484375,-4.05666446685791,-1.2508161067962646,1.2796491384506226
1761470494333134600,5.303134521484375,-3.6642417907714844,-0.9744555950164795,1.1451830863952637
1761470494343110700,5.313110595703125,-3.1053926944732666,-0.7675221562385559,0.8055794835090637
1761470494353086700,5.323086669921875,-2.4589409828186035,-0.38814881443977356,0.41812995076179504
1761470494363063600,5.3330634765625,-1.9444079399108887,-0.04187450557947159,0.29280638694763184
1761470494373039600,5.34303955078125,-1.6411432027816772,-0.321327805519104,0.284851610660553
1761470494383016700,5.3530166015625,-1.7209075689315796,-1.2883505821228027,0.3320678472518921
1761470494392992800,5.36299267578125,-2.204602003097534,-2.5506436824798584,0.31199556589126587
1761470494402968600,5.372968505859375,-2.757983684539795,-3.5438342094421387,0.18114647269248962
1761470494412945700,5.382945556640625,-3.2561917304992676,-3.844325304031372,-0.06213632598519325
1761470494422921700,5.392921630859375,-3.5380067825317383,-3.357870101928711,-0.34110352396965027
1761470494432897500,5.4028974609375,-3.5075292587280273,-2.247140407562256,-0.6092882752418518
1761470494442874600,5.41287451171875,-3.2384326457977295,-0.9060156941413879,-0.84859299659729
1761470494452850700,5.4228505859375,-2.9158270359039307,0.3696897327899933,-0.9497914910316467
1761470494462826800,5.43282666015625,-2.639730930328369,1.0972203016281128,-0.8731473088264465
1761470494472803600,5.442803466796875,-2.4729838371276855,0.999466061592102,-0.7427180409431458
1761470494482779600,5.452779541015625,-2.4181699752807617,0.39077243208885193,-0.6255937814712524
1761470494492755700,5.462755615234375,-2.489825487136841,-0.3884258270263672,-0.5733646154403687
1761470494502732800,5.47273291015625,-2.7303950786590576,-0.9696860313415527,-0.6203781962394714
1761470494512708600,5.48270849609375,-3.029052257537842,-1.1511802673339844,-0.71059250831604
1761470494522684700,5.4926845703125,-3.2941925525665283,-1.0381075143814087,-0.7440130710601807
1761470494532661800,5.502661865234375,-3.4939193725585938,-0.7179977297782898,-0.6438452005386353
1761470494542637600,5.512637451171875,-3.6183366775512695,-0.3641914427280426,-0.4747451841831207
1761470494552614700,5.52261474609375,-3.625210762023926,0.005792668089270592,-0.32098260521888733
1761470494562590700,5.5325908203125,-3.5283327102661133,0.4370756149291992,-0.18025504052639008
1761470494572566800,5.54256689453125,-3.387721061706543,0.7456014156341553,0.017815997824072838
1761470494582543600,5.552543701171875,-3.201613426208496,0.7658776640892029,0.23038846254348755
1761470494592519700,5.562519775390625,-2.991462230682373,0.5089834332466125,0.4108150005340576
1761470494602495700,5.572495849609375,-2.8373188972473145,-0.012625426054000854,0.5297667384147644
1761470494612472800,5.582472900390625,-2.7778072357177734,-0.6419866681098938,0.5582919716835022
1761470494622448600,5.59244873046875,-2.827824831008911,-1.0939134359359741,0.5019829273223877
1761470494632424700,5.6024248046875,-2.8965108394622803,-1.2344610691070557,0.4155360162258148
1761470494642401800,5.61240185546875,-2.8806614875793457,-1.0854164361953735,0.3714492619037628
1761470494652377600,5.622377685546875,-2.6939854621887207,-0.7701277732849121,0.4029335081577301
1761470494662353700,5.632353759765625,-2.3458316326141357,-0.43529653549194336,0.5103662610054016
1761470494672330500,5.64233056640625,-1.9355645179748535,-0.1527402102947235,0.5639265179634094
1761470494682306800,5.652306884765625,-1.6045218706130981,0.026729412376880646,0.530118465423584
1761470494692282600,5.66228271484375,-1.4572898149490356,0.1110972911119461,0.4624933898448944
1761470494702259700,5.672259765625,-1.4590532779693604,0.10355521738529205,0.3507048189640045
1761470494712235800,5.68223583984375,-1.5156677961349487,0.09369413554668427,0.21343466639518738
1761470494722211600,5.692211669921875,-1.5434088706970215,0.08878753334283829,0.08712254464626312
1761470494732188700,5.702188720703125,-1.4833482503890991,0.07935089617967606,0.07019811868667603
1761470494742164700,5.712164794921875,-1.377784252166748,0.03703726455569267,0.14187896251678467
1761470494752141800,5.722141845703125,-1.3453489542007446,-0.05338189750909805,0.17676961421966553
1761470494762117600,5.73211767578125,-1.4952083826065063,-0.2474059760570526,0.34346669912338257
1761470494772093200,5.74209326171875,-1.6995030641555786,-0.7284985780715942,0.9567506313323975
1761470494782070000,5.752070068359375,-1.7983827590942383,-1.5243901014328003,1.7486335039138794
1761470494792046000,5.762046142578125,-1.870833396911621,-2.4763543605804443,2.2345287799835205
1761470494802022000,5.77202197265625,-2.0217983722686768,-3.329491376876831,2.4517126083374023
1761470494811998700,5.781998779296875,-2.2501587867736816,-3.9550349712371826,2.342733383178711
1761470494821975000,5.79197509765625,-2.4703783988952637,-4.3594136238098145,1.6462830305099487
1761470494831950800,5.801950927734375,-2.467663049697876,-4.342833518981934,0.33074241876602173
1761470494841928000,5.811927978515625,-2.2026631832122803,-3.38234806060791,-1.0235527753829956
1761470494851904000,5.821904052734375,-1.9352718591690063,-1.8905495405197144,-2.149538040161133
1761470494861880000,5.831880126953125,-1.7458022832870483,-0.7813810706138611,-2.9184579849243164
1761470494871857000,5.84185693359375,-1.7428613901138306,-0.11974786967039108,-3.1486756801605225
1761470494881833000,5.8518330078125,-2.0091800689697266,0.29085350036621094,-2.8822479248046875
1761470494891809000,5.86180908203125,-2.49761962890625,0.32422247529029846,-2.3099584579467773
1761470494901785900,5.871785888671875,-3.076688766479492,-0.032016076147556305,-1.6009854078292847
1761470494911762000,5.881761962890625,-3.5444862842559814,-0.45875313878059387,-0.8563874363899231
1761470494921738000,5.891738037109375,-3.856661796569824,-0.633695125579834,-0.23263946175575256
1761470494931715000,5.901715087890625,-3.968489170074463,-0.43832147121429443,0.2093478888273239
1761470494941691000,5.91169091796875,-3.7729790210723877,-0.056394897401332855,0.5857859253883362
1761470494951668000,5.92166796875,-3.3211610317230225,0.24041548371315002,0.9748086929321289
1761470494961644000,5.93164404296875,-2.8465237617492676,0.33300480246543884,1.2964823246002197
1761470494971619800,5.941619873046875,-2.508410930633545,0.21465879678726196,1.477900743484497
1761470494981597000,5.951596923828125,-2.4614832401275635,0.06247350946068764,1.5414574146270752
1761470494991572700,5.96157275390625,-2.7025997638702393,-0.09735407680273056,1.5142786502838135
1761470495001549000,5.971549072265625,-3.044736385345459,-0.3608967363834381,1.3894259929656982
1761470495011526000,5.98152587890625,-3.3348047733306885,-0.6754361391067505,1.1928766965866089
1761470495021502000,5.991501953125,-3.5055336952209473,-0.8996860384941101,0.9799249768257141
1761470495031478000,6.00147802734375,-3.593597412109375,-0.8715928196907043,0.7439649701118469
1761470495041455000,6.011455078125,-3.590740919113159,-0.7010847330093384,0.4762296974658966
1761470495051431000,6.021430908203125,-3.443070888519287,-0.5339853763580322,0.21773868799209595
1761470495061407000,6.031406982421875,-3.1735177040100098,-0.3711855411529541,-0.03726138547062874
1761470495071384000,6.041384033203125,-2.8342971801757812,-0.2164674997329712,-0.21783655881881714
1761470495081360000,6.05135986328125,-2.5413477420806885,-0.3198348879814148,-0.30464258790016174
1761470495091336000,6.0613359375,-2.4080917835235596,-0.671454906463623,-0.36077389121055603
1761470495101312800,6.071312744140625,-2.413986921310425,-1.0630124807357788,-0.3839186429977417
1761470495111289000,6.0812890625,-2.4901363849639893,-1.3736861944198608,-0.34505563974380493
1761470495121266000,6.091265869140625,-2.5541956424713135,-1.622153878211975,-0.2591966688632965
1761470495131242000,6.101241943359375,-2.5859780311584473,-1.7139618396759033,-0.21465077996253967
1761470495141218000,6.111218017578125,-2.5307717323303223,-1.619706153869629,-0.16947264969348907
1761470495151195100,6.121195068359375,-2.3112704753875732,-1.4724044799804688,-0.12557391822338104
1761470495161171000,6.1311708984375,-1.9937820434570312,-1.413192629814148,-0.1751001924276352
1761470495171146800,6.141146728515625,-1.6559820175170898,-1.3733961582183838,-0.2981620728969574
1761470495181124000,6.1511240234375,-1.3910877704620361,-1.249266266822815,-0.4179092347621918
1761470495191100000,6.161099853515625,-1.2722493410110474,-0.8681731820106506,-0.49432989954948425
1761470495201076000,6.171075927734375,-1.307489275932312,-0.2717553377151489,-0.5003888607025146
1761470495211052800,6.181052734375,-1.34670090675354,0.20540902018547058,-0.47775354981422424
1761470495221029000,6.191029052734375,-1.3319382667541504,0.22762644290924072,-0.560145378112793
1761470495231005000,6.2010048828125,-1.2887617349624634,-0.011661676689982414,-0.7311966419219971
1761470495240982000,6.21098193359375,-1.224753737449646,-0.0023046608548611403,-0.7309039831161499
1761470495250958000,6.2209580078125,-1.3493815660476685,0.4930565357208252,-0.2769952714443207
1761470495260934000,6.230933837890625,-1.7159942388534546,0.8240810632705688,0.5195391774177551
1761470495270911000,6.240910888671875,-2.21545672416687,0.6200200319290161,1.2367048263549805
1761470495280886800,6.25088671875,-2.64031982421875,0.12993496656417847,1.6545928716659546
1761470495290863000,6.260863037109375,-2.882056713104248,0.03229840099811554,1.8528072834014893
1761470495300840000,6.27083984375,-2.8325531482696533,0.06518018245697021,1.9180573225021362
1761470495310816000,6.28081591796875,-2.4210057258605957,-0.3552798628807068,1.8040095567703247
1761470495320792800,6.290792724609375,-1.9047213792800903,-0.8509178757667542,1.4405949115753174
1761470495330769200,6.30076904296875,-1.3342478275299072,-1.062336802482605,0.746407687664032
1761470495340745000,6.310744873046875,-0.8957058787345886,-0.7623810172080994,-0.09897550940513611
1761470495350722000,6.32072216796875,-0.5830771923065186,-0.3672274947166443,-0.979003369808197
1761470495360698000,6.330697998046875,-0.24764539301395416,-0.44061994552612305,-1.8780514001846313
1761470495370674000,6.340673828125,-0.06249602884054184,-0.46456971764564514,-2.5574722290039062
1761470495380651000,6.350651123046875,-0.16437818109989166,-0.3484111428260803,-2.962928533554077
1761470495390626800,6.360626708984375,-0.5338953137397766,-0.2676851153373718,-3.1463654041290283
1761470495400603100,6.37060302734375,-1.133459210395813,-0.03487744182348251,-3.0073659420013428
1761470495410580000,6.380580078125,-1.8351542949676514,0.3515373468399048,-2.3237366676330566
1761470495420556000,6.39055615234375,-2.363081455230713,0.652252197265625,-1.0885053873062134
1761470495430532000,6.400531982421875,-2.4579570293426514,0.9404534697532654,0.37971600890159607
1761470495440509000,6.410509033203125,-2.1036999225616455,1.0661896467208862,1.7046452760696411
1761470495450485000,6.420485107421875,-1.723332166671753,0.6695217490196228,2.704500436782837
1761470495460460800,6.430460693359375,-1.556246280670166,0.03681726008653641,3.2565269470214844
1761470495470438000,6.44043798828125,-1.6585826873779297,-0.3906700611114502,3.4240260124206543
1761470495480414000,6.4504140625,-1.9167498350143433,-0.5590764284133911,3.2601637840270996
1761470495490391000,6.46039111328125,-2.1502671241760254,-0.593326985836029,2.8381834030151367
1761470495500366800,6.470366943359375,-2.3144149780273438,-0.4069879651069641,2.284045457839966
1761470495510343200,6.48034326171875,-2.3321995735168457,-0.009980754926800728,1.700705885887146
1761470495520320000,6.490320068359375,-2.2169981002807617,0.4772413671016693,1.1466584205627441
1761470495530295800,6.5002958984375,-2.0849452018737793,0.866790235042572,0.6199430823326111
1761470495540271900,6.51027197265625,-2.0053272247314453,1.0766878128051758,0.15995444357395172
1761470495550249000,6.5202490234375,-1.9679683446884155,1.0793451070785522,-0.1459130495786667
1761470495560225000,6.53022509765625,-2.007655143737793,0.823082447052002,-0.29943710565567017
1761470495570200800,6.540200927734375,-2.0662927627563477,0.45552194118499756,-0.3270953297615051
1761470495580178000,6.550177978515625,-2.1177029609680176,0.16097843647003174,-0.2871401906013489
1761470495590154000,6.560154052734375,-2.128286838531494,-0.04251304268836975,-0.1847415715456009
1761470495600129800,6.5701298828125,-2.166815996170044,-0.16490605473518372,-0.0660623162984848
1761470495610107000,6.58010693359375,-2.258624315261841,-0.2313840091228485,0.024801861494779587
1761470495620083000,6.5900830078125,-2.4017956256866455,-0.26156187057495117,0.07278615981340408
1761470495630059000,6.60005908203125,-2.5784435272216797,-0.26267561316490173,0.0941215455532074
1761470495640035800,6.610035888671875,-2.690112829208374,-0.27007466554641724,0.10541627556085587
1761470495650012000,6.620011962890625,-2.62392520904541,-0.32712581753730774,0.12506499886512756
1761470495659989000,6.629989013671875,-2.3971381187438965,-0.3487650454044342,0.18220071494579315
1761470495669965000,6.639965087890625,-2.066502571105957,-0.3378651440143585,0.2794370651245117
1761470495679940900,6.64994091796875,-1.7215311527252197,-0.24793899059295654,0.3944573998451233
1761470495689918000,6.65991796875,-1.5374066829681396,-0.26904305815696716,0.38915976881980896
1761470495699894000,6.66989404296875,-1.5186580419540405,-0.4834078252315521,0.27897441387176514
1761470495709869800,6.679869873046875,-1.5226976871490479,-0.7428497076034546,0.11669183522462845
1761470495719847000,6.689846923828125,-1.4367679357528687,-0.9578932523727417,-0.02386527694761753
1761470495729823000,6.699822998046875,-1.3043785095214844,-0.98907870054245,0.027612879872322083
1761470495739799000,6.709799072265625,-1.3987658023834229,-0.7582859992980957,0.6243244409561157
1761470495749776000,6.71977587890625,-1.835415005683899,-0.7322000861167908,1.807148814201355
1761470495759752000,6.729751953125,-2.298020839691162,-1.2890889644622803,3.146638870239258
1761470495769728000,6.73972802734375,-2.7419819831848145,-2.473422050476074,4.047017574310303
1761470495779705000,6.749705078125,-3.0801141262054443,-3.832336664199829,4.3035125732421875
1761470495789681000,6.759680908203125,-2.9019899368286133,-4.828032493591309,3.993288040161133
1761470495799657200,6.7696572265625,-2.28355073928833,-4.960305213928223,3.2233009338378906
1761470495809634000,6.779634033203125,-1.3616278171539307,-4.500778675079346,2.137068271636963
1761470495819610000,6.789610107421875,-0.4304075241088867,-3.877523183822632,0.8323364853858948
1761470495829586000,6.7995859375,0.2614198625087738,-3.14888072013855,-0.5619645714759827
1761470495839563000,6.80956298828125,0.6423868536949158,-2.210460662841797,-1.8177344799041748
1761470495849539000,6.8195390625,0.5892313718795776,-1.3193994760513306,-2.8800480365753174
1761470495859516200,6.82951611328125,0.04664212465286255,-0.2821454405784607,-3.7028350830078125
1761470495869492000,6.839491943359375,-0.6368871927261353,0.669142484664917,-4.156192779541016
1761470495879468000,6.849468017578125,-1.1558654308319092,1.3045666217803955,-4.183646202087402
1761470495889445000,6.859445068359375,-1.3860491514205933,1.5655109882354736,-3.8174819946289062
1761470495899421000,6.8694208984375,-1.2612730264663696,1.3766452074050903,-3.1077609062194824
1761470495909397200,6.879397216796875,-0.852813720703125,0.7985150814056396,-2.13519287109375
1761470495919374000,6.8893740234375,-0.3238338232040405,0.08352238684892654,-1.0935535430908203
1761470495929350100,6.89935009765625,0.09522832930088043,-0.5572136640548706,-0.2682139575481415
1761470495939326000,6.909325927734375,0.148624986410141,-1.0218532085418701,0.2105446457862854
1761470495949303000,6.919302978515625,-0.1843273937702179,-1.3809850215911865,0.3178887963294983
1761470495959279000,6.929279052734375,-0.7246105670928955,-1.6450228691101074,0.0824565663933754
1761470495969255000,6.9392548828125,-1.2419946193695068,-1.5714874267578125,-0.33541399240493774
1761470495979232000,6.94923193359375,-1.6302379369735718,-1.1659632921218872,-0.7651843428611755
1761470495989208000,6.9592080078125,-1.8892772197723389,-0.5827347636222839,-1.0330735445022583
1761470495999185200,6.96918505859375,-2.030031204223633,0.07132720202207565,-1.0697245597839355
1761470496009161000,6.979160888671875,-2.032247304916382,0.6510341763496399,-0.9427154064178467
1761470496019137000,6.989136962890625,-1.9563302993774414,1.1130372285842896,-0.6617324948310852
1761470496029114000,6.999114013671875,-1.7383633852005005,1.2850381135940552,-0.2131475806236267
1761470496039090200,7.009090087890625,-1.4087157249450684,1.076824426651001,0.32538753747940063
1761470496049066000,7.01906591796875,-1.1802918910980225,0.5983891487121582,0.7618565559387207
1761470496059042800,7.029042724609375,-1.1743899583816528,0.03272068873047829,1.0163705348968506
1761470496069019100,7.03901904296875,-1.3444392681121826,-0.540883481502533,1.1268699169158936
1761470496078995000,7.048994873046875,-1.7172058820724487,-0.9743757843971252,1.0739142894744873
1761470496088972000,7.058971923828125,-2.180429458618164,-1.1030652523040771,0.9409715533256531
1761470496098948000,7.068947998046875,-2.5555999279022217,-0.9523277878761292,0.8028290867805481
1761470496108924200,7.078924072265625,-2.7321550846099854,-0.6448165774345398,0.738100528717041
1761470496118901000,7.08890087890625,-2.6645796298980713,-0.22719912230968475,0.7393618226051331
1761470496128877000,7.098876953125,-2.360273599624634,0.12552696466445923,0.7472882866859436
1761470496138853000,7.10885302734375,-1.9808787107467651,0.2217397838830948,0.6883344054222107
1761470496148830000,7.118829833984375,-1.6840852499008179,0.09503747522830963,0.49951207637786865
1761470496158806000,7.128805908203125,-1.4825001955032349,0.0006225586403161287,0.2540879547595978
1761470496168782800,7.138782958984375,-1.4177247285842896,0.00044872844591736794,0.046587422490119934
1761470496178759200,7.14875927734375,-1.4787122011184692,0.05669388920068741,-0.06599558144807816
1761470496188735000,7.15873486328125,-1.5984382629394531,0.13802450895309448,-0.01691567152738571
1761470496198712000,7.168712158203125,-1.6774704456329346,0.14107541739940643,0.1889517456293106
1761470496208688000,7.178688232421875,-1.6433075666427612,-0.11583995074033737,0.4819084703922272
1761470496218664000,7.188663818359375,-1.615686058998108,-0.5888381004333496,0.7972277998924255
1761470496228641000,7.19864111328125,-1.7497451305389404,-0.9884870648384094,1.108974575996399
1761470496238616800,7.208616943359375,-2.1263160705566406,-0.8608306050300598,1.3927562236785889
1761470496248593200,7.21859326171875,-2.702759265899658,-0.5412231683731079,1.7174263000488281
1761470496258570000,7.228570068359375,-3.305997848510742,-0.329694926738739,2.22768497467041
1761470496268546000,7.238546142578125,-3.604055643081665,-0.6368106007575989,2.6988723278045654
1761470496278522000,7.248522216796875,-3.3848395347595215,-1.654383897781372,2.881631374359131
1761470496288499200,7.258499267578125,-2.8278512954711914,-2.7229866981506348,2.532336711883545
1761470496298475000,7.26847509765625,-1.9863332509994507,-3.012589693069458,1.8069509267807007
1761470496308450800,7.278450927734375,-1.1254369020462036,-2.7122130393981934,0.9167424440383911
1761470496318428200,7.28842822265625,-0.5383267998695374,-1.9846121072769165,0.07262823730707169
1761470496328404000,7.298404052734375,-0.2479735016822815,-1.39933180809021,-0.6555501818656921
1761470496338381000,7.308381103515625,-0.38117629289627075,-1.2121238708496094,-1.2364336252212524
1761470496348356900,7.31835693359375,-0.9067521691322327,-1.142020344734192,-1.653630018234253
1761470496358333200,7.328333251953125,-1.3930672407150269,-1.116142749786377,-1.951748251914978
1761470496368310000,7.33831005859375,-1.5738208293914795,-1.2129321098327637,-2.1449806690216064
1761470496378286000,7.3482861328125,-1.3423774242401123,-1.4065181016921997,-2.2509729862213135
1761470496388262100,7.35826220703125,-0.8556276559829712,-1.5023289918899536,-2.295999765396118
1761470496398239200,7.3682392578125,-0.39872804284095764,-1.277320146560669,-2.3050734996795654
1761470496408215000,7.378215087890625,-0.17080938816070557,-0.6455414295196533,-2.22501802444458
1761470496418190800,7.38819091796875,-0.15344902873039246,0.23081012070178986,-1.9740285873413086
1761470496428168000,7.39816796875,-0.31655439734458923,1.0747262239456177,-1.5187546014785767
1761470496438144000,7.40814404296875,-0.67629474401474,1.5661146640777588,-0.9262362122535706
1761470496448120000,7.4181201171875,-1.1827269792556763,1.512866735458374,-0.33252188563346863
1761470496458097000,7.428096923828125,-1.7071195840835571,0.8646619319915771,0.21918924152851105
1761470496468073200,7.4380732421875,-2.1865713596343994,-0.07901700586080551,0.6689590811729431
1761470496478049000,7.448049072265625,-2.5351152420043945,-1.031640887260437,0.991815984249115
1761470496488026000,7.458026123046875,-2.73437237739563,-1.7301040887832642,1.1945815086364746
1761470496498002200,7.468002197265625,-2.8492064476013184,-2.092521905899048,1.252450942993164
1761470496507979300,7.477979248046875,-2.9307234287261963,-2.072272777557373,1.1708331108093262
1761470496517955000,7.487955078125,-2.991713047027588,-1.7443928718566895,0.9795835614204407
1761470496527931000,7.497930908203125,-3.042790651321411,-1.2775044441223145,0.6839450001716614
1761470496537908000,7.507907958984375,-3.0743062496185303,-0.837296187877655,0.35822969675064087
1761470496547884000,7.517884033203125,-3.06343412399292,-0.4751201570034027,0.10323657095432281
1761470496557860000,7.527860107421875,-3.0137617588043213,-0.3014681935310364,-0.051294419914484024
1761470496567837000,7.5378369140625,-2.9586851596832275,-0.29054737091064453,-0.11046292632818222
1761470496577813200,7.547813232421875,-2.8973400592803955,-0.3270190954208374,-0.10266093164682388
1761470496587789000,7.5577890625,-2.832376003265381,-0.35482192039489746,-0.08511991798877716
1761470496597766100,7.56776611328125,-2.8304073810577393,-0.3878573477268219,-0.11949120461940765
1761470496607742000,7.577741943359375,-2.8928303718566895,-0.3854445219039917,-0.19412736594676971
1761470496617718000,7.587718017578125,-2.914782762527466,-0.30420079827308655,-0.2296651154756546
1761470496627695000,7.597695068359375,-2.8771698474884033,-0.1796717792749405,-0.14678749442100525
1761470496637671000,7.6076708984375,-2.79830265045166,-0.10491525381803513,0.040622882544994354
1761470496647647200,7.617647216796875,-2.6528093814849854,-0.030807167291641235,0.2812879681587219
1761470496657624000,7.6276240234375,-2.434696674346924,0.058732569217681885,0.5453478693962097
1761470496667600100,7.63760009765625,-2.2025506496429443,0.09926687926054001,0.7832192778587341
1761470496677576200,7.647576171875,-2.113194704055786,0.16103491187095642,0.9271655082702637
1761470496687553000,7.657552978515625,-2.2437376976013184,0.26643264293670654,0.9803509712219238
1761470496697529000,7.667529052734375,-2.511113166809082,0.35714179277420044,1.084851861000061
1761470496707506000,7.677505859375,-2.6487584114074707,0.3906596302986145,1.43097984790802
1761470496717482000,7.68748193359375,-2.649280309677124,0.2507515251636505,1.8327996730804443
1761470496727458000,7.6974580078125,-2.708381414413452,-0.3241420388221741,1.9078372716903687
1761470496737435100,7.70743505859375,-3.096102476119995,-0.7033053636550903,1.6956795454025269
1761470496747411000,7.717410888671875,-3.5183794498443604,-0.4598079323768616,1.6682446002960205
1761470496757387300,7.72738720703125,-3.485917329788208,-0.16170752048492432,1.9100035429000854
1761470496767364000,7.737364013671875,-2.9662933349609375,-0.5179900527000427,1.9843870401382446
1761470496777340200,7.747340087890625,-2.2365026473999023,-1.2973684072494507,1.5998915433883667
1761470496787316200,7.757316162109375,-1.6157147884368896,-2.041382074356079,1.014817237854004
1761470496797293300,7.767293212890625,-1.1733988523483276,-2.5598299503326416,0.43329399824142456
1761470496807269000,7.77726904296875,-0.9883213639259338,-2.742037534713745,0.019407732412219048
1761470496817245200,7.7872451171875,-1.1418699026107788,-2.6647837162017822,-0.20860280096530914
1761470496827222000,7.797221923828125,-1.3736618757247925,-2.5057458877563477,-0.3310033679008484
1761470496837198300,7.8071982421875,-1.586132526397705,-2.444138765335083,-0.34334713220596313
1761470496847174100,7.817174072265625,-1.722740888595581,-2.5482540130615234,-0.3752010762691498
1761470496857151200,7.827151123046875,-1.846833348274231,-2.682788133621216,-0.6263529062271118
1761470496867127300,7.837127197265625,-1.990786075592041,-2.623525857925415,-1.1352214813232422
1761470496877104400,7.8471044921875,-2.032583475112915,-2.268822193145752,-1.7226791381835938
1761470496887080200,7.857080078125,-1.9642133712768555,-1.5772885084152222,-2.2290351390838623
1761470496897056000,7.867055908203125,-1.8532007932662964,-0.7026154398918152,-2.526442289352417
1761470496907033000,7.877033203125,-1.7689119577407837,0.041723426431417465,-2.5866525173187256
1761470496917009200,7.887009033203125,-1.7445541620254517,0.5326787829399109,-2.4473326206207275
1761470496926985200,7.896985107421875,-1.7968202829360962,0.7003151178359985,-2.1723408699035645
1761470496936962000,7.906962158203125,-1.9448260068893433,0.42496103048324585,-1.8807810544967651
1761470496946938400,7.9169384765625,-2.255767345428467,-0.09332303702831268,-1.5883359909057617
1761470496956914200,7.9269140625,-2.652057409286499,-0.594964325428009,-1.3249810934066772
1761470496966891300,7.936891357421875,-2.9661388397216797,-0.9500417113304138,-1.0795938968658447
1761470496976867000,7.9468671875,-3.160658121109009,-1.0961313247680664,-0.8253687620162964
1761470496986843100,7.956843017578125,-3.2311019897460938,-1.0590815544128418,-0.5763530135154724
1761470496996820200,7.9668203125,-3.1936492919921875,-0.8829931020736694,-0.35418304800987244
1761470497006796000,7.976796142578125,-3.0520589351654053,-0.660834550857544,-0.1743379533290863
1761470497016772400,7.9867724609375,-2.842583417892456,-0.5675845146179199,-0.016132595017552376
1761470497026749200,7.996749267578125,-2.606468915939331,-0.5568362474441528,0.09940412640571594
1761470497036725200,8.006725341796875,-2.409865379333496,-0.5592523217201233,0.16902942955493927
1761470497046701300,8.016701416015625,-2.2859625816345215,-0.5502848625183105,0.17039786279201508
1761470497056678400,8.026678466796875,-2.2584598064422607,-0.5150395631790161,0.11651786416769028
1761470497066654200,8.036654296875,-2.33866810798645,-0.35944125056266785,0.05041424185037613
1761470497076630000,8.046630126953126,-2.4190709590911865,-0.17303623259067535,-0.0013118035858497024
1761470497086607000,8.056607177734374,-2.4209046363830566,0.047625649720430374,-0.01303466409444809
1761470497096583200,8.066583251953125,-2.3418772220611572,0.3049868643283844,0.04851338267326355
1761470497106559200,8.076559326171875,-2.1588332653045654,0.5075965523719788,0.19138646125793457
1761470497116536000,8.0865361328125,-1.9014195203781128,0.6886012554168701,0.3793694078922272
1761470497126512400,8.096512451171876,-1.6734338998794556,0.7504003047943115,0.5411190986633301
1761470497136489200,8.1064892578125,-1.5126506090164185,0.5380973815917969,0.610004723072052
1761470497146465300,8.11646533203125,-1.5003079175949097,0.19913293421268463,0.58357834815979
1761470497156441000,8.126441162109375,-1.7017920017242432,0.07953330129384995,0.5537866353988647
1761470497166418400,8.13641845703125,-1.9942275285720825,0.007946742698550224,0.5819758176803589
1761470497176394200,8.146394287109375,-2.452953577041626,-0.3805978000164032,0.5740749835968018
1761470497186370000,8.1563701171875,-3.187854051589966,-0.8734069466590881,0.623389720916748
1761470497196347100,8.16634716796875,-3.8523154258728027,-1.2207039594650269,0.8533547520637512
1761470497206323200,8.1763232421875,-4.18033504486084,-1.1253538131713867,1.1933144330978394
1761470497216299300,8.18629931640625,-4.110531330108643,-0.9718201756477356,1.4023593664169312
1761470497226276000,8.196276123046875,-3.588000535964966,-1.3641902208328247,1.381844401359558
1761470497236252400,8.20625244140625,-2.7119576930999756,-2.119319438934326,1.1058748960494995
1761470497246228200,8.216228271484376,-1.7190216779708862,-2.6986682415008545,0.5122523903846741
1761470497256205300,8.226205322265624,-0.8971385359764099,-2.7182629108428955,-0.2578520178794861
1761470497266181000,8.23618115234375,-0.2944141924381256,-2.1949331760406494,-0.8693451285362244
1761470497276157200,8.2461572265625,0.009781385771930218,-1.3307082653045654,-1.2097783088684082
1761470497286134300,8.25613427734375,-0.06363881379365921,-0.6303553581237793,-1.3124116659164429
1761470497296110000,8.266110107421875,-0.5901747941970825,-0.3974936008453369,-1.2518559694290161
1761470497306087200,8.276087158203126,-1.316946029663086,-0.5734005570411682,-1.1276837587356567
1761470497316063200,8.286063232421874,-1.936220407485962,-1.1090384721755981,-0.9933927655220032
1761470497326039300,8.296039306640624,-2.077622890472412,-1.865797519683838,-0.9300156831741333
1761470497336016100,8.30601611328125,-1.6367751359939575,-2.4423069953918457,-1.0178951025009155
1761470497345992400,8.315992431640625,-0.9266090393066406,-2.4806880950927734,-1.1790482997894287
1761470497355968300,8.32596826171875,-0.4058513343334198,-1.9509693384170532,-1.2999733686447144
1761470497365945000,8.335945068359376,-0.2594171166419983,-0.9236792325973511,-1.2958518266677856
1761470497375921200,8.345921142578124,-0.4062131941318512,0.2604220509529114,-1.1413906812667847
1761470497385897200,8.355897216796874,-0.734898030757904,1.098129391670227,-0.8647732138633728
1761470497395874300,8.365874267578125,-1.183339238166809,1.321311354637146,-0.5410718321800232
1761470497405850000,8.37585009765625,-1.6914458274841309,0.9333878755569458,-0.23841382563114166
1761470497415827200,8.3858271484375,-2.190683603286743,0.1302240490913391,0.051820654422044754
1761470497425803300,8.39580322265625,-2.620257616043091,-0.5843052268028259,0.30943235754966736
1761470497435779000,8.405779052734376,-2.886988878250122,-0.9074779748916626,0.4974347651004791
1761470497445756200,8.415756103515625,-2.9865424633026123,-0.9057386517524719,0.571651041507721
1761470497455732200,8.425732177734375,-2.9450838565826416,-0.6348584294319153,0.5418838262557983
1761470497465708300,8.435708251953125,-2.838366985321045,-0.23449787497520447,0.42595916986465454
1761470497475685000,8.44568505859375,-2.734654188156128,0.141797736287117,0.2653351426124573
1761470497485661200,8.4556611328125,-2.642728328704834,0.38478782773017883,0.10702578723430634
1761470497495637200,8.46563720703125,-2.612562417984009,0.4429965317249298,-0.04659679904580116
1761470497505614300,8.4756142578125,-2.6786842346191406,0.3211482763290405,-0.2010602205991745
1761470497515590100,8.485590087890625,-2.805806875228882,0.23315423727035522,-0.32221513986587524
1761470497525566200,8.495566162109375,-2.920398473739624,0.3601900339126587,-0.3232969343662262
1761470497535543300,8.505543212890625,-2.983595848083496,0.672265350818634,-0.14742420613765717
1761470497545519000,8.51551904296875,-3.018766164779663,1.1082005500793457,0.16985096037387848
1761470497555495200,8.5254951171875,-2.9722964763641357,1.417802095413208,0.5421885251998901
1761470497565472000,8.535471923828124,-2.8316006660461426,1.329546570777893,0.8134317994117737
1761470497575448300,8.5454482421875,-2.6876890659332275,0.9576529264450073,0.935580849647522
1761470497585425200,8.555425048828125,-2.6084110736846924,0.48816627264022827,0.9676870107650757
1761470497595401200,8.565401123046875,-2.6761467456817627,0.1400437206029892,0.9770871996879578
1761470497605377300,8.575377197265626,-2.757646322250366,0.14733827114105225,1.0504604578018188
1761470497615354400,8.585354248046874,-2.7326653003692627,0.45170214772224426,1.2110527753829956
1761470497625330200,8.595330078125,-2.667695999145508,0.9110483527183533,1.4853968620300293
1761470497635306200,8.60530615234375,-2.526125907897949,1.0114339590072632,1.777113914489746
1761470497645283300,8.615283447265625,-2.4575881958007812,0.3584967851638794,1.9613118171691895
1761470497655259100,8.625259033203125,-2.5200791358947754,-0.5377815365791321,2.1753578186035156
1761470497665235200,8.635235107421876,-2.7513277530670166,-1.0593185424804688,2.587162733078003
1761470497675212000,8.6452119140625,-3.16518497467041,-1.3170139789581299,3.0271084308624268
1761470497685188400,8.655188232421875,-3.663907766342163,-1.7329647541046143,3.118389368057251
1761470497695164200,8.6651640625,-4.065260887145996,-2.434748888015747,2.670064926147461
1761470497705141200,8.675141357421875,-4.038106441497803,-3.2663333415985107,1.9582918882369995
1761470497715117300,8.685117431640625,-3.4362730979919434,-3.9428212642669678,0.964876115322113
1761470497725093000,8.695093017578126,-2.6887853145599365,-3.8613486289978027,-0.1698346585035324
1761470497735070200,8.7050703125,-2.07230806350708,-3.17495059967041,-1.1734734773635864
1761470497745046000,8.7150458984375,-1.5411452054977417,-2.2689361572265625,-1.813879370689392
1761470497755023400,8.7250234375,-1.036629319190979,-1.6178722381591797,-2.1493964195251465
1761470497764999200,8.734999267578125,-0.773091733455658,-1.2821406126022339,-2.375359296798706
1761470497774974500,8.744974365234375,-0.7805885076522827,-1.0585664510726929,-2.388951301574707
1761470497784951800,8.754951904296876,-0.8980227708816528,-0.9638950228691101,-2.129873514175415
1761470497794927600,8.764927734375,-1.068071722984314,-0.9942494630813599,-1.6766951084136963
1761470497804903700,8.774903564453124,-1.2471096515655518,-1.1788603067398071,-1.1460583209991455
1761470497814880500,8.784880615234375,-1.3568036556243896,-1.4339265823364258,-0.6599408984184265
1761470497824856800,8.79485693359375,-1.4044458866119385,-1.5088881254196167,-0.3054536283016205
1761470497834832600,8.80483251953125,-1.4142884016036987,-1.2830138206481934,-0.06328252702951431
1761470497844809700,8.814809814453126,-1.3595858812332153,-0.8245658278465271,0.13749897480010986
1761470497854785800,8.824785888671874,-1.2311596870422363,-0.28216272592544556,0.335303395986557
1761470497864761600,8.83476171875,-1.1102478504180908,0.18584701418876648,0.5079576373100281
1761470497874738700,8.84473876953125,-1.0938397645950317,0.4114716351032257,0.6446797847747803
1761470497884714500,8.854714599609375,-1.1789257526397705,0.26655444502830505,0.6943768262863159
1761470497894690800,8.86469091796875,-1.4089137315750122,-0.214063823223114,0.6180381178855896
1761470497904667600,8.874667724609376,-1.814450979232788,-0.7835677862167358,0.4137694537639618
1761470497914643700,8.884643798828124,-2.249199628829956,-1.1447908878326416,0.12282177060842514
1761470497924620500,8.89462060546875,-2.5661652088165283,-1.0675948858261108,-0.12122971564531326
1761470497934596900,8.904596923828125,-2.7308337688446045,-0.6398097276687622,-0.2639645040035248
1761470497944572700,8.91457275390625,-2.747361660003662,-0.05949576944112778,-0.33823272585868835
1761470497954549500,8.924549560546875,-2.634075403213501,0.5385175943374634,-0.36328133940696716
1761470497964525800,8.93452587890625,-2.4526588916778564,1.0209718942642212,-0.33607253432273865
1761470497974501600,8.944501708984374,-2.2628841400146484,1.277405858039856,-0.26324307918548584
1761470497984478700,8.954478759765625,-2.108980178833008,1.2983084917068481,-0.12897780537605286
1761470497994454500,8.96445458984375,-2.0775039196014404,1.1998529434204102,0.012256273999810219
1761470498004430800,8.974430908203125,-2.1599161624908447,0.979941725730896,0.13776956498622894
1761470498014407700,8.98440771484375,-2.312723159790039,0.7828657031059265,0.25257256627082825
1761470498024383700,8.9943837890625,-2.4474997520446777,0.6582726836204529,0.390266478061676
1761470498034359800,9.00435986328125,-2.507174015045166,0.5772340297698975,0.583705484867096
1761470498044336600,9.014336669921875,-2.51457142829895,0.5756005048751831,0.8294736742973328
1761470498054312700,9.024312744140625,-2.5314793586730957,0.6713613867759705,1.08554208278656
1761470498064288500,9.03428857421875,-2.6258885860443115,0.7789832353591919,1.25678288936615
1761470498074265600,9.044265625,-2.7939293384552,0.8268910646438599,1.2781782150268555
1761470498084241700,9.05424169921875,-2.94868803024292,0.7052578330039978,1.2002164125442505
1761470498094217700,9.0642177734375,-3.005486249923706,0.4990847110748291,1.1964975595474243
1761470498104194600,9.074194580078125,-2.8058087825775146,0.305605411529541,1.3095171451568604
1761470498114170600,9.084170654296875,-2.524932622909546,0.18792590498924255,1.3871160745620728
1761470498124147700,9.094147705078125,-2.4249095916748047,0.047820087522268295,1.2947640419006348
1761470498134123500,9.10412353515625,-2.813585042953491,-0.3762856423854828,1.136130452156067
1761470498144099800,9.114099853515626,-3.61533522605896,-1.1657897233963013,0.9789465069770813
1761470498154076700,9.12407666015625,-4.4208083152771,-1.89914071559906,0.8637086153030396
1761470498164052700,9.134052734375,-4.86454439163208,-2.068484306335449,0.9984973669052124
1761470498174028500,9.144028564453125,-4.670494556427002,-2.759028196334839,1.1983481645584106
1761470498184005600,9.154005615234375,-3.8614916801452637,-3.504363536834717,1.2223974466323853
1761470498193981700,9.163981689453125,-2.8236119747161865,-3.7347118854522705,0.8781188130378723
1761470498203957500,9.17395751953125,-2.05850887298584,-3.8208212852478027,0.0955151617527008
1761470498213934600,9.1839345703125,-1.793976068496704,-3.3894717693328857,-0.97127366065979
1761470498223910700,9.19391064453125,-1.7952638864517212,-2.615926504135132,-1.9307810068130493
1761470498233886700,9.20388671875,-2.0940942764282227,-2.1141083240509033,-2.6119801998138428
1761470498243863600,9.213863525390625,-2.4604239463806152,-1.854499340057373,-3.0079407691955566
1761470498253839600,9.223839599609375,-2.6682634353637695,-1.6481631994247437,-2.970289468765259
1761470498263816700,9.233816650390626,-2.6673502922058105,-1.489363193511963,-2.496181011199951
1761470498273792800,9.243792724609374,-2.491516351699829,-1.358670711517334,-1.7373912334442139
1761470498283768600,9.2537685546875,-2.27461314201355,-1.2958810329437256,-0.9047226309776306
1761470498293745700,9.26374560546875,-2.144897699356079,-1.3800084590911865,-0.22103965282440186
1761470498303721700,9.2737216796875,-2.166334867477417,-1.3893117904663086,0.20820696651935577
1761470498313697500,9.283697509765625,-2.2644782066345215,-1.1337178945541382,0.49700549244880676
1761470498323674600,9.293674560546876,-2.3640713691711426,-0.6983151435852051,0.760388970375061
1761470498333650700,9.303650634765624,-2.431344747543335,-0.26397645473480225,0.9773085117340088
1761470498343626800,9.313626708984375,-2.4771478176116943,-0.10119538754224777,1.091626524925232
1761470498353603600,9.323603515625,-2.565988302230835,-0.19535225629806519,1.0676977634429932
1761470498363579600,9.33357958984375,-2.679455280303955,-0.5193778276443481,0.8806444406509399
1761470498373555700,9.3435556640625,-2.7382593154907227,-0.9546265006065369,0.5579394102096558
1761470498383532800,9.35353271484375,-2.7667205333709717,-1.2424737215042114,0.22363270819187164
1761470498393508600,9.363508544921874,-2.780884027481079,-1.2505478858947754,-0.040548618882894516
1761470498403484700,9.373484619140624,-2.7818284034729004,-1.0003907680511475,-0.2112046331167221
1761470498413461800,9.383461669921875,-2.7688357830047607,-0.697297215461731,-0.3123144507408142
1761470498423437600,9.3934375,-2.70409893989563,-0.39154863357543945,-0.31552842259407043
1761470498433413600,9.40341357421875,-2.5968873500823975,-0.08955737948417664,-0.20304100215435028
1761470498443390700,9.413390625,-2.499204158782959,0.11330952495336533,-0.020927567034959793
1761470498453366800,9.42336669921875,-2.4595649242401123,0.2063281536102295,0.2277112752199173
1761470498463343600,9.433343505859375,-2.4633638858795166,0.15831097960472107,0.5476908087730408
1761470498473319700,9.443319580078125,-2.508124589920044,-0.12808801233768463,0.8417232036590576
1761470498483295700,9.453295654296875,-2.6811716556549072,-0.6566619873046875,0.9767920970916748
1761470498493272800,9.46327294921875,-2.8682773113250732,-1.190209150314331,0.9429819583892822
1761470498503248600,9.47324853515625,-2.929757833480835,-1.5097500085830688,0.8321343064308167
1761470498513224700,9.483224609375,-2.8416783809661865,-1.5599889755249023,0.7461448311805725
1761470498523201800,9.493201904296875,-2.6876344680786133,-1.4081567525863647,0.7042614817619324
1761470498533177600,9.503177490234375,-2.539099931716919,-1.1924103498458862,0.6317960619926453
1761470498543153700,9.513153564453125,-2.4148612022399902,-0.8840230703353882,0.4949737787246704
1761470498553130800,9.523130859375,-2.286520004272461,-0.47668540477752686,0.39072754979133606
1761470498563106800,9.53310693359375,-2.2689337730407715,0.08072761446237564,0.4170766770839691
1761470498573082600,9.54308251953125,-2.3371970653533936,0.6030094027519226,0.5339332818984985
1761470498583059700,9.553059814453125,-2.5136735439300537,1.0875681638717651,0.829333484172821
1761470498593035800,9.563035888671875,-2.7692017555236816,1.31829833984375,1.4876221418380737
1761470498603011600,9.573011474609375,-3.076462984085083,0.8918331265449524,2.3459858894348145
1761470498612988700,9.58298876953125,-3.4422388076782227,-0.1937837302684784,2.971714496612549
1761470498622964700,9.59296484375,-3.9394776821136475,-1.1575936079025269,3.229069709777832
1761470498632941800,9.60294189453125,-4.364319324493408,-1.9456032514572144,3.1832473278045654
1761470498642917600,9.612917724609375,-4.395659923553467,-2.4356322288513184,2.8799948692321777
1761470498652893700,9.622893798828125,-3.9767861366271973,-2.70181941986084,2.3283472061157227
1761470498662870500,9.63287060546875,-3.3939337730407715,-2.635113477706909,1.589001178741455
1761470498672846600,9.6428466796875,-2.840196132659912,-2.1129941940307617,0.8013454675674438
1761470498682822700,9.65282275390625,-2.258737802505493,-1.6009329557418823,0.0458148755133152
1761470498692799500,9.662799560546874,-1.7359286546707153,-1.4666321277618408,-0.6720407605171204
1761470498702775800,9.67277587890625,-1.5432567596435547,-1.4360100030899048,-1.3969897031784058
1761470498712751600,9.682751708984375,-1.7293787002563477,-1.3907990455627441,-2.073761224746704
1761470498722728700,9.692728759765625,-2.139820098876953,-1.239383578300476,-2.577237844467163
1761470498732704500,9.70270458984375,-2.4947307109832764,-0.9403690695762634,-2.6691572666168213
1761470498742680800,9.712680908203126,-2.6514594554901123,-0.6197954416275024,-2.3546128273010254
1761470498752657700,9.72265771484375,-2.442324638366699,-0.338309109210968,-1.810767650604248
1761470498762633500,9.732633544921875,-1.9838528633117676,-0.19446492195129395,-1.1307380199432373
1761470498772610800,9.74261083984375,-1.5836384296417236,-0.2072662115097046,-0.4502359926700592
1761470498782587000,9.7525869140625,-1.493505597114563,-0.23897472023963928,0.13073144853115082
1761470498792563000,9.76256298828125,-1.6297190189361572,-0.28804826736450195,0.5706039071083069
1761470498802539800,9.772539794921874,-1.9441910982131958,-0.37044820189476013,0.8837615251541138
1761470498812516000,9.78251611328125,-2.387655019760132,-0.5213245749473572,1.0633189678192139
1761470498822492000,9.792491943359375,-2.8740901947021484,-0.6877302527427673,1.1347928047180176
1761470498832469000,9.802468994140625,-3.275527238845825,-0.8379501104354858,1.1345986127853394
1761470498842444800,9.81244482421875,-3.4945452213287354,-0.9647154808044434,1.1110196113586426
1761470498852420900,9.8224208984375,-3.4790525436401367,-1.140520691871643,1.0851081609725952
1761470498862398000,9.83239794921875,-3.3604133129119873,-1.4168983697891235,1.0189390182495117
1761470498872373800,9.842373779296874,-3.27527117729187,-1.637620449066162,0.879838228225708
1761470498882350000,9.85235009765625,-3.262479543685913,-1.629391074180603,0.6235660910606384
1761470498892327000,9.862326904296875,-3.318296432495117,-1.329046607017517,0.334958553314209
1761470498902303000,9.872302978515625,-3.3781564235687256,-0.922193169593811,0.09690660983324051
1761470498912278800,9.88227880859375,-3.348518133163452,-0.5976281762123108,0.006227838806807995
1761470498922256000,9.892255859375,-3.2252237796783447,-0.40213045477867126,0.06675504148006439
1761470498932232000,9.90223193359375,-3.058687686920166,-0.35013702511787415,0.147719144821167
1761470498942207700,9.912207763671875,-2.952967882156372,-0.3634549379348755,0.1326659917831421
1761470498952184800,9.922184814453125,-2.8975472450256348,-0.3070638179779053,0.0036896320525556803
1761470498962161000,9.932160888671875,-2.9208314418792725,-0.019759273156523705,-0.10183774679899216
1761470498972138000,9.942137939453126,-2.8812038898468018,0.10325612872838974,-0.1445053219795227
1761470498982113800,9.95211376953125,-2.7824721336364746,-0.11606240272521973,-0.21358716487884521
1761470498992090000,9.962090087890624,-2.646631956100464,-0.42919689416885376,-0.34579500555992126
1761470499002067000,9.97206689453125,-2.4857442378997803,-0.3982004225254059,-0.47634512186050415
1761470499012043000,9.98204296875,-2.206991672515869,-0.2969222664833069,-0.5055519938468933
1761470499022018800,9.992018798828125,-2.0028672218322754,-0.07320518791675568,-0.5531929135322571
1761470499031996000,10.001995849609376,-1.8557379245758057,0.3492744266986847,-0.6023985743522644
1761470499041972000,10.011971923828124,-1.655255913734436,0.6747036576271057,-0.4892881512641907
1761470499051947800,10.02194775390625,-1.3954708576202393,0.7424715161323547,-0.3219476044178009
1761470499061924900,10.0319248046875,-1.1387864351272583,0.595977246761322,-0.07955911755561829
1761470499071901000,10.04190087890625,-1.130379557609558,0.10268893092870712,0.1780407428741455
1761470499081877000,10.051876953125,-1.492911696434021,-0.5121892094612122,0.382907509803772
1761470499091853800,10.061853759765626,-2.289055824279785,-0.6562401056289673,0.6862843632698059
1761470499101830000,10.071829833984374,-3.1059024333953857,-0.4700485169887543,1.1244447231292725
1761470499111806000,10.081805908203124,-3.492694616317749,-0.8832265138626099,1.604455828666687
1761470499121783000,10.091782958984375,-3.0944809913635254,-1.6635351181030273,2.110018491744995
1761470499131758800,10.1017587890625,-2.3815386295318604,-2.633002519607544,2.1944546699523926
1761470499141735000,10.11173486328125,-1.804511308670044,-3.3779850006103516,1.561821699142456
1761470499151712000,10.1217119140625,-1.2631555795669556,-3.3986575603485107,0.5527146458625793
1761470499161687800,10.131687744140624,-0.7783727645874023,-2.7883834838867188,-0.3082258105278015
1761470499171665000,10.141664794921875,-0.5671084523200989,-1.8986700773239136,-0.9559020400047302
1761470499181641000,10.151640869140625,-0.6067616939544678,-1.3691401481628418,-1.4269450902938843
1761470499191617000,10.161616943359375,-0.6972820162773132,-1.5738698244094849,-1.7180458307266235
1761470499201593900,10.17159375,-0.6327939629554749,-2.1109983921051025,-1.8236558437347412
1761470499211570000,10.18156982421875,-0.2766270339488983,-2.65486741065979,-1.9953657388687134
1761470499221546000,10.1915458984375,0.06544172018766403,-2.647688865661621,-2.3349521160125732
1761470499231523000,10.201523193359375,0.153283953666687,-1.832436203956604,-2.751762628555298
1761470499241499000,10.211498779296875,0.03212792053818703,-0.31585198640823364,-2.996525526046753
1761470499251475000,10.221474853515625,-0.07730455696582794,1.1698808670043945,-2.7724297046661377
1761470499261452000,10.2314521484375,-0.007148350588977337,2.029698371887207,-2.1936419010162354
1761470499271427800,10.241427734375,0.1990325152873993,2.007586717605591,-1.4787180423736572
1761470499281404000,10.25140380859375,0.2071358561515808,1.1504392623901367,-0.762883722782135
1761470499291381000,10.261381103515625,-0.13064031302928925,0.013608790934085846,-0.24547094106674194
1761470499301357000,10.271357177734375,-0.6501976251602173,-0.82184237241745,0.11069235950708389
1761470499311334000,10.281333984375,-1.1544443368911743,-1.0153028964996338,0.3829462230205536
1761470499321309700,10.291309814453125,-1.6015722751617432,-0.7262548208236694,0.5832589268684387
1761470499331286000,10.3012861328125,-1.881604790687561,-0.26101788878440857,0.6972041726112366
1761470499341262800,10.311262939453124,-1.9252750873565674,0.17367199063301086,0.7440752387046814
1761470499351239000,10.321239013671875,-1.8342381715774536,0.5821742415428162,0.7968553900718689
1761470499361215000,10.331215087890625,-1.6414238214492798,0.7179924249649048,0.8732447624206543
1761470499371192000,10.341192138671875,-1.432929515838623,0.6000953316688538,0.8797402381896973
1761470499381167900,10.35116796875,-1.271233320236206,0.4023617208003998,0.7741139531135559
1761470499391144000,10.36114404296875,-1.2683054208755493,0.16812898218631744,0.5551483035087585
1761470499401121000,10.37112109375,-1.4635591506958008,0.04599471762776375,0.2707444727420807
1761470499411096800,10.381096923828125,-1.7485746145248413,0.1857084184885025,0.06905262917280197
1761470499421073000,10.391072998046875,-1.9881656169891357,0.48007717728614807,0.06243202090263367
1761470499431049700,10.4010498046875,-2.067573070526123,0.7739905714988708,0.31339845061302185
1761470499441026000,10.411026123046875,-1.9558700323104858,0.8760917782783508,0.6937243938446045
1761470499451001900,10.421001953125,-1.7445114850997925,0.6633121371269226,1.056660532951355
1761470499460979000,10.43097900390625,-1.5367602109909058,0.266275554895401,1.2620543241500854
1761470499470955000,10.440955078125,-1.463739275932312,-0.19736215472221375,1.2325246334075928
1761470499480930800,10.450930908203125,-1.5362603664398193,-0.4948263466358185,1.0799726247787476
1761470499490908000,10.460907958984375,-1.615254521369934,-0.4607575833797455,0.9817639589309692
1761470499500883700,10.4708837890625,-1.6481174230575562,-0.12061008810997009,1.0056833028793335
1761470499510860800,10.48086083984375,-1.6157267093658447,0.3712398111820221,1.128268837928772
1761470499520836900,10.4908369140625,-1.5457563400268555,0.7623963356018066,1.2774935960769653
1761470499530813000,10.50081298828125,-1.6118333339691162,0.8857738971710205,1.4434378147125244
1761470499540789800,10.510789794921875,-1.8476756811141968,0.44198882579803467,1.6275898218154907
1761470499550766000,10.52076611328125,-2.145693302154541,-0.5468295812606812,1.8861651420593262
1761470499560742000,10.530741943359375,-2.4279544353485107,-1.532127857208252,2.090996503829956
1761470499570719000,10.540718994140626,-2.5624616146087646,-2.584580659866333,2.243063449859619
1761470499580695000,10.550695068359374,-2.4147398471832275,-3.9298806190490723,2.065004348754883
1761470499590670800,10.5606708984375,-1.9899506568908691,-4.867204666137695,1.4887980222702026
1761470499600648000,10.57064794921875,-1.5348126888275146,-4.880483627319336,0.7279726266860962
1761470499610623700,10.580623779296875,-1.2837918996810913,-3.908784866333008,-0.035852327942848206
1761470499620600000,10.59060009765625,-1.0179085731506348,-2.713487148284912,-0.7640429735183716
1761470499630577000,10.600576904296876,-0.800087571144104,-1.9328008890151978,-1.3993360996246338
1761470499640553000,10.610552978515624,-0.850639283657074,-1.7337267398834229,-1.7402509450912476
1761470499650529000,10.620529052734375,-1.2354271411895752,-1.7417782545089722,-1.9091235399246216
1761470499660506000,10.630506103515625,-1.8518468141555786,-1.685097098350525,-1.9589506387710571
1761470499670482000,10.64048193359375,-2.4513416290283203,-1.3668184280395508,-1.8478506803512573
1761470499680459000,10.650458984375,-2.6940503120422363,-0.6589229106903076,-1.578812599182129
1761470499690434800,10.660434814453126,-2.6405277252197266,0.9786942601203918,-1.2248878479003906
1761470499700411000,10.670410888671874,-2.4345321655273438,1.8276633024215698,-0.6870883107185364
1761470499710388000,10.680387939453125,-1.8708447217941284,2.2586512565612793,-0.17156533896923065
1761470499720363800,10.69036376953125,-1.4007513523101807,1.8196971416473389,0.1190885528922081
1761470499730340000,10.700340087890625,-1.3244017362594604,0.6818019151687622,0.12802107632160187
1761470499740317000,10.71031689453125,-1.7017898559570312,-0.40994641184806824,-0.15155208110809326
1761470499750293000,10.72029296875,-2.24953293800354,-0.8766693472862244,-0.5757944583892822
1761470499760268800,10.730268798828124,-2.6334450244903564,-0.6210697293281555,-0.9024136662483215
1761470499770246100,10.74024609375,-2.718057155609131,-0.15898168087005615,-1.0757167339324951
1761470499780222000,10.750221923828125,-2.505950450897217,0.2899334132671356,-1.1355409622192383
1761470499790197800,10.76019775390625,-2.071802854537964,0.45090338587760925,-1.0803985595703125
1761470499800174800,10.7701748046875,-1.5016826391220093,0.365330308675766,-1.0024985074996948
1761470499810151000,10.78015087890625,-1.0219471454620361,0.19449067115783691,-0.8758549690246582
1761470499820127000,10.790126953125,-0.796827495098114,-0.1460437923669815,-0.8511415123939514
1761470499830103800,10.800103759765625,-0.8187085390090942,-0.45097118616104126,-1.004042625427246
1761470499840080100,10.810080078125,-1.0869319438934326,-0.5980740189552307,-1.2254446744918823
1761470499850057000,10.820056884765625,-1.4247105121612549,-0.6508456468582153,-1.4327385425567627
1761470499860033000,10.830032958984376,-1.644271731376648,-0.8022640943527222,-1.5829148292541504
1761470499870008800,10.8400087890625,-1.8389610052108765,-0.9855316877365112,-1.6456701755523682
1761470499879986000,10.84998583984375,-1.8726398944854736,-0.5344290137290955,-1.6515573263168335
1761470499889962000,10.8599619140625,-1.8042017221450806,-0.40544015169143677,-1.661984920501709
1761470499899937800,10.869937744140625,-1.7056384086608887,-0.22293955087661743,-1.6813197135925293
1761470499909915000,10.879914794921875,-1.537430763244629,-0.0333818718791008,-1.744187593460083
1761470499919891000,10.889890869140626,-1.2355748414993286,3.4660186767578125,-1.368348479270935
1761470499929867000,10.899866943359376,-1.6046497821807861,3.114353656768799,-0.4980601966381073
1761470499939843800,10.90984375,-2.5728514194488525,0.04694383218884468,-0.25117555260658264
1761470499949820200,10.919820068359375,-2.872751235961914,-0.8611900806427002,-0.07458667457103729
1761470499959796000,10.9297958984375,-2.5219573974609375,0.347380667924881,0.3385016918182373
1761470499969773000,10.93977294921875,-1.4493516683578491,1.019867181777954,1.0954378843307495
1761470499979748900,10.949748779296876,-0.9001064300537109,-1.2616239786148071,1.3591859340667725
1761470499989725000,10.959724853515626,-1.176709532737732,-1.7799153327941895,1.5185770988464355
1761470499999702000,10.969701904296874,-1.8500378131866455,-1.453200340270996,1.5882019996643066
1761470500009677800,10.979677734375,-2.2220540046691895,-1.1618386507034302,1.3992682695388794
1761470500019655000,10.989655029296875,-2.1865081787109375,-0.32888925075531006,1.7370303869247437
1761470500029631000,10.999630859375,-1.9578782320022583,-0.04778328537940979,2.452671766281128
1761470500039607000,11.00960693359375,-1.7748138904571533,0.22521555423736572,2.6147799491882324
1761470500049583900,11.019583984375,-1.3880174160003662,0.20812684297561646,1.4146069288253784
1761470500059560000,11.029559814453124,-0.8848561644554138,0.36241450905799866,-0.6203998327255249
1761470500069536000,11.039535888671875,-0.6029376983642578,0.526065468788147,-2.128798246383667
1761470500079513000,11.04951318359375,-0.6744336485862732,0.6218883395195007,-2.856877088546753
1761470500089489000,11.059489013671875,-1.1722580194473267,0.8686810731887817,-3.072841167449951
1761470500099465000,11.06946484375,-1.6855847835540771,1.079465389251709,-2.900292158126831
1761470500109442000,11.079442138671874,-1.8345407247543335,0.8751706480979919,-2.3063015937805176
1761470500119417900,11.08941796875,-1.4428746700286865,0.7805330753326416,-1.3061836957931519
1761470500129394200,11.099394287109375,-1.0699913501739502,0.46776291728019714,-0.652021586894989
1761470500139371000,11.10937109375,-0.9877627491950989,0.1359318047761917,-0.4814336895942688
1761470500149347000,11.11934716796875,-1.1423022747039795,-0.08493001013994217,-0.2836606800556183
1761470500159323000,11.129322998046876,-1.2015626430511475,-0.029428616166114807,0.11564139276742935
1761470500169300000,11.139300048828124,-1.2455393075942993,0.1341126412153244,0.6493870615959167
1761470500179276000,11.149276123046874,-1.2478992938995361,0.17366895079612732,1.2692362070083618
1761470500189252900,11.1592529296875,-1.0753812789916992,-0.15517231822013855,1.788293719291687
1761470500199229000,11.16922900390625,-0.9102348685264587,-0.3460184633731842,2.163224697113037
1761470500209205000,11.179205078125,-0.8393175601959229,-0.3924168646335602,2.230724811553955
1761470500219182000,11.18918212890625,-0.70217365026474,-0.39987969398498535,1.9459830522537231
1761470500229158000,11.199157958984374,-0.4990652799606323,-0.1902891844511032,1.4324766397476196
1761470500239134000,11.209134033203124,-0.36223626136779785,-0.043819814920425415,1.0065377950668335
1761470500249111000,11.219111083984375,-0.22016140818595886,0.02571132220327854,0.7451719641685486
1761470500259086800,11.2290869140625,-0.16125498712062836,-0.009981857612729073,0.5799568295478821
1761470500269063000,11.23906298828125,-0.11269889026880264,-0.06229992210865021,0.4699594974517822
1761470500279039700,11.249039794921876,0.014821273274719715,-0.0036807809956371784,0.40249213576316833
