time,seconds_elapsed,z,y,x
1761476163382783700,0.11678369140625,0.35435667634010315,0.313921719789505,-0.10862782597541809
1761476163392820500,0.126820556640625,0.373688280582428,0.23765172064304352,-0.09455088526010513
1761476163402856700,0.136856689453125,0.3536869287490845,0.14295515418052673,-0.09698297828435898
1761476163412892700,0.146892578125,0.2829650938510895,-0.02667461521923542,-0.12946288287639618
1761476163422928600,0.1569287109375,0.2186347246170044,-0.124139204621315,-0.12747503817081451
1761476163432964600,0.166964599609375,0.15363441407680511,-0.14508363604545593,-0.08907119184732437
1761476163443000600,0.17700048828125,0.05261969938874245,-0.23271603882312775,-0.029419302940368652
1761476163453036500,0.18703662109375,-0.12347570061683655,-0.4602213501930237,0.017573239281773567
1761476163463073800,0.19707373046875,-0.39533913135528564,-0.8173037171363831,0.015333358198404312
1761476163473109800,0.20710986328125,-0.6383845210075378,-1.0654064416885376,-0.013671395368874073
1761476163483145700,0.217145751953125,-0.7369564771652222,-1.2466814517974854,-0.12169180810451508
1761476163493181700,0.227181640625,-0.6146638989448547,-1.3662117719650269,-0.2546514570713043
1761476163503217700,0.2372177734375,-0.4139597713947296,-1.288711428642273,-0.2802799344062805
1761476163513253600,0.247253662109375,-0.2839597165584564,-1.1957734823226929,-0.22771526873111725
1761476163523289600,0.25728955078125,-0.23816928267478943,-1.1614466905593872,-0.1828163117170334
1761476163533326600,0.26732666015625,-0.2180112898349762,-0.9747570157051086,-0.1278177797794342
1761476163543362600,0.277362548828125,-0.1863972246646881,-0.6732950806617737,-0.040303755551576614
1761476163553398500,0.2873984375,-0.07078513503074646,-0.27841970324516296,0.09047609567642212
1761476163563434500,0.2974345703125,0.08922979980707169,-0.018799835816025734,0.15293875336647034
1761476163573470700,0.307470703125,0.2481137216091156,0.16364826261997223,0.14666220545768738
1761476163583506700,0.317506591796875,0.3943127393722534,0.1766572892665863,0.1617175042629242
1761476163593542700,0.327542724609375,0.47671493887901306,0.001855652779340744,0.11631779372692108
1761476163603579600,0.33757958984375,0.3922543525695801,-0.31823354959487915,-0.0640169084072113
1761476163613615900,0.347615966796875,0.18248222768306732,-0.5914650559425354,-0.29253584146499634
1761476163623651800,0.35765185546875,-0.0008394503965973854,-0.613392174243927,-0.45165354013442993
1761476163633687800,0.367687744140625,-0.10650435835123062,-0.48586058616638184,-0.5629686117172241
1761476163643723800,0.377723876953125,-0.15201738476753235,-0.41462376713752747,-0.659030020236969
1761476163653759700,0.387759765625,-0.18225277960300446,-0.4757038950920105,-0.7691069841384888
1761476163663795700,0.397795654296875,-0.1924680471420288,-0.4262565076351166,-0.8179425001144409
1761476163673832700,0.407832763671875,-0.209786057472229,-0.11512577533721924,-0.7799322605133057
1761476163683868700,0.41786865234375,-0.2774949073791504,0.35588815808296204,-0.8463597893714905
1761476163693904600,0.427904541015625,-0.3851854205131531,0.8149318695068359,-1.0628491640090942
1761476163703940600,0.437940673828125,-0.3743441104888916,0.9722739458084106,-1.216459035873413
1761476163713976600,0.4479765625,-0.2175435870885849,0.945953905582428,-1.1851872205734253
1761476163724012500,0.458012451171875,0.00044334307312965393,0.7328018546104431,-1.0282748937606812
1761476163734048500,0.468048583984375,0.21142350137233734,0.35904979705810547,-0.7727513313293457
1761476163744085500,0.47808544921875,0.33081334829330444,0.08041345328092575,-0.44696375727653503
1761476163754121500,0.48812158203125,0.3912098705768585,-0.09306911379098892,-0.16055704653263092
1761476163764157400,0.498157470703125,0.3706769347190857,-0.21667109429836273,0.04062189161777496
1761476163774193400,0.508193359375,0.2535457909107208,-0.35919123888015747,0.08778594434261322
1761476163784229600,0.518229736328125,0.10881703346967697,-0.6011297702789307,0.0007922453805804253
1761476163794265900,0.528265869140625,-0.010183394886553288,-0.9734274744987488,-0.1669008880853653
1761476163804301800,0.5383017578125,-0.08574262261390686,-1.252592921257019,-0.3357470631599426
1761476163814338600,0.548338623046875,-0.0791236013174057,-1.339805006980896,-0.47282955050468445
1761476163824374800,0.558374755859375,0.023775722831487656,-1.1775463819503784,-0.5787664651870728
1761476163834410800,0.56841064453125,0.1943993866443634,-1.0045263767242432,-0.6582878828048706
1761476163844446700,0.57844677734375,0.278830349445343,-0.9892003536224365,-0.7249583005905151
1761476163854482700,0.588482666015625,0.1939263641834259,-1.0346308946609497,-0.8087482452392578
1761476163864518700,0.5985185546875,0.03236817568540573,-1.0976332426071167,-0.9093146920204163
1761476163874554600,0.6085546875,-0.12531280517578125,-1.074975609779358,-1.0258183479309082
1761476163884590600,0.618590576171875,-0.39833956956863403,-1.062955617904663,-1.169857382774353
1761476163894627600,0.628627685546875,-0.781720757484436,-1.2465931177139282,-1.4035252332687378
1761476163904663600,0.63866357421875,-0.9151431918144226,-0.9786280393600464,-1.4474050998687744
1761476163914699500,0.648699462890625,-0.8208646178245544,-0.9063794016838074,-1.4328835010528564
1761476163924735500,0.658735595703125,-0.6908776164054871,-0.41613444685935974,-1.3375734090805054
1761476163934771500,0.668771484375,-0.5333937406539917,0.06540314108133316,-1.2353512048721313
1761476163944807400,0.678807373046875,-0.30157458782196045,0.5001576542854309,-1.2116514444351196
1761476163954843600,0.68884375,-0.09927445650100708,0.7561449408531189,-1.1972551345825195
1761476163964880600,0.698880615234375,-0.028326336294412613,0.6910277605056763,-1.1698776483535767
1761476163974916600,0.70891650390625,-0.039363276213407516,0.3605095148086548,-1.0796433687210083
1761476163984952600,0.71895263671875,-0.05026747286319733,-0.04786871373653412,-0.8978980183601379
1761476163994988800,0.72898876953125,-0.010732049122452736,-0.423947811126709,-0.637506902217865
1761476164005024800,0.739024658203125,0.09502638876438141,-0.7212156057357788,-0.37116798758506775
1761476164015060700,0.749060791015625,0.22595511376857758,-0.8762352466583252,-0.15857049822807312
1761476164025096700,0.7590966796875,0.31728053092956543,-0.8808287382125854,-0.015935227274894714
1761476164035133700,0.7691337890625,0.3389695882797241,-0.7451201677322388,0.03928275406360626
1761476164045169700,0.779169677734375,0.28465694189071655,-0.5156727433204651,0.0427008792757988
1761476164055205600,0.78920556640625,0.15403340756893158,-0.2753307521343231,-0.0008220979943871498
1761476164065241600,0.79924169921875,0.013896964490413666,-0.00770803727209568,-0.07098835706710815
1761476164075277600,0.809277587890625,-0.10117395967245102,0.2141716331243515,-0.06899524480104446
1761476164085313500,0.8193134765625,-0.18086309731006622,0.3026798665523529,0.04452168196439743
1761476164095349500,0.829349609375,-0.2502104640007019,0.2921353578567505,0.24365103244781494
1761476164105385500,0.839385498046875,-0.3433864712715149,0.20361094176769257,0.4373796582221985
1761476164115422700,0.849422607421875,-0.41650623083114624,0.09658142179250717,0.5906786918640137
1761476164125458700,0.859458740234375,-0.4609963893890381,0.022109009325504303,0.6911104917526245
1761476164135494700,0.86949462890625,-0.4878716766834259,0.007791589945554733,0.7508974075317383
1761476164145530600,0.879530517578125,-0.48720261454582214,0.07364299893379211,0.773779034614563
1761476164155566600,0.889566650390625,-0.45700475573539734,0.15822206437587738,0.7807714343070984
1761476164165602600,0.8996025390625,-0.43303874135017395,0.22313688695430756,0.7586486339569092
1761476164175638800,0.909638671875,-0.4099334180355072,0.29192501306533813,0.6892389059066772
1761476164185675500,0.919675537109375,-0.39270979166030884,0.38390880823135376,0.5782511830329895
1761476164195711500,0.92971142578125,-0.37397632002830505,0.5015885233879089,0.472258985042572
1761476164205747700,0.939747802734375,-0.3453189432621002,0.5763270258903503,0.42908069491386414
1761476164215783700,0.94978369140625,-0.2971127927303314,0.5986701846122742,0.48891258239746094
1761476164225819600,0.959819580078125,-0.23259177803993225,0.5548535585403442,0.6720642447471619
1761476164235855600,0.969855712890625,-0.17043305933475494,0.4533231556415558,0.9056586623191833
1761476164245891600,0.9798916015625,-0.11368006467819214,0.3855800926685333,1.092974305152893
1761476164255927600,0.989927490234375,-0.063778817653656,0.354376882314682,1.1840788125991821
1761476164265964800,0.99996484375,-0.0829097181558609,0.3141023516654968,1.1743574142456055
1761476164276000800,1.010000732421875,-0.15182219445705414,0.3394455313682556,1.095650315284729
1761476164286036700,1.02003662109375,-0.21999463438987732,0.4567124843597412,0.9597679376602173
1761476164296072700,1.03007275390625,-0.272024005651474,0.5802304148674011,0.7974536418914795
1761476164306108700,1.040108642578125,-0.30173930525779724,0.6178665161132812,0.6347739696502686
1761476164316148000,1.05014794921875,-0.2934267818927765,0.5577797293663025,0.4920000433921814
1761476164326184000,1.060183837890625,-0.26396575570106506,0.4616154730319977,0.3518959879875183
1761476164336220000,1.070219970703125,-0.22778776288032532,0.37811577320098877,0.25427407026290894
1761476164346257000,1.0802568359375,-0.18204236030578613,0.391659677028656,0.20416803658008575
1761476164356292900,1.09029296875,-0.12330420315265656,0.4894040822982788,0.18779198825359344
1761476164366328800,1.100328857421875,-0.09512797743082047,0.6014842987060547,0.15416018664836884
1761476164376365000,1.110364990234375,-0.04783422872424126,0.7446898818016052,0.10700493305921555
1761476164386401000,1.120401123046875,0.018649209290742874,0.8542287945747375,0.042082659900188446
1761476164396437000,1.13043701171875,0.06401403248310089,0.9191497564315796,-0.026066569611430168
1761476164406473000,1.140472900390625,0.104288749396801,0.9008564949035645,-0.06819857656955719
1761476164416509000,1.150509033203125,0.17749851942062378,0.7703818082809448,-0.04218614846467972
1761476164426546000,1.1605458984375,0.23931878805160522,0.4408021867275238,0.07416142523288727
1761476164436582000,1.170581787109375,0.2423878014087677,0.04745727404952049,0.21503332257270813
1761476164446617900,1.180617919921875,0.15919844806194305,-0.4230623245239258,0.15984775125980377
1761476164456653800,1.19065380859375,0.006114893592894077,-1.0037325620651245,-0.1447097510099411
1761476164466689800,1.200689697265625,-0.1014004498720169,-1.3571585416793823,-0.5508891344070435
1761476164476725800,1.210725830078125,-0.09607226401567459,-1.417765736579895,-0.9651723504066467
1761476164486762000,1.220761962890625,0.026282865554094315,-1.1313823461532593,-1.2634036540985107
1761476164496798000,1.2307978515625,0.17595544457435608,-0.3244154453277588,-1.3855422735214233
1761476164506835000,1.2408349609375,0.24974608421325684,0.5077540874481201,-1.4688968658447266
1761476164516871000,1.250870849609375,0.2719848155975342,1.121951699256897,-1.505538821220398
1761476164526907000,1.260906982421875,0.27955126762390137,1.358883261680603,-1.4165089130401611
1761476164536942800,1.27094287109375,0.28767845034599304,1.2228294610977173,-1.2498596906661987
1761476164546979000,1.28097900390625,0.3121430277824402,0.8608860969543457,-1.082018256187439
1761476164557015000,1.29101513671875,0.333109587430954,0.3168691098690033,-0.9396752119064331
1761476164567051000,1.301051025390625,0.34016743302345276,-0.30296987295150757,-0.7968298196792603
1761476164577087000,1.3110869140625,0.29059454798698425,-0.8178656697273254,-0.6559946537017822
1761476164587124000,1.3211240234375,0.15581972897052765,-1.0240592956542969,-0.5674352645874023
1761476164597160000,1.331159912109375,-0.038628578186035156,-0.8835343718528748,-0.5610756278038025
1761476164607196000,1.34119580078125,-0.20454727113246918,-0.5800143480300903,-0.6033601760864258
1761476164617232000,1.35123193359375,-0.31986749172210693,-0.34009501338005066,-0.7191938161849976
1761476164627267800,1.361267822265625,-0.37231191992759705,-0.23166778683662415,-0.8245439529418945
1761476164637303800,1.3713037109375,-0.34491732716560364,-0.25228145718574524,-0.7891209721565247
1761476164647339800,1.38133984375,-0.2616686224937439,-0.37062934041023254,-0.5808252692222595
1761476164657377000,1.391376953125,-0.16999730467796326,-0.5220361351966858,-0.27937355637550354
1761476164667413000,1.4014130859375,-0.12126687914133072,-0.6345253586769104,0.028181755915284157
1761476164677449000,1.411448974609375,-0.12801480293273926,-0.7031004428863525,0.2719872295856476
1761476164687485000,1.42148486328125,-0.16628463566303253,-0.7116379141807556,0.42000991106033325
1761476164697521000,1.43152099609375,-0.20874129235744476,-0.60408616065979,0.5056478381156921
1761476164707556900,1.441556884765625,-0.27039825916290283,-0.3994581699371338,0.5174658894538879
1761476164717592800,1.4515927734375,-0.31456679105758667,-0.1513330638408661,0.4693974256515503
1761476164727629000,1.461629150390625,-0.31021830439567566,-0.013402925804257393,0.38114696741104126
1761476164737665800,1.471665771484375,-0.30135369300842285,0.02066662721335888,0.28356900811195374
1761476164747701800,1.48170166015625,-0.27343252301216125,0.009404494427144527,0.2772846817970276
1761476164757738000,1.491738037109375,-0.19075362384319305,0.06734608858823776,0.41014233231544495
1761476164767774000,1.50177392578125,-0.07067099213600159,0.1505333036184311,0.6321123242378235
1761476164777810000,1.511809814453125,0.05780309811234474,0.1666978895664215,0.8404024243354797
1761476164787846000,1.521845947265625,0.1459411084651947,0.1269313544034958,0.9977430701255798
1761476164797881900,1.5318818359375,0.18655164539813995,0.05963993817567825,1.0983045101165771
1761476164807917800,1.541917724609375,0.16049352288246155,0.011198713444173336,1.0878981351852417
1761476164817955000,1.551955078125,0.08142215013504028,0.0175173282623291,0.9591119289398193
1761476164827991000,1.561990966796875,-0.02665776014328003,0.10688625276088715,0.7730676531791687
1761476164838027000,1.572027099609375,-0.11464141309261322,0.22479797899723053,0.5954896807670593
1761476164848063000,1.58206298828125,-0.14010079205036163,0.30570539832115173,0.45842331647872925
1761476164858099000,1.592098876953125,-0.11916382610797882,0.30890411138534546,0.3320677578449249
1761476164868135000,1.602135009765625,-0.08748243749141693,0.23926782608032227,0.22449049353599548
1761476164878171000,1.6121708984375,-0.04217727482318878,0.18682272732257843,0.14880399405956268
1761476164888206800,1.622206787109375,-0.01932348869740963,0.1295326054096222,0.08877843618392944
1761476164898243800,1.632243896484375,-0.041610151529312134,0.10513431578874588,0.0955820083618164
1761476164908279800,1.64227978515625,-0.09992430359125137,0.2221142053604126,0.18896985054016113
1761476164918315800,1.652315673828125,-0.16600824892520905,0.3987944424152374,0.30586478114128113
1761476164928352000,1.66235205078125,-0.18451930582523346,0.5171051621437073,0.4128928780555725
1761476164938388000,1.672387939453125,-0.09425066411495209,0.5498657822608948,0.45948246121406555
1761476164948424000,1.682423828125,0.03589446097612381,0.5063295364379883,0.462914377450943
1761476164958460000,1.6924599609375,0.1539745032787323,0.46734514832496643,0.4470057189464569
1761476164968495900,1.702495849609375,0.25388744473457336,0.39524421095848083,0.4012877345085144
1761476164978533000,1.712533203125,0.2995055317878723,0.3374778628349304,0.283448189496994
1761476164988569000,1.722569091796875,0.3232984244823456,0.32793256640434265,0.06305375695228577
1761476164998605000,1.73260498046875,0.29743754863739014,0.2704083025455475,-0.23801741003990173
1761476165008641000,1.74264111328125,0.1887388676404953,0.10743637382984161,-0.6349087357521057
1761476165018677000,1.752677001953125,0.04273078590631485,-0.11090661585330963,-0.9855908155441284
1761476165028713000,1.762712890625,-0.057808227837085724,-0.4001061022281647,-1.1732659339904785
1761476165038749000,1.7727490234375,-0.026637794449925423,-0.5455741286277771,-1.0883315801620483
1761476165048785000,1.782784912109375,0.1439025104045868,-0.43012112379074097,-0.8203974962234497
1761476165058822000,1.79282177734375,0.36400294303894043,-0.08941733837127686,-0.5173431038856506
1761476165068857900,1.80285791015625,0.5462490320205688,0.3942447304725647,-0.2935566008090973
1761476165078893800,1.812893798828125,0.6611111760139465,0.6735957264900208,-0.2612103521823883
1761476165088929800,1.8229296875,0.7031170129776001,0.6505529284477234,-0.3801816999912262
1761476165098965800,1.8329658203125,0.7065128087997437,0.3343755006790161,-0.5645965337753296
1761476165109002000,1.843001953125,0.6557831764221191,-0.1278044879436493,-0.7480485439300537
1761476165119038000,1.853037841796875,0.5708046555519104,-0.5465407371520996,-0.9431778192520142
1761476165129074000,1.863073974609375,0.4855392873287201,-0.7609860301017761,-1.1154561042785645
1761476165139110000,1.87310986328125,0.36486372351646423,-0.6948733329772949,-1.167638897895813
1761476165149147100,1.883147216796875,0.1814771145582199,-0.328080952167511,-1.0499818325042725
1761476165159183000,1.89318310546875,-0.0037819459103047848,0.12361513078212738,-0.8296907544136047
1761476165169219000,1.903218994140625,-0.12426947802305222,0.3117360472679138,-0.5927436947822571
1761476165179255000,1.913255126953125,-0.1326216757297516,0.19743236899375916,-0.35042983293533325
1761476165189291000,1.923291015625,-0.00019836239516735077,-0.11909924447536469,-0.07423532754182816
1761476165199327000,1.933326904296875,0.14003171026706696,-0.48257654905319214,0.2648295760154724
1761476165209363000,1.943363037109375,0.20486722886562347,-0.7571086287498474,0.6254919767379761
1761476165219399000,1.95339892578125,0.2136860191822052,-0.8212569952011108,0.9512543678283691
1761476165229435000,1.963434814453125,0.17528283596038818,-0.6300892233848572,1.153917908668518
1761476165239471900,1.973471923828125,0.13783666491508484,-0.3130481541156769,1.1765952110290527
1761476165249507800,1.9835078125,0.13424710929393768,-0.026605157181620598,1.0590126514434814
1761476165259543800,1.993543701171875,0.11899891495704651,0.14437563717365265,0.8657424449920654
1761476165269579800,2.003579833984375,0.09142529964447021,0.2281748205423355,0.6734479665756226
1761476165279616000,2.013615966796875,0.06396543979644775,0.1992907077074051,0.5472972393035889
1761476165289652000,2.02365185546875,0.056791987270116806,0.14831937849521637,0.47875213623046875
1761476165299688000,2.03368798828125,0.05907457694411278,0.13549785315990448,0.4640749394893646
1761476165309724000,2.043723876953125,0.07606356590986252,0.15670402348041534,0.49980926513671875
1761476165319760100,2.053760009765625,0.11631084978580475,0.17762501537799835,0.5801746845245361
1761476165329797000,2.063797119140625,0.16507963836193085,0.1893317848443985,0.6904246211051941
1761476165339833000,2.0738330078125,0.22115781903266907,0.21984414756298065,0.8106226921081543
1761476165349869000,2.083869140625,0.26685428619384766,0.21504096686840057,0.8732981085777283
1761476165359905000,2.093905029296875,0.27602729201316833,0.16577355563640594,0.8332609534263611
1761476165369941000,2.10394091796875,0.2592547535896301,0.08679188042879105,0.7047696709632874
1761476165379977000,2.11397705078125,0.2287929803133011,0.00963557604700327,0.5347045063972473
1761476165390013000,2.124012939453125,0.20288923382759094,-0.034453872591257095,0.3567134141921997
1761476165400049000,2.134048828125,0.18842348456382751,-0.03765552490949631,0.2110275775194168
1761476165410084900,2.1440849609375,0.18862439692020416,0.028794176876544952,0.12873569130897522
1761476165420120800,2.154120849609375,0.200273334980011,0.16180947422981262,0.09691038727760315
1761476165430157800,2.16415771484375,0.20385445654392242,0.36962753534317017,0.09134282916784286
1761476165440194000,2.174194091796875,0.18823103606700897,0.619280219078064,0.1028495505452156
1761476165450230000,2.18422998046875,0.15416818857192993,0.73545902967453,0.12158558517694473
1761476165460266200,2.194266357421875,0.12661805748939514,0.6924830675125122,0.14063918590545654
1761476165470302200,2.20430224609375,0.11438262462615967,0.5482287406921387,0.15766437351703644
1761476165480338200,2.214338134765625,0.10396433621644974,0.3649345338344574,0.16835802793502808
1761476165490374100,2.2243740234375,0.10213368386030197,0.21601641178131104,0.20216205716133118
1761476165500410000,2.23441015625,0.1528778225183487,0.1298474371433258,0.30414462089538574
1761476165510446000,2.244446044921875,0.2229786217212677,0.1428426057100296,0.4996083974838257
1761476165520482000,2.25448193359375,0.30148380994796753,0.34976115822792053,0.7763236165046692
1761476165530519000,2.26451904296875,0.335471510887146,0.6432893872261047,0.9674344062805176
1761476165540555000,2.274554931640625,0.3008168339729309,0.8291215896606445,0.8641045689582825
1761476165550591000,2.284591064453125,0.18849773705005646,0.7535797953605652,0.3113764524459839
1761476165560627000,2.294626953125,0.03142821416258812,0.4497525691986084,-0.5507928729057312
1761476165570663000,2.304662841796875,-0.12674236297607422,0.036864377558231354,-1.3999708890914917
1761476165580699000,2.314698974609375,-0.2639375329017639,-0.19136133790016174,-1.885154366493225
1761476165590734800,2.32473486328125,-0.2937202751636505,-0.09826551377773285,-1.8924623727798462
1761476165600771000,2.33477099609375,-0.18501806259155273,0.22622202336788177,-1.5672740936279297
1761476165610807000,2.34480712890625,-0.03493088483810425,0.570664644241333,-1.1481553316116333
1761476165620843000,2.354843017578125,0.07856958359479904,0.7578555345535278,-0.8201087117195129
1761476165630879000,2.36487890625,0.12716123461723328,0.7001784443855286,-0.6683703660964966
1761476165640916200,2.374916259765625,0.10722959041595459,0.4489273130893707,-0.683666467666626
1761476165650952200,2.3849521484375,0.13129647076129913,0.09796175360679626,-0.6888679265975952
1761476165660988200,2.39498828125,0.20719575881958008,-0.33130890130996704,-0.6394087672233582
1761476165671024000,2.405024169921875,0.29951345920562744,-0.6593954563140869,-0.5516858696937561
1761476165681060000,2.41506005859375,0.3752937316894531,-0.8188562393188477,-0.4590156376361847
1761476165691096000,2.425095947265625,0.3824290633201599,-0.7239609360694885,-0.3404318690299988
1761476165701132000,2.435132080078125,0.3161160945892334,-0.5065793395042419,-0.21435970067977905
1761476165711168000,2.44516796875,0.18386322259902954,-0.29662349820137024,-0.15797947347164154
1761476165721204000,2.455203857421875,0.033059343695640564,-0.1181727945804596,-0.2295953333377838
1761476165731240000,2.465239990234375,-0.1255476325750351,-0.029818661510944366,-0.4134961664676666
1761476165741277000,2.47527685546875,-0.2573767602443695,-0.03857859596610069,-0.582149863243103
1761476165751313000,2.48531298828125,-0.305949866771698,-0.1498996913433075,-0.6256689429283142
1761476165761348900,2.495348876953125,-0.2846642732620239,-0.3236994445323944,-0.5654497742652893
1761476165771384800,2.505384765625,-0.23681986331939697,-0.4886106252670288,-0.4200299382209778
1761476165781421000,2.515421142578125,-0.1845526397228241,-0.5811861157417297,-0.2268705815076828
1761476165791457000,2.52545703125,-0.15131554007530212,-0.5807795524597168,-0.0753224790096283
1761476165801493000,2.535492919921875,-0.1554681956768036,-0.4869510531425476,-0.029401592910289764
1761476165811529000,2.545529052734375,-0.19287174940109253,-0.3300330340862274,-0.08723247051239014
1761476165821565000,2.55556494140625,-0.2427186667919159,-0.14755508303642273,-0.214654341340065
1761476165831601000,2.565600830078125,-0.2683784067630768,0.011993017047643661,-0.3467389941215515
1761476165841637000,2.57563720703125,-0.2547329068183899,0.08388158679008484,-0.3967531621456146
1761476165851674000,2.585674072265625,-0.19541193544864655,0.11554194241762161,-0.3026514947414398
1761476165861710000,2.5957099609375,-0.10237174481153488,0.13412947952747345,-0.07468143105506897
1761476165871746000,2.60574609375,0.0009166467934846878,0.1590552181005478,0.27950718998908997
1761476165881782000,2.615781982421875,0.08572234958410263,0.15632733702659607,0.6542485952377319
1761476165891818000,2.62581787109375,0.11669269949197769,0.149526447057724,0.9772664904594421
1761476165901854000,2.63585400390625,0.10606961697340012,0.18878090381622314,1.1632623672485352
1761476165911890000,2.645889892578125,0.0741690993309021,0.24562788009643555,1.1707594394683838
1761476165921926100,2.655926025390625,0.019669897854328156,0.29670146107673645,1.072048306465149
1761476165931962000,2.665962158203125,-0.002823160495609045,0.30720576643943787,0.9246695041656494
1761476165941998000,2.675998046875,0.015155838802456856,0.2504734992980957,0.7372549176216125
1761476165952035000,2.68603515625,0.055169813334941864,0.16045670211315155,0.5682986378669739
1761476165962071000,2.696071044921875,0.1021365225315094,0.10688163340091705,0.481982946395874
1761476165972107000,2.70610693359375,0.15308579802513123,0.08591713011264801,0.48733842372894287
1761476165982143000,2.71614306640625,0.18817535042762756,0.12038561701774597,0.49931466579437256
1761476165992179000,2.726178955078125,0.20448541641235352,0.2490512877702713,0.4827115535736084
1761476166002215000,2.73621484375,0.187301367521286,0.4365500509738922,0.423639714717865
1761476166012251000,2.7462509765625,0.13365109264850616,0.5519627332687378,0.3383505940437317
1761476166022287000,2.756287109375,0.08580021560192108,0.5564688444137573,0.2356969267129898
1761476166032323000,2.766322998046875,0.06250569224357605,0.47224563360214233,0.18096467852592468
1761476166042359000,2.776359130859375,0.06508389860391617,0.3408487141132355,0.17046037316322327
1761476166052396000,2.78639599609375,0.08622609078884125,0.2164989709854126,0.22636327147483826
1761476166062432000,2.796431884765625,0.11891772598028183,0.10196200758218765,0.3578357994556427
1761476166072468000,2.806468017578125,0.13543950021266937,0.08203846216201782,0.5160357356071472
1761476166082504000,2.81650390625,0.07823080569505692,0.10467585921287537,0.5468828678131104
1761476166092540000,2.826539794921875,-0.125565305352211,0.10753749310970306,0.3233165442943573
1761476166102576000,2.836576171875,-0.39351657032966614,0.1061830073595047,-0.0451698824763298
1761476166112612000,2.846612060546875,-0.648836612701416,-0.05974942073225975,-0.421740859746933
1761476166122648000,2.85664794921875,-0.7896342277526855,-0.29372677206993103,-0.699433445930481
1761476166132684000,2.86668408203125,-0.7558437585830688,-0.4876636266708374,-0.8492567539215088
1761476166142720000,2.876719970703125,-0.6256133317947388,-0.47557368874549866,-0.844523549079895
1761476166152757000,2.886757080078125,-0.46605968475341797,-0.24491289258003235,-0.7716559171676636
1761476166162793000,2.89679296875,-0.27574461698532104,-0.040429506450891495,-0.7128397226333618
1761476166172829000,2.906828857421875,-0.08453041315078735,-0.07518205046653748,-0.6964045763015747
1761476166182865000,2.916864990234375,-0.07151661068201065,-0.2542109191417694,-0.6882361173629761
1761476166192901000,2.926901123046875,-0.23169371485710144,-0.4885210394859314,-0.6928602457046509
1761476166202937000,2.93693701171875,-0.3850630223751068,-0.7638477087020874,-0.7753599286079407
1761476166212973000,2.94697314453125,-0.3990381062030792,-1.0149874687194824,-0.8989811539649963
1761476166223009000,2.957009033203125,-0.22323699295520782,-1.150248646736145,-0.9701749086380005
1761476166233045000,2.967044921875,0.05226290971040726,-1.1910390853881836,-0.8961558938026428
1761476166243081200,2.977081298828125,0.29386967420578003,-1.1842610836029053,-0.687236487865448
1761476166253118000,2.987117919921875,0.5152626037597656,-0.6443241238594055,-0.7430427074432373
1761476166263154000,2.99715380859375,0.4052775204181671,-0.36459770798683167,-0.6563687920570374
1761476166273190100,3.007190185546875,0.14708001911640167,-0.16185162961483002,-0.467117041349411
1761476166283226000,3.01722607421875,-0.15787003934383392,-0.19667164981365204,-0.3562003970146179
1761476166293262000,3.027261962890625,-0.3858734369277954,-0.5217004418373108,-0.31709834933280945
1761476166303298000,3.037298095703125,-0.46178925037384033,-0.9720684289932251,-0.3264255225658417
1761476166313334000,3.047333984375,-0.38809943199157715,-1.1147657632827759,-0.3413054645061493
1761476166323369700,3.05736962890625,-0.24825629591941833,-0.8377959728240967,-0.3783007562160492
1761476166333405700,3.06740576171875,-0.1371045559644699,-0.34846755862236023,-0.4085293710231781
1761476166343441700,3.077441650390625,-0.08095338940620422,0.12963509559631348,-0.40604838728904724
1761476166353477600,3.0874775390625,-0.10684193670749664,0.49089035391807556,-0.3787769079208374
1761476166363515000,3.097514892578125,-0.19305166602134705,0.5970375537872314,-0.30041739344596863
1761476166373550800,3.10755078125,-0.25030818581581116,0.46340298652648926,-0.10851263999938965
1761476166383586800,3.1175869140625,-0.16721010208129883,0.22981365025043488,0.17819315195083618
1761476166393622800,3.127622802734375,-0.09442147612571716,0.07527340203523636,0.46725234389305115
1761476166403658800,3.13765869140625,-0.10092092305421829,0.050095345824956894,0.6604633927345276
1761476166413695000,3.147695068359375,-0.11342766880989075,0.18662366271018982,0.7418951392173767
1761476166423731000,3.15773095703125,-0.10830587893724442,0.3886958062648773,0.7477008700370789
1761476166433767000,3.167766845703125,-0.09265727549791336,0.5788221955299377,0.771246075630188
1761476166443803000,3.177802978515625,-0.0777244046330452,0.6002811193466187,0.8625224828720093
1761476166453840000,3.18783984375,-0.04977068305015564,0.3635696768760681,1.0625027418136597
1761476166463875800,3.197875732421875,0.10156343877315521,0.15171679854393005,1.1510869264602661
1761476166473911800,3.207911865234375,0.1829061508178711,-0.0017607072368264198,1.1627166271209717
1761476166483947800,3.21794775390625,0.19768483936786652,-0.19879548251628876,1.1255005598068237
1761476166493983700,3.227983642578125,0.1943274885416031,-0.31431546807289124,1.110890507698059
1761476166504019700,3.238019775390625,0.14141499996185303,-0.2251853346824646,1.106261134147644
1761476166514055700,3.2480556640625,0.029900413006544113,0.008333291858434677,1.0556055307388306
1761476166524091600,3.258091552734375,-0.061441484838724136,0.2984980046749115,0.9596302509307861
1761476166534127600,3.268127685546875,-0.025285791605710983,0.623294472694397,0.8927860260009766
1761476166544163600,3.27816357421875,0.11386889964342117,0.8446862101554871,0.8756238222122192
1761476166554200800,3.288200927734375,0.2795810401439667,0.9259435534477234,0.9069843888282776
1761476166564236800,3.29823681640625,0.38690057396888733,0.8514876961708069,0.9850520491600037
1761476166574272800,3.308272705078125,0.4605863094329834,0.6823059320449829,1.0456615686416626
1761476166584308700,3.318308837890625,0.47053003311157227,0.4414978623390198,1.031494140625
1761476166594345000,3.328344970703125,0.44941839575767517,0.13002640008926392,0.9029945135116577
1761476166604381000,3.338380859375,0.32889676094055176,-0.2009030431509018,0.7107909917831421
1761476166614417000,3.3484169921875,0.15746958553791046,-0.42999348044395447,0.358905166387558
1761476166624452900,3.358452880859375,0.02272748574614525,-0.5783339738845825,0.003926570527255535
1761476166634488800,3.36848876953125,0.011587684042751789,-0.5669952034950256,-0.2986571192741394
1761476166644524800,3.37852490234375,0.14117178320884705,-0.5492007732391357,-0.5718604326248169
1761476166654561800,3.388561767578125,0.28180721402168274,-0.447441428899765,-0.8639853000640869
1761476166664597800,3.39859765625,0.30372634530067444,-0.18625083565711975,-1.1074557304382324
1761476166674633700,3.4086337890625,0.23729410767555237,0.13054783642292023,-1.203179955482483
1761476166684669700,3.418669677734375,0.19104112684726715,0.3688112795352936,-1.195022702217102
1761476166694705700,3.42870556640625,0.1706162542104721,0.46569180488586426,-1.1445828676223755
1761476166704741600,3.43874169921875,0.20203542709350586,0.42732948064804077,-1.0035864114761353
1761476166714777600,3.448777587890625,0.2596854269504547,0.24580705165863037,-0.8201878666877747
1761476166724813800,3.458813720703125,0.31854555010795593,0.036390986293554306,-0.7044311761856079
1761476166734849800,3.468849853515625,0.39793455600738525,-0.15974755585193634,-0.7294018268585205
1761476166744886000,3.478885986328125,0.4639362096786499,-0.28284764289855957,-0.8378286957740784
1761476166754922800,3.4889228515625,0.47143617272377014,-0.26850879192352295,-0.8639703989028931
1761476166764959000,3.498958984375,0.4319968819618225,-0.23276381194591522,-0.7257899045944214
1761476166774995000,3.508994873046875,0.35814788937568665,-0.31275224685668945,-0.46128013730049133
1761476166785031000,3.519031005859375,0.29999616742134094,-0.4577411115169525,-0.1723223626613617
1761476166795067000,3.52906689453125,0.2756768763065338,-0.5498886108398438,-0.03159358352422714
1761476166805102800,3.539102783203125,0.17834658920764923,-0.5260115265846252,-0.1539708971977234
1761476166815138800,3.549138916015625,-0.06547489017248154,-0.401235967874527,-0.4476583003997803
1761476166825174800,3.5591748046875,-0.3441568613052368,-0.23212842643260956,-0.7693173289299011
1761476166835210800,3.569210693359375,-0.47440606355667114,-0.04148399084806442,-0.9962665438652039
1761476166845246700,3.579246826171875,-0.38823044300079346,0.13702848553657532,-1.0159225463867188
1761476166855283700,3.58928369140625,-0.2696007192134857,0.30146074295043945,-0.8832175135612488
1761476166865319700,3.599319580078125,-0.14851531386375427,0.41164663434028625,-0.6661139130592346
1761476166875355600,3.609355712890625,-0.04548664391040802,0.4388333559036255,-0.3249492049217224
1761476166885391600,3.6193916015625,-0.034976743161678314,0.39766672253608704,0.10414675623178482
1761476166895427600,3.629427490234375,-0.07857179641723633,0.281418114900589,0.4803718328475952
1761476166905463800,3.6394638671875,-0.09855588525533676,0.1778818666934967,0.8878706097602844
1761476166915500000,3.6495,-0.1952434629201889,0.08226581662893295,1.1265754699707031
1761476166925536000,3.659535888671875,-0.2315165102481842,0.06668073683977127,1.2736501693725586
1761476166935572000,3.669572021484375,-0.2230679839849472,0.17757496237754822,1.32918381690979
1761476166945609000,3.67960888671875,-0.16056625545024872,0.3614529073238373,1.3297154903411865
1761476166955645000,3.68964501953125,-0.0681685358285904,0.49514150619506836,1.2898293733596802
1761476166965681000,3.699680908203125,0.02236083522439003,0.5581087470054626,1.213536262512207
1761476166975716900,3.709716796875,0.07957126200199127,0.5639467239379883,1.127953052520752
1761476166985752800,3.7197529296875,0.06674174964427948,0.4842601716518402,1.0398402214050293
1761476166995788800,3.729788818359375,0.035373505204916,0.39075174927711487,0.9613388180732727
1761476167005824800,3.73982470703125,-0.003217029385268688,0.3146652281284332,0.913123369216919
1761476167015860700,3.74986083984375,-0.04646116867661476,0.24588268995285034,0.8915940523147583
1761476167025896700,3.759896728515625,-0.0922318547964096,0.19123408198356628,0.8898211717605591
1761476167035932700,3.7699326171875,-0.1290186196565628,0.20216862857341766,0.8776054978370667
1761476167045969700,3.7799697265625,-0.11853854358196259,0.23617081344127655,0.8252855539321899
1761476167056005600,3.790005615234375,-0.09339325875043869,0.25137120485305786,0.7127736806869507
1761476167066041600,3.80004150390625,-0.07351329177618027,0.24583368003368378,0.580197811126709
1761476167076077800,3.810077880859375,-0.044422492384910583,0.22896389663219452,0.4853306710720062
1761476167086113800,3.82011376953125,0.005086207762360573,0.2385060042142868,0.4459425210952759
1761476167096150000,3.83014990234375,0.05085387080907822,0.21768517792224884,0.4685254991054535
1761476167106186000,3.84018603515625,0.046997081488370895,0.09669377654790878,0.45747870206832886
1761476167116222000,3.850221923828125,0.024712547659873962,-0.07612939178943634,0.4039459824562073
1761476167126258000,3.8602578125,0.059325654059648514,-0.1590101718902588,0.3838273882865906
1761476167136295000,3.870294921875,0.1873660385608673,-0.10781574249267578,0.39276471734046936
1761476167146331000,3.880330810546875,0.33060121536254883,-0.09028415381908417,0.39623934030532837
1761476167156366800,3.890366943359375,0.43451425433158875,-0.2502811551094055,0.36741358041763306
1761476167166402800,3.90040283203125,0.44443240761756897,-0.5683954358100891,0.15449145436286926
1761476167176438800,3.910438720703125,0.3448677361011505,-1.0006792545318604,-0.40635445713996887
1761476167186474800,3.920474853515625,0.22812193632125854,-1.3289687633514404,-1.2468621730804443
1761476167196510700,3.9305107421875,0.18604636192321777,-1.3222432136535645,-2.0545127391815186
1761476167206546700,3.940546630859375,0.10417148470878601,-0.871196448802948,-2.6006648540496826
1761476167216582700,3.950582763671875,0.08818577975034714,-0.07983105629682541,-2.8171730041503906
1761476167226619600,3.96061962890625,0.2212120145559311,0.7732377648353577,-2.6408238410949707
1761476167236655600,3.970655517578125,0.3191041052341461,1.2925167083740234,-2.3542394638061523
1761476167246691600,3.980691650390625,0.3745045065879822,1.2046326398849487,-2.1054975986480713
1761476167256727800,3.990727783203125,0.3805502951145172,0.6119585037231445,-1.7959845066070557
1761476167266764000,4.000763916015625,0.3812650740146637,-0.09832284599542618,-1.4047720432281494
1761476167276800000,4.010800048828125,0.3639243245124817,-0.6670112609863281,-1.029306411743164
1761476167286836000,4.0208359375,0.36423084139823914,-0.9131746888160706,-0.7385379076004028
1761476167296872000,4.030871826171875,0.3505847156047821,-0.8837471008300781,-0.539529025554657
1761476167306908000,4.040907958984375,0.28049832582473755,-0.6233850717544556,-0.3834778666496277
1761476167316945000,4.05094482421875,0.13735675811767578,-0.19773703813552856,-0.2308807075023651
1761476167326976500,4.0609765625,-0.0280471034348011,0.19511491060256958,-0.054418064653873444
1761476167337012500,4.071012451171875,-0.13191980123519897,0.3308754563331604,0.18824107944965363
1761476167347048400,4.08104833984375,-0.1533726304769516,0.22934269905090332,0.5191652178764343
1761476167357084400,4.09108447265625,-0.1227627694606781,-0.02540956810116768,0.8888044953346252
1761476167367120400,4.101120361328125,-0.09809444099664688,-0.2889386713504791,1.2206040620803833
1761476167377156600,4.111156494140625,-0.11271508783102036,-0.38851818442344666,1.4326404333114624
1761476167387192600,4.121192626953125,-0.18107043206691742,-0.29788631200790405,1.5196815729141235
1761476167397228500,4.131228515625,-0.23520515859127045,-0.1471560001373291,1.4897005558013916
1761476167407265500,4.141265625,-0.25532427430152893,0.006341156084090471,1.3751559257507324
1761476167417301500,4.151301513671875,-0.2513762414455414,0.14664292335510254,1.2000706195831299
1761476167427337500,4.16133740234375,-0.23525744676589966,0.30197152495384216,0.9759984016418457
1761476167437373400,4.17137353515625,-0.23209373652935028,0.44653409719467163,0.7646536827087402
1761476167447409700,4.18140966796875,-0.2509891390800476,0.5625765323638916,0.6286628246307373
1761476167457445600,4.191445556640625,-0.26373475790023804,0.6284530162811279,0.599382221698761
1761476167467481600,4.201481689453125,-0.23957855999469757,0.5917967557907104,0.6843053698539734
1761476167477517600,4.211517578125,-0.17916277050971985,0.4889815151691437,0.9059847593307495
1761476167487553500,4.221553466796875,-0.08712552487850189,0.3694252669811249,1.1919300556182861
1761476167497590500,4.231590576171875,-0.016580471768975258,0.27002236247062683,1.426377534866333
1761476167507626500,4.24162646484375,0.006549614481627941,0.17439013719558716,1.5486797094345093
1761476167517662500,4.251662353515625,-0.011538844555616379,0.08607702702283859,1.5451717376708984
1761476167527698400,4.261698486328125,-0.054901499301195145,0.015138937160372734,1.4150686264038086
1761476167537734400,4.271734375,-0.07120932638645172,-0.01472548022866249,1.173785924911499
1761476167547770600,4.2817705078125,-0.05898968130350113,-0.0009124632924795151,0.8750330805778503
1761476167557806600,4.291806640625,-0.022639255970716476,0.08116062730550766,0.545933187007904
1761476167567842600,4.301842529296875,0.01753479614853859,0.22064633667469025,0.2167385369539261
1761476167577878500,4.31187841796875,0.0584171861410141,0.3362741768360138,-0.05357116833329201
1761476167587915500,4.32191552734375,0.0937458798289299,0.38641616702079773,-0.22003178298473358
1761476167597951500,4.331951416015625,0.11398515850305557,0.35640713572502136,-0.2669029235839844
1761476167607987500,4.341987548828125,0.11695564538240433,0.24013803899288177,-0.2299739420413971
1761476167618023700,4.352023681640625,0.08542004227638245,0.08417081832885742,-0.15590207278728485
1761476167628059600,4.3620595703125,0.05227433890104294,-0.03575025498867035,-0.08927830308675766
1761476167638095600,4.372095703125,0.037621282041072845,-0.05512245371937752,-0.05602565407752991
1761476167648131600,4.382131591796875,0.05304764211177826,0.03755448758602142,-0.053290314972400665
1761476167658167600,4.39216748046875,0.1147507056593895,0.20046231150627136,-0.02488797716796398
1761476167668203500,4.40220361328125,0.19630999863147736,0.2995302975177765,0.018241649493575096
1761476167678240500,4.412240478515625,0.23690265417099,0.29108038544654846,-0.012293539941310883
1761476167688276500,4.4222763671875,0.24636858701705933,0.14249970018863678,-0.10543866455554962
1761476167698312400,4.4323125,0.2235369086265564,-0.10387697070837021,-0.2512564957141876
1761476167708348400,4.442348388671875,0.17048302292823792,-0.2650296092033386,-0.42416757345199585
1761476167718384400,4.45238427734375,0.09022883325815201,-0.18733108043670654,-0.603377640247345
1761476167728420600,4.462420654296875,0.0009964248165488243,0.08591695874929428,-0.7713711857795715
1761476167738456600,4.47245654296875,-0.03478677198290825,0.4091414213180542,-0.8894800543785095
1761476167748492500,4.482492431640625,-0.0026022037491202354,0.5725255608558655,-0.9933388233184814
1761476167758528500,4.492528564453125,0.05231165513396263,0.46368643641471863,-1.0909693241119385
1761476167768565500,4.5025654296875,0.10929691046476364,0.23639391362667084,-1.1484475135803223
1761476167778601500,4.5126015625,0.04672028496861458,0.008822021074593067,-1.1669154167175293
1761476167788637400,4.522637451171875,-0.09935569763183594,-0.02975732833147049,-1.0973070859909058
1761476167798673700,4.532673583984375,-0.21651645004749298,0.04832789674401283,-1.0051250457763672
1761476167808709600,4.542709716796875,-0.27435365319252014,0.11014332622289658,-1.0618733167648315
1761476167818745600,4.55274560546875,-0.25176164507865906,0.13974696397781372,-1.230176329612732
1761476167828781600,4.562781494140625,-0.13802975416183472,0.16202829778194427,-1.3329559564590454
1761476167838817500,4.572817626953125,0.041332345455884933,0.18489456176757812,-1.293127179145813
1761476167848853500,4.582853515625,0.2263070046901703,0.2108777016401291,-1.1212457418441772
1761476167858890500,4.592890380859375,0.3492143154144287,0.2422558218240738,-0.8133856654167175
1761476167868929500,4.602929443359375,0.37387919425964355,0.17758628726005554,-0.39938634634017944
1761476167878965500,4.612965576171875,0.3176685869693756,0.07140356302261353,0.050751011818647385
1761476167889001700,4.623001708984375,0.17247943580150604,-0.11926918476819992,0.4913480877876282
1761476167899037700,4.63303759765625,-0.031003743410110474,-0.364921510219574,0.8486233353614807
1761476167909073700,4.64307373046875,-0.20018824934959412,-0.5797597765922546,1.1022133827209473
1761476167919109600,4.653109619140625,-0.31174057722091675,-0.6989144086837769,1.191788911819458
1761476167929145600,4.6631455078125,-0.36675241589546204,-0.6784104108810425,1.1246503591537476
1761476167939182600,4.6731826171875,-0.3919868469238281,-0.5220345854759216,0.9106680750846863
1761476167949218600,4.683218505859375,-0.43028682470321655,-0.330192506313324,0.5885598063468933
1761476167959254500,4.693254638671875,-0.42228269577026367,-0.1489393562078476,0.2274821549654007
1761476167969290500,4.70329052734375,-0.393416166305542,0.016080491244792938,-0.09154216945171356
1761476167979326500,4.713326416015625,-0.34486478567123413,0.10406757891178131,-0.2735884189605713
1761476167989362400,4.723362548828125,-0.2812157869338989,0.09110411256551743,-0.249419167637825
1761476167999398400,4.7333984375,-0.2596467137336731,0.03379828855395317,-0.055676016956567764
1761476168009434400,4.743434326171875,-0.26330456137657166,-0.015187365002930164,0.2084786742925644
1761476168019470300,4.75347021484375,-0.2788614332675934,-0.038866862654685974,0.48437631130218506
1761476168029507300,4.76350732421875,-0.26337727904319763,-0.09776320308446884,0.6759606003761292
1761476168039543600,4.77354345703125,-0.2058439999818802,-0.17071035504341125,0.7314120531082153
1761476168049579500,4.78357958984375,-0.1387009173631668,-0.18848535418510437,0.6832959651947021
1761476168059615500,4.793615478515625,-0.035414766520261765,-0.1426924169063568,0.5555981993675232
1761476168069651700,4.803651611328125,0.09180869907140732,-0.03816387802362442,0.37171539664268494
1761476168079687700,4.813687744140625,0.1962035447359085,0.05725371837615967,0.16671858727931976
1761476168089723600,4.8237236328125,0.24452447891235352,0.08212577551603317,-0.011778715066611767
1761476168099759600,4.833759521484375,0.24686527252197266,0.07629790157079697,-0.11209257692098618
1761476168109796600,4.843796630859375,0.21428602933883667,0.06168061122298241,-0.15870429575443268
1761476168119832600,4.85383251953125,0.17919695377349854,-0.0011068349704146385,-0.18632298707962036
1761476168129868500,4.86386865234375,0.13201533257961273,-0.07745912671089172,-0.22184449434280396
1761476168139904500,4.873904541015625,0.09305664896965027,-0.1139180138707161,-0.2604808807373047
1761476168149940500,4.8839404296875,0.07195935398340225,-0.14875668287277222,-0.29752224683761597
1761476168159976400,4.8939765625,0.08720191568136215,-0.11837680637836456,-0.3181513547897339
1761476168170012400,4.904012451171875,0.13056138157844543,0.00028885621577501297,-0.3294687271118164
1761476168180048400,4.91404833984375,0.19503353536128998,0.13900348544120789,-0.3382016718387604
1761476168190085400,4.92408544921875,0.2561991512775421,0.21055994927883148,-0.3324947655200958
1761476168200121300,4.934121337890625,0.31874823570251465,0.21736370027065277,-0.27195432782173157
1761476168210157600,4.944157470703125,0.3537099361419678,0.21238277852535248,-0.1546010822057724
1761476168220193500,4.954193603515625,0.3780558407306671,0.12280000001192093,-0.025605499744415283
1761476168230229500,4.9642294921875,0.37669628858566284,-0.06764664500951767,0.04205263778567314
1761476168240265700,4.974265625,0.3334817886352539,-0.3208545744419098,-0.0315425731241703
1761476168250301700,4.9843017578125,0.24314923584461212,-0.5050241351127625,-0.23727603256702423
1761476168260337700,4.994337646484375,0.11778628081083298,-0.5104750990867615,-0.49769338965415955
1761476168270373600,5.00437353515625,-0.09173046052455902,-0.4376632273197174,-0.771014392375946
1761476168280410600,5.01441064453125,-0.26576629281044006,-0.3756428062915802,-0.9756237268447876
1761476168290446600,5.024446533203125,-0.25881466269493103,-0.2786656618118286,-1.1162902116775513
1761476168300482600,5.034482666015625,-0.135950967669487,-0.05550878867506981,-1.2288175821304321
1761476168310518500,5.0445185546875,-0.03494792431592941,0.2314223051071167,-1.371606707572937
1761476168320554800,5.0545546875,0.028441689908504486,0.5107083320617676,-1.4656765460968018
1761476168330590700,5.0645908203125,0.06728789210319519,0.7098131775856018,-1.4127908945083618
1761476168340626700,5.074626708984375,0.06433950364589691,0.7050840258598328,-1.2289577722549438
1761476168350662700,5.08466259765625,0.09967991709709167,0.48536524176597595,-0.9260041117668152
1761476168360699600,5.09469970703125,0.15784206986427307,0.09114056080579758,-0.5842819809913635
1761476168370735600,5.104735595703125,0.19949710369110107,-0.2969541847705841,-0.32425040006637573
1761476168380771600,5.114771484375,0.21138638257980347,-0.4579002559185028,-0.1871899962425232
1761476168390807600,5.1248076171875,0.19940482079982758,-0.40062177181243896,-0.13017411530017853
1761476168400843500,5.134843505859375,0.15547160804271698,-0.16800032556056976,-0.059888266026973724
1761476168410879500,5.14487939453125,0.07097989320755005,0.07300829142332077,0.06883775442838669
1761476168420915700,5.154915771484375,-0.026201777160167694,0.1302884817123413,0.23520101606845856
1761476168430951700,5.16495166015625,-0.13363902270793915,0.00964035652577877,0.39830419421195984
1761476168440987600,5.174987548828125,-0.25030815601348877,-0.21248577535152435,0.5448700785636902
1761476168451025000,5.18502490234375,-0.3699304163455963,-0.4289248585700989,0.6371421813964844
1761476168461060900,5.195060791015625,-0.4551469385623932,-0.5852268934249878,0.7254851460456848
1761476168471096800,5.205096923828125,-0.4770972728729248,-0.6376426815986633,0.8307953476905823
1761476168481132800,5.2151328125,-0.42937830090522766,-0.5903109312057495,0.9374067783355713
1761476168491168800,5.225168701171875,-0.34737691283226013,-0.45922374725341797,1.0329759120941162
1761476168501204700,5.235204833984375,-0.2799757719039917,-0.31517457962036133,1.0994786024093628
1761476168511240700,5.24524072265625,-0.2715971767902374,-0.20222273468971252,1.0929572582244873
1761476168521276700,5.255276611328125,-0.3090117871761322,-0.12927217781543732,0.9987794756889343
1761476168531313700,5.265313720703125,-0.37028205394744873,-0.06805941462516785,0.856920063495636
1761476168541349600,5.275349609375,-0.41110965609550476,0.03374044597148895,0.7087748050689697
1761476168551385600,5.285385498046875,-0.408554345369339,0.19294634461402893,0.6338507533073425
1761476168561421600,5.295421630859375,-0.38344764709472656,0.3170086145401001,0.6027729511260986
1761476168571457500,5.30545751953125,-0.346280574798584,0.3839524984359741,0.6036520600318909
1761476168581493500,5.315493408203125,-0.2981957495212555,0.3689712584018707,0.621250569820404
1761476168591529700,5.32552978515625,-0.2212895303964615,0.34252047538757324,0.6677469611167908
1761476168601565700,5.335565673828125,-0.1264093518257141,0.3141266107559204,0.7213601469993591
1761476168611602700,5.345602783203125,-0.03317366912961006,0.2697330713272095,0.7660130858421326
1761476168621638700,5.355638671875,0.01615433767437935,0.21822839975357056,0.789883553981781
1761476168631675000,5.3656748046875,0.018962109461426735,0.16120266914367676,0.7528226971626282
1761476168641710800,5.3757109375,-0.013310745358467102,0.06539256870746613,0.6250923275947571
1761476168651746800,5.385746826171875,-0.06885842233896255,-0.03056085854768753,0.4216252267360687
1761476168661782800,5.39578271484375,-0.12577226758003235,-0.11625141650438309,0.18248847126960754
1761476168671818800,5.40581884765625,-0.16435453295707703,-0.18664276599884033,-0.03929932415485382
1761476168681854700,5.415854736328125,-0.16506649553775787,-0.24234166741371155,-0.19793488085269928
1761476168691891700,5.4258916015625,-0.10943200439214706,-0.2137715369462967,-0.26723751425743103
1761476168701927700,5.435927734375,-0.02602224424481392,-0.12226776033639908,-0.3013688325881958
1761476168711963600,5.445963623046875,0.047233857214450836,0.00959013868123293,-0.3384259343147278
1761476168721999600,5.45599951171875,0.09002695977687836,0.14027006924152374,-0.3533741235733032
1761476168732035600,5.46603564453125,0.11736112087965012,0.2288910150527954,-0.35162416100502014
1761476168742071600,5.476071533203125,0.1281728744506836,0.2233627587556839,-0.3658480644226074
1761476168752107500,5.486107421875,0.11225410550832748,0.14289721846580505,-0.39877593517303467
1761476168762143500,5.4961435546875,0.13862255215644836,0.015443542040884495,-0.4189891517162323
1761476168772180700,5.5061806640625,0.2254413366317749,-0.15166422724723816,-0.4328381419181824
1761476168782216700,5.516216796875,0.318302720785141,-0.3419165015220642,-0.4608795642852783
1761476168792252700,5.526252685546875,0.4188982844352722,-0.4221296012401581,-0.4431016147136688
1761476168802289000,5.536288818359375,0.5374760031700134,-0.3248968720436096,-0.37903279066085815
1761476168812324900,5.546324951171875,0.5698667168617249,-0.26037248969078064,-0.46838581562042236
1761476168822360800,5.55636083984375,0.46775153279304504,-0.4913797378540039,-0.9168800115585327
1761476168832396800,5.566396728515625,0.24657385051250458,-0.8239598274230957,-1.6318724155426025
1761476168842432800,5.576432861328125,-0.0016866191290318966,-0.9047877788543701,-2.2918484210968018
1761476168852469800,5.5864697265625,-0.16472214460372925,-0.6273325085639954,-2.725900411605835
1761476168862505700,5.596505615234375,-0.13362041115760803,-0.031807735562324524,-2.906053066253662
1761476168872541700,5.606541748046875,0.09318264573812485,0.6505114436149597,-2.902038812637329
1761476168882577700,5.61657763671875,0.3074265718460083,1.117056965827942,-2.748148202896118
1761476168892613600,5.626613525390625,0.4404977858066559,1.171486735343933,-2.402279853820801
1761476168902649600,5.636649658203125,0.4854341745376587,0.7720938920974731,-1.8770604133605957
1761476168912685600,5.646685546875,0.48195767402648926,0.12085777521133423,-1.2408653497695923
1761476168922721500,5.656721435546875,0.4543890655040741,-0.5199244022369385,-0.5997819900512695
1761476168932758500,5.666758544921875,0.42019835114479065,-0.9238854646682739,-0.06630130112171173
1761476168942794800,5.676794677734375,0.3579590916633606,-1.0535171031951904,0.30689966678619385
1761476168952830700,5.686830810546875,0.25983279943466187,-0.9036436676979065,0.5405046939849854
1761476168962866700,5.69686669921875,0.14820465445518494,-0.5960915088653564,0.6372158527374268
1761476168972902700,5.706902587890625,0.04338771104812622,-0.312384694814682,0.6667066216468811
1761476168982939000,5.71693896484375,-0.016544867306947708,-0.1418347954750061,0.6903091669082642
1761476168992974800,5.726974853515625,-0.05104238912463188,-0.10152306407690048,0.7125595808029175
1761476169003010800,5.7370107421875,-0.08491885662078857,-0.11899886280298233,0.723146378993988
1761476169013047800,5.7470478515625,-0.13623957335948944,-0.11828698962926865,0.7250915765762329
1761476169023083800,5.757083740234375,-0.155556321144104,-0.03935101628303528,0.7646934390068054
1761476169033119700,5.76711962890625,-0.16573785245418549,0.045409150421619415,0.8763608932495117
1761476169043155700,5.77715576171875,-0.19282694160938263,0.0910615622997284,1.033079981803894
1761476169053191700,5.787191650390625,-0.2205890715122223,0.12168684601783752,1.2347105741500854
1761476169063227600,5.7972275390625,-0.26925843954086304,0.15475736558437347,1.436121940612793
1761476169073263600,5.807263671875,-0.34156563878059387,0.18337009847164154,1.5837109088897705
1761476169083299600,5.817299560546875,-0.4205840229988098,0.2094767987728119,1.6769448518753052
1761476169093336600,5.827336669921875,-0.5008559823036194,0.21990039944648743,1.6970505714416504
1761476169103372500,5.83737255859375,-0.56480473279953,0.1835079938173294,1.6434941291809082
1761476169113408500,5.847408447265625,-0.5614104866981506,0.1616429090499878,1.5504834651947021
1761476169123444700,5.85744482421875,-0.4865467846393585,0.13614386320114136,1.4488331079483032
1761476169133480700,5.867480712890625,-0.36589813232421875,0.13751858472824097,1.3230810165405273
1761476169143516700,5.8775166015625,-0.23883287608623505,0.18436425924301147,1.1766704320907593
1761476169153553000,5.887552978515625,-0.14327679574489594,0.2542581260204315,1.0010218620300293
1761476169163589600,5.897589599609375,-0.08032188564538956,0.3251447379589081,0.7958126068115234
1761476169173625600,5.90762548828125,-0.101199209690094,0.2966984510421753,0.5586394667625427
1761476169183661800,5.917661865234375,-0.2052406519651413,0.19624413549900055,0.29793909192085266
1761476169193697800,5.92769775390625,-0.3108738660812378,0.13083183765411377,0.05308381840586662
1761476169203733800,5.937733642578125,-0.36392080783843994,0.09846122562885284,-0.15084205567836761
1761476169213769700,5.947769775390625,-0.34834638237953186,0.023489514365792274,-0.30399325489997864
1761476169223805700,5.9578056640625,-0.2826229929924011,-0.06351742893457413,-0.4154610335826874
1761476169233841700,5.967841552734375,-0.1474446803331375,-0.0819835215806961,-0.4629848599433899
1761476169243878700,5.977878662109375,0.037598736584186554,-0.02757742628455162,-0.44789937138557434
1761476169253914600,5.98791455078125,0.18293409049510956,0.029209688305854797,-0.4086827337741852
1761476169263950600,5.99795068359375,0.2620590925216675,0.12874317169189453,-0.3575673997402191
1761476169273986600,6.007986572265625,0.26707062125205994,0.22774085402488708,-0.3014971911907196
1761476169284022500,6.0180224609375,0.19938768446445465,0.3197705149650574,-0.2510252296924591
1761476169294058800,6.028058837890625,0.10718265175819397,0.3689604103565216,-0.20097379386425018
1761476169304094700,6.0380947265625,0.0636463314294815,0.3390963077545166,-0.1041792631149292
1761476169314131700,6.048131591796875,0.12770628929138184,0.22055234014987946,0.04082585871219635
1761476169324168000,6.05816796875,0.2703355550765991,0.012008612975478172,0.17247813940048218
1761476169334204000,6.068203857421875,0.44289344549179077,-0.24148623645305634,0.20661906898021698
1761476169344239900,6.078239990234375,0.5543895959854126,-0.3768477737903595,0.0918998196721077
1761476169354275800,6.08827587890625,0.48926302790641785,-0.32913005352020264,-0.22983905673027039
1761476169364311800,6.098311767578125,0.2059394270181656,-0.2530198097229004,-0.6948044300079346
1761476169374348000,6.10834814453125,-0.21906006336212158,-0.33743563294410706,-1.2227859497070312
1761476169384384000,6.118384033203125,-0.5453855395317078,-0.26794880628585815,-1.683126449584961
1761476169394420700,6.128420654296875,-0.6064531803131104,0.044471971690654755,-1.9125739336013794
1761476169404457000,6.13845703125,-0.49351951479911804,0.3429088890552521,-1.9455610513687134
1761476169414493000,6.148492919921875,-0.24750520288944244,0.6813991069793701,-1.8267878293991089
1761476169424529000,6.15852880859375,0.000776161439716816,0.9452041387557983,-1.5704915523529053
1761476169434564900,6.16856494140625,0.16107076406478882,1.0527055263519287,-1.178263545036316
1761476169444600800,6.178600830078125,0.2936515808105469,0.9250102639198303,-0.7161582708358765
1761476169454636800,6.18863671875,0.44624456763267517,0.49640294909477234,-0.27046552300453186
1761476169464672800,6.1986728515625,0.5573500990867615,-0.2295507937669754,0.057057302445173264
1761476169474710000,6.2087099609375,0.551267683506012,-0.9058163166046143,0.2425384670495987
1761476169484746000,6.21874609375,0.4383572041988373,-1.1625256538391113,0.31275489926338196
1761476169494782000,6.228781982421875,0.16911108791828156,-1.2874712944030762,0.22239622473716736
1761476169504818000,6.23881787109375,-0.159738227725029,-1.3490513563156128,-0.07342186570167542
1761476169514854000,6.24885400390625,-0.3951813876628876,-1.1962103843688965,-0.4196557104587555
1761476169524889900,6.258889892578125,-0.44461894035339355,-0.9276111721992493,-0.6348065137863159
1761476169534925800,6.26892578125,-0.3510706126689911,-0.7784541249275208,-0.5811235904693604
1761476169544962800,6.278962890625,-0.17682082951068878,-0.8760519027709961,-0.2822912931442261
1761476169554998800,6.288998779296875,-0.002942516002804041,-1.1866772174835205,0.16949720680713654
1761476169565034800,6.29903466796875,0.19764003157615662,-1.201367974281311,0.5243339538574219
1761476169575071000,6.309071044921875,0.4315159320831299,-1.2922638654708862,0.5370462536811829
1761476169585107000,6.31910693359375,0.5072218179702759,-1.9259129762649536,0.3813491463661194
1761476169595143000,6.329142822265625,0.5290110111236572,-1.985588550567627,0.2607566714286804
1761476169605179000,6.339178955078125,0.5880098938941956,-1.4346719980239868,0.17602455615997314
1761476169615214800,6.34921484375,0.6630715727806091,-0.6922761797904968,0.10763750970363617
1761476169625252000,6.359252197265625,0.6955384016036987,-0.024371037259697914,0.0010069264099001884
1761476169635288000,6.3692880859375,0.6630821824073792,0.49513524770736694,-0.07964237779378891
1761476169645324000,6.379323974609375,0.6409981846809387,0.9749931693077087,-0.07632113993167877
1761476169655360000,6.389360107421875,0.5830637812614441,1.2120294570922852,-0.009512020274996758
1761476169665396000,6.39939599609375,0.4019908010959625,1.057299256324768,0.11430751532316208
1761476169675432000,6.409431884765625,0.13329088687896729,0.6312307119369507,0.33018893003463745
1761476169685468000,6.419468017578125,-0.11991674453020096,0.19424639642238617,0.6143397688865662
1761476169695505000,6.4295048828125,-0.23364490270614624,-0.09101704508066177,0.952675998210907
1761476169705540900,6.439540771484375,-0.24555158615112305,-0.2007056176662445,1.247507929801941
1761476169715576800,6.449576904296875,-0.2176605761051178,-0.10751467943191528,1.4577794075012207
1761476169725612800,6.45961279296875,-0.18066228926181793,0.1280227154493332,1.602567195892334
1761476169735648800,6.469648681640625,-0.1614539623260498,0.4521147608757019,1.6832276582717896
1761476169745684700,6.479684814453125,-0.18319551646709442,0.7249873280525208,1.7166218757629395
1761476169755721000,6.489720947265625,-0.27282392978668213,0.8402872681617737,1.7121692895889282
1761476169765757000,6.4997568359375,-0.3980043828487396,0.8026862144470215,1.6952862739562988
1761476169775793700,6.509793701171875,-0.48379626870155334,0.6697171926498413,1.6769627332687378
1761476169785830000,6.519829833984375,-0.5049950480461121,0.46138015389442444,1.6006475687026978
1761476169795865900,6.529865966796875,-0.4913812279701233,0.2866504490375519,1.4551998376846313
1761476169805902000,6.539902099609375,-0.4537010192871094,0.24073635041713715,1.2594237327575684
1761476169815938000,6.54993798828125,-0.42023441195487976,0.3463551998138428,1.02998685836792
1761476169825974000,6.55997412109375,-0.43253293633461,0.5173699855804443,0.8332236409187317
1761476169836010000,6.570010009765625,-0.4898998439311981,0.6091790199279785,0.7127733826637268
1761476169846046000,6.5800458984375,-0.5825998187065125,0.6120859980583191,0.6193962693214417
1761476169856083000,6.5900830078125,-0.698447048664093,0.5552679896354675,0.5103536248207092
1761476169866119000,6.600118896484375,-0.7844027876853943,0.6964627504348755,0.4127442538738251
1761476169876155000,6.61015478515625,-0.8602182269096375,1.2451056241989136,0.3735981583595276
1761476169886190800,6.62019091796875,-0.9354159832000732,1.9942293167114258,0.35752689838409424
1761476169896226800,6.630226806640625,-0.965480387210846,2.5691630840301514,0.31742075085639954
1761476169906262800,6.6402626953125,-1.0226600170135498,2.295485019683838,0.09231992065906525
1761476169916298800,6.650298828125,-1.072390079498291,0.9764249920845032,-0.24521151185035706
1761476169926335000,6.6603349609375,-0.966940701007843,-0.1576465666294098,-0.39900073409080505
1761476169936371700,6.670371826171875,-0.7000285387039185,-0.06082655116915703,-0.35574275255203247
1761476169946407700,6.68040771484375,-0.36014455556869507,0.157470703125,-0.3664916753768921
1761476169956444000,6.69044384765625,-0.0741591602563858,-0.046322647482156754,-0.553659975528717
1761476169966480000,6.70047998046875,0.08428344875574112,-0.25877201557159424,-0.908295214176178
1761476169976516000,6.71051611328125,0.11023755371570587,-0.4727035164833069,-1.3885632753372192
1761476169986552000,6.720552001953125,0.09289627522230148,-0.738332986831665,-2.007328987121582
1761476169996588000,6.730588134765625,0.10092438012361526,-0.5110788345336914,-2.635352849960327
1761476170006624000,6.7406240234375,0.23458614945411682,0.06624770909547806,-3.1236889362335205
1761476170016661000,6.750660888671875,0.5072610974311829,0.5603711605072021,-3.487555742263794
1761476170026697000,6.760697021484375,0.722614586353302,0.8187614679336548,-3.714712142944336
1761476170036733000,6.77073291015625,0.7879807949066162,0.7539201378822327,-3.7222986221313477
1761476170046769000,6.780768798828125,0.7068389058113098,0.32445183396339417,-3.440335750579834
1761476170056804900,6.790804931640625,0.5328276753425598,-0.3540925681591034,-2.8510947227478027
1761476170066840800,6.8008408203125,0.3478182256221771,-0.8973967432975769,-2.059401035308838
1761476170076876800,6.810876708984375,0.20445464551448822,-1.092534065246582,-1.1730767488479614
1761476170086912800,6.820912841796875,0.10086335241794586,-1.1018731594085693,-0.3082197904586792
1761476170096948700,6.83094873046875,0.005786103196442127,-1.0507594347000122,0.40059784054756165
1761476170106985000,6.84098486328125,-0.03958398103713989,-0.9582524299621582,0.8509839177131653
1761476170117021700,6.851021728515625,-0.012732659466564655,-0.8291618227958679,1.0214821100234985
1761476170127057700,6.8610576171875,0.07033535838127136,-0.7333935499191284,0.9631676077842712
1761476170137094000,6.871093994140625,0.18592293560504913,-0.7166353464126587,0.7999113202095032
1761476170147129900,6.8811298828125,0.3133138120174408,-0.7529771327972412,0.5932137370109558
1761476170157166000,6.891166015625,0.4121309518814087,-0.8000114560127258,0.37058332562446594
1761476170167202000,6.9012021484375,0.46759268641471863,-0.8362865447998047,0.13689589500427246
1761476170177238000,6.911238037109375,0.4633129835128784,-0.8205049633979797,-0.08425752818584442
1761476170187274000,6.92127392578125,0.37346506118774414,-0.7008688449859619,-0.21758677065372467
1761476170197310000,6.93131005859375,0.21491189301013947,-0.45032554864883423,-0.18362854421138763
1761476170207347000,6.941346923828125,0.03146085515618324,-0.08321026712656021,0.07705976068973541
1761476170217383000,6.9513828125,-0.13761019706726074,0.2025381326675415,0.46838492155075073
1761476170227419000,6.9614189453125,-0.2713141441345215,0.379915714263916,0.8671325445175171
1761476170237454800,6.971454833984375,-0.3464515209197998,0.4851697087287903,1.2080354690551758
1761476170247490800,6.98149072265625,-0.39538002014160156,0.5114349126815796,1.4511559009552002
1761476170257526800,6.99152685546875,-0.45112717151641846,0.4453868567943573,1.609350562095642
1761476170267562800,7.001562744140625,-0.5099651217460632,0.32454463839530945,1.7190426588058472
1761476170277599000,7.011598876953125,-0.5439534187316895,0.17811523377895355,1.7417213916778564
1761476170287635000,7.021635009765625,-0.5289929509162903,0.0973275899887085,1.6750843524932861
1761476170297671000,7.0316708984375,-0.43971818685531616,0.10567287355661392,1.5706084966659546
1761476170307707000,7.041706787109375,-0.2944795787334442,0.22645528614521027,1.4160237312316895
1761476170317743900,7.051743896484375,-0.1330597996711731,0.42163410782814026,1.2257986068725586
1761476170327780000,7.061780029296875,-0.022359542548656464,0.6218118667602539,1.0264290571212769
1761476170337816000,7.071816162109375,0.05401964858174324,0.7662151455879211,0.845356822013855
1761476170347852000,7.08185205078125,0.07274596393108368,0.8486082553863525,0.7005739808082581
1761476170357888000,7.091887939453125,0.002200162038207054,0.8184663653373718,0.5555360913276672
1761476170367924000,7.101924072265625,-0.11687495559453964,0.7024683356285095,0.4165922999382019
1761476170377960000,7.1119599609375,-0.22476759552955627,0.585129976272583,0.2786828875541687
1761476170387996000,7.121995849609375,-0.28192055225372314,0.44472211599349976,0.13583210110664368
1761476170398032000,7.132031982421875,-0.24052837491035461,0.2920880913734436,0.04458288475871086
1761476170408067800,7.14206787109375,-0.08504284173250198,0.1827925592660904,0.013734047301113605
1761476170418103800,7.152103759765625,0.16012509167194366,0.09623157978057861,0.027286339551210403
1761476170428140800,7.162140869140625,0.4170275926589966,0.13988807797431946,0.06606116890907288
1761476170438176800,7.1721767578125,0.5782982110977173,0.48619595170021057,0.15551461279392242
1761476170448212700,7.182212646484375,0.6130892634391785,0.9635648131370544,0.28312844038009644
1761476170458249000,7.1922490234375,0.5303121209144592,1.2096446752548218,0.34767094254493713
1761476170468285000,7.202284912109375,0.37654849886894226,1.0663414001464844,0.34859219193458557
1761476170478321000,7.21232080078125,0.22763730585575104,0.38571012020111084,0.22351974248886108
1761476170488356900,7.22235693359375,0.11270680278539658,-0.8159865736961365,-0.12973381578922272
1761476170498392800,7.232392822265625,-0.04196825996041298,-2.019758701324463,-0.7257343530654907
1761476170508428800,7.2424287109375,-0.25716161727905273,-2.705202579498291,-1.4855762720108032
1761476170518464800,7.25246484375,-0.37944304943084717,-2.643765687942505,-2.307188034057617
1761476170528500700,7.262500732421875,-0.4027533233165741,-1.462611436843872,-3.002549171447754
1761476170538536700,7.27253662109375,-0.4461599290370941,0.5150346755981445,-3.417250633239746
1761476170548574000,7.282573974609375,-0.5119162797927856,2.401841878890991,-3.37835955619812
1761476170558610000,7.29260986328125,-0.3777501583099365,3.0745043754577637,-2.9743919372558594
1761476170568646000,7.30264599609375,-0.11970726400613785,2.4650919437408447,-2.381816864013672
1761476170578681900,7.312681884765625,0.08313479274511337,0.9401151537895203,-1.6431996822357178
1761476170588717800,7.3227177734375,0.13752298057079315,-1.0331717729568481,-0.9259860515594482
1761476170598754000,7.332754150390625,0.1679551899433136,-2.6952664852142334,-0.3787565231323242
1761476170608790000,7.3427900390625,0.1992635279893875,-3.527848482131958,0.026450755074620247
1761476170618826000,7.352825927734375,0.21845372021198273,-3.4551849365234375,0.26041293144226074
1761476170628862000,7.362862060546875,0.234598308801651,-2.8309030532836914,0.16108845174312592
1761476170638898000,7.37289794921875,0.26147040724754333,-1.9477413892745972,-0.2500530183315277
1761476170648934000,7.382933837890625,0.2618499994277954,-0.9086849093437195,-0.6770997643470764
1761476170658969900,7.392969970703125,0.25493961572647095,-0.30598461627960205,-0.9764356017112732
1761476170669005800,7.403005859375,0.18188807368278503,0.011756213381886482,-1.0656894445419312
1761476170679042800,7.413042724609375,-0.012032121419906616,0.11932049691677094,-0.930229902267456
1761476170689078800,7.423078857421875,-0.15945641696453094,-0.005418005865067244,-0.691510021686554
1761476170699114800,7.43311474609375,-0.26446032524108887,-0.007071296218782663,-0.4046783149242401
1761476170709150700,7.443150634765625,-0.3340243697166443,0.04244120046496391,-0.14582937955856323
1761476170719186700,7.453186767578125,-0.36645209789276123,0.16129648685455322,0.05427441745996475
1761476170729222700,7.46322265625,-0.3635536730289459,0.28627973794937134,0.20028072595596313
1761476170739259000,7.4732587890625,-0.35807448625564575,0.3559587001800537,0.26970958709716797
1761476170749295000,7.483295166015625,-0.3611665964126587,0.37148603796958923,0.293804794549942
1761476170759331000,7.4933310546875,-0.35389217734336853,0.34348687529563904,0.3570508658885956
1761476170769367000,7.503366943359375,-0.32911157608032227,0.3211359679698944,0.48355337977409363
1761476170779403000,7.513403076171875,-0.31020739674568176,0.3223421275615692,0.6016581654548645
1761476170789439000,7.52343896484375,-0.2859882414340973,0.3695693016052246,0.6793929934501648
1761476170799475000,7.533474853515625,-0.21687760949134827,0.47420597076416016,0.7267948985099792
1761476170809512000,7.543511962890625,-0.09793885052204132,0.5904489159584045,0.7623909711837769
1761476170819548000,7.5535478515625,0.00472627580165863,0.6727762818336487,0.7817625403404236
1761476170829584000,7.563583984375,0.05534897372126579,0.7189617156982422,0.7538052201271057
1761476170839619800,7.573619873046875,0.06209449842572212,0.7143986821174622,0.721431314945221
1761476170849655800,7.58365576171875,0.04475122690200806,0.6202064752578735,0.7311811447143555
1761476170859691800,7.59369189453125,0.009620670229196548,0.44558754563331604,0.7394704818725586
1761476170869727700,7.603727783203125,-0.03040173090994358,0.30894577503204346,0.6875327229499817
1761476170879764000,7.613763916015625,-0.06639115512371063,0.2742072343826294,0.5787330269813538
1761476170889800000,7.623800048828125,-0.07565584778785706,0.295057088136673,0.4526371657848358
1761476170899836000,7.6338359375,-0.04334983602166176,0.3677257001399994,0.36342474818229675
1761476170909871900,7.643871826171875,-0.004155570175498724,0.4709894061088562,0.3428376615047455
1761476170919907800,7.653907958984375,0.014307326637208462,0.6317495107650757,0.3866857886314392
1761476170929943800,7.66394384765625,0.003802386112511158,0.7032269239425659,0.4808882474899292
1761476170939979800,7.673979736328125,-0.03597192466259003,0.660561740398407,0.593122124671936
1761476170950015700,7.684015625,-0.0869143158197403,0.5519073009490967,0.6712507009506226
1761476170960053000,7.694052978515625,-0.1372680366039276,0.4294176399707794,0.6746938824653625
1761476170970089000,7.7040888671875,-0.18834218382835388,0.3475147783756256,0.5829355716705322
1761476170980125000,7.714125,-0.18545503914356232,0.40051382780075073,0.4671464264392853
1761476170990161000,7.724160888671875,-0.09057004004716873,0.5562359094619751,0.4365958869457245
1761476171000196900,7.73419677734375,0.07786344736814499,0.7783904075622559,0.5340508222579956
1761476171010232800,7.74423291015625,0.22511743009090424,0.8085517287254333,0.6541008949279785
1761476171020268800,7.754268798828125,0.29247570037841797,0.5913479924201965,0.6852833032608032
1761476171030305000,7.764304931640625,0.3107792139053345,0.1940567046403885,0.5772571563720703
1761476171040341000,7.774341064453125,0.3069725036621094,-0.2590785622596741,0.36307746171951294
1761476171050377000,7.784376953125,0.23787985742092133,-0.6822671890258789,-0.026392590254545212
1761476171060413000,7.794412841796875,0.07493514567613602,-0.8916606307029724,-0.5424407720565796
1761476171070449000,7.804448974609375,-0.07714016735553741,-0.7968246936798096,-0.9685376286506653
1761476171080484900,7.81448486328125,-0.08650863915681839,-0.40526434779167175,-1.2175700664520264
1761476171090520800,7.824520751953125,0.08018435537815094,0.10647130757570267,-1.343621850013733
1761476171100556800,7.834556884765625,0.2785826623439789,0.601776659488678,-1.3329253196716309
1761476171110592800,7.8445927734375,0.3861757516860962,0.8422353267669678,-1.1569091081619263
1761476171120629800,7.854629638671875,0.39832615852355957,0.7546694874763489,-0.8400858640670776
1761476171130665700,7.864665771484375,0.37249940633773804,0.4872128665447235,-0.5079500675201416
1761476171140702000,7.874701904296875,0.38697394728660583,0.11757756024599075,-0.26775288581848145
1761476171150738000,7.884738037109375,0.45362135767936707,-0.232075497508049,-0.16554564237594604
1761476171160774000,7.89477392578125,0.5349779725074768,-0.47709429264068604,-0.16054795682430267
1761476171170810000,7.90481005859375,0.5361962914466858,-0.6497310996055603,-0.2028278112411499
1761476171180846000,7.91484619140625,0.4232102930545807,-0.8030146360397339,-0.2549024522304535
1761476171190882000,7.924882080078125,0.24567103385925293,-0.946605384349823,-0.3209836483001709
1761476171200918000,7.93491796875,0.07759256660938263,-1.0255237817764282,-0.43346598744392395
1761476171210954000,7.9449541015625,-0.048539839684963226,-0.9712580442428589,-0.5340442657470703
1761476171220990000,7.954989990234375,-0.11802198737859726,-0.853489875793457,-0.5801635384559631
1761476171231026000,7.96502587890625,-0.14080993831157684,-0.689803421497345,-0.5607162117958069
1761476171241062000,7.975061767578125,-0.14919862151145935,-0.455165296792984,-0.4211694598197937
1761476171251097900,7.985097900390625,-0.12371011078357697,-0.23948253691196442,-0.15828464925289154
1761476171261133800,7.9951337890625,-0.09569099545478821,-0.08786052465438843,0.17053984105587006
1761476171271170800,8.0051708984375,-0.11619726568460464,-0.04913710802793503,0.4784463346004486
1761476171281204000,8.015203857421875,-0.16735099256038666,-0.07528802007436752,0.6994314193725586
1761476171291240000,8.025239990234375,-0.21800272166728973,-0.09577278792858124,0.8332488536834717
1761476171301276000,8.03527587890625,-0.24253202974796295,-0.05111503601074219,0.8920528292655945
1761476171311312000,8.045311767578125,-0.2428264617919922,0.05679312348365784,0.9131177067756653
1761476171321347800,8.055347900390625,-0.2236650139093399,0.22844824194908142,0.9042232632637024
1761476171331384000,8.065384033203125,-0.2078429013490677,0.4222605526447296,0.8710198402404785
1761476171341420300,8.075420166015626,-0.18773017823696136,0.5750789046287537,0.8274065852165222
1761476171351456300,8.085456298828126,-0.14132361114025116,0.6370391249656677,0.8103104829788208
1761476171361492200,8.0954921875,-0.061151280999183655,0.5910042524337769,0.8275163769721985
1761476171371528200,8.105528076171876,0.02001269720494747,0.51301109790802,0.8612287640571594
1761476171381564200,8.115564208984376,0.06329359114170074,0.4292972683906555,0.8825066685676575
1761476171391600000,8.12560009765625,0.06833420693874359,0.3881031572818756,0.8702185153961182
1761476171401636000,8.135635986328126,0.031055007129907608,0.41948559880256653,0.8351305723190308
1761476171411672000,8.145672119140626,-0.0383746363222599,0.469796359539032,0.7870318293571472
1761476171421708000,8.1557080078125,-0.12221627682447433,0.5135568380355835,0.7167118787765503
1761476171431744000,8.165743896484376,-0.18302802741527557,0.5370304584503174,0.6158633232116699
1761476171441781000,8.175781005859376,-0.20192769169807434,0.511207640171051,0.4861934781074524
1761476171451817000,8.18581689453125,-0.18377138674259186,0.4621633291244507,0.34904852509498596
1761476171461853000,8.19585302734375,-0.14487725496292114,0.40105897188186646,0.24846495687961578
1761476171471889200,8.20588916015625,-0.08533632010221481,0.366957426071167,0.2305048257112503
1761476171481925400,8.21592529296875,-0.013489296659827232,0.34793955087661743,0.2783080041408539
1761476171491961300,8.22596142578125,0.02853340655565262,0.34492743015289307,0.35327571630477905
1761476171501997300,8.235997314453124,0.014291885308921337,0.38053470849990845,0.40091726183891296
1761476171512033300,8.246033203125,-0.026867680251598358,0.4233742356300354,0.4186936616897583
1761476171522069200,8.2560693359375,-0.037856150418519974,0.4745767116546631,0.4104194939136505
1761476171532105200,8.266105224609374,-0.015820622444152832,0.49473708868026733,0.37776753306388855
1761476171542141200,8.27614111328125,0.02835056744515896,0.42220538854599,0.3245171010494232
1761476171552177200,8.28617724609375,0.07882560789585114,0.2604389190673828,0.27771809697151184
1761476171562213000,8.296213134765624,0.17994636297225952,0.09811899065971375,0.2940081059932709
1761476171572249000,8.3062490234375,0.29932695627212524,-0.15025971829891205,0.3519158363342285
1761476171582285000,8.31628515625,0.40017661452293396,-0.6555394530296326,0.3809640109539032
1761476171592321300,8.3263212890625,0.4353884160518646,-1.3866887092590332,0.13375547528266907
1761476171602358000,8.33635791015625,0.3296566605567932,-1.8942395448684692,-0.4792272448539734
1761476171612394000,8.34639404296875,0.12481928616762161,-1.7825204133987427,-1.338878870010376
1761476171622430200,8.35643017578125,-0.0586131289601326,-0.9879651069641113,-2.163888931274414
1761476171632466200,8.366466064453125,-0.12285283952951431,0.07811593264341354,-2.709348678588867
1761476171642502100,8.376502197265625,-0.002381819300353527,0.9820029139518738,-2.84421706199646
1761476171652538000,8.3865380859375,0.24931223690509796,1.319858431816101,-2.713493824005127
1761476171662574000,8.396573974609375,0.42895418405532837,1.0371390581130981,-2.4543490409851074
1761476171672610000,8.406610107421875,0.4279540479183197,0.3745461702346802,-2.0696609020233154
1761476171682646000,8.41664599609375,0.31608501076698303,-0.4515453577041626,-1.5897557735443115
1761476171692682000,8.426681884765625,0.2568778991699219,-1.1536858081817627,-1.1116957664489746
1761476171702718200,8.43671826171875,0.29378530383110046,-1.4595978260040283,-0.6938052177429199
1761476171712754200,8.446754150390625,0.358771950006485,-1.3287690877914429,-0.345396488904953
1761476171722790100,8.4567900390625,0.3944183588027954,-0.8338009119033813,-0.10606061667203903
1761476171732826000,8.466826171875,0.35165727138519287,-0.2174557000398636,0.030225981026887894
1761476171742862300,8.4768623046875,0.21599054336547852,0.17794594168663025,0.09150878340005875
1761476171752898300,8.486898193359375,0.04724903032183647,0.28331857919692993,0.1346282660961151
1761476171762934300,8.496934326171875,-0.12709002196788788,0.10264173150062561,0.18905074894428253
1761476171772970200,8.50697021484375,-0.3094451129436493,-0.31466466188430786,0.27127212285995483
1761476171783007200,8.51700732421875,-0.41409003734588623,-0.6972628831863403,0.3803301453590393
1761476171793043200,8.527043212890625,-0.4097652733325958,-0.8441348075866699,0.4631797671318054
1761476171803079200,8.5370791015625,-0.31081366539001465,-0.7879202365875244,0.5106452703475952
1761476171813115100,8.547115234375,-0.1434105634689331,-0.6559736728668213,0.5818318128585815
1761476171823151000,8.557151123046875,0.06381505727767944,-0.4910776913166046,0.668475329875946
1761476171833187000,8.56718701171875,0.22652043402194977,-0.307951956987381,0.7282083034515381
1761476171843223000,8.57722314453125,0.31490248441696167,-0.16671043634414673,0.7587097883224487
1761476171853259000,8.587259033203125,0.3349916636943817,-0.0851484164595604,0.7645096182823181
1761476171863295000,8.597294921875,0.29718250036239624,-0.04123635217547417,0.7656899094581604
1761476171873332000,8.60733203125,0.21784253418445587,-0.02090693823993206,0.7366511821746826
1761476171883369200,8.617369140625,0.12407049536705017,0.027758868411183357,0.6843141913414001
1761476171893405200,8.6274052734375,0.04331039637327194,0.11753827333450317,0.6379877328872681
1761476171903441200,8.637441162109376,0.01603137142956257,0.21683183312416077,0.6477228999137878
1761476171913477000,8.64747705078125,0.02785114198923111,0.31462007761001587,0.7394918203353882
1761476171923513000,8.65751318359375,0.04733429476618767,0.37928110361099243,0.8667762875556946
1761476171933549000,8.667549072265626,0.05040119215846062,0.4168151617050171,0.9890124201774597
1761476171943585300,8.677585205078126,0.05061584338545799,0.41521939635276794,1.0861027240753174
1761476171953621200,8.687621337890626,0.057927146553993225,0.3765227794647217,1.146399974822998
1761476171963657200,8.6976572265625,0.07805212587118149,0.31828558444976807,1.1545170545578003
1761476171973693200,8.707693115234376,0.10330195724964142,0.2478085607290268,1.1098517179489136
1761476171983729200,8.717729248046876,0.12053792923688889,0.19150269031524658,1.0114428997039795
1761476171993765000,8.72776513671875,0.08925630897283554,0.17759288847446442,0.8483166098594666
1761476172003801000,8.737801025390626,0.012704010121524334,0.20029766857624054,0.658950686454773
1761476172013837000,8.747837158203126,-0.04245685413479805,0.22116965055465698,0.4671970009803772
1761476172023873000,8.757873046875,-0.058124229311943054,0.2349427193403244,0.2544413208961487
1761476172033909000,8.767908935546876,-0.03613542765378952,0.24594391882419586,0.03048017993569374
1761476172043945000,8.777945068359376,0.03992445021867752,0.26034069061279297,-0.14797531068325043
1761476172053981200,8.787981201171876,0.1760701835155487,0.22891560196876526,-0.23920327425003052
1761476172064017200,8.79801708984375,0.3410109281539917,0.21494919061660767,-0.24583640694618225
1761476172074053000,8.80805322265625,0.5052396059036255,0.2660791575908661,-0.17835021018981934
1761476172084089000,8.818089111328124,0.6034204959869385,0.34190359711647034,-0.10541236400604248
1761476172094125000,8.828125,0.5745295286178589,0.3727148771286011,-0.09411276876926422
1761476172104161000,8.8381611328125,0.427340567111969,0.4415740966796875,-0.06397617608308792
1761476172114197200,8.848197265625,0.22457638382911682,0.47313982248306274,0.1189284548163414
1761476172124233200,8.858233154296874,0.030278019607067108,0.3451640009880066,0.4238753318786621
1761476172134269200,8.868269287109374,-0.07609288394451141,0.0517769381403923,0.6488396525382996
1761476172144305200,8.87830517578125,-0.10181289911270142,-0.2591194212436676,0.6199550628662109
1761476172154341000,8.888341064453124,-0.07876182347536087,-0.46708419919013977,0.3306850492954254
1761476172164378000,8.898378173828124,-0.029645944014191628,-0.41809239983558655,-0.07987076789140701
1761476172174414000,8.9084140625,-0.009418914094567299,-0.03910434991121292,-0.42345312237739563
1761476172184450000,8.918449951171874,-0.026373397558927536,0.46487677097320557,-0.6159831881523132
1761476172194486000,8.928486083984374,-0.05574274808168411,0.7833873629570007,-0.7232476472854614
1761476172204522200,8.938522216796875,-0.08697763085365295,0.7919984459877014,-0.8988479375839233
1761476172214558200,8.94855810546875,-0.13139262795448303,0.6452599763870239,-1.1151230335235596
1761476172224594200,8.95859423828125,-0.21325048804283142,0.5387012958526611,-1.2770861387252808
1761476172234630100,8.968630126953125,-0.3279757499694824,0.43780577182769775,-1.3809964656829834
1761476172244666000,8.978666015625,-0.38574716448783875,0.35609596967697144,-1.477120041847229
1761476172254702000,8.9887021484375,-0.29884061217308044,0.31710729002952576,-1.5784903764724731
1761476172264738000,8.998738037109375,-0.09674689918756485,0.33422422409057617,-1.617307186126709
1761476172274774000,9.00877392578125,0.09896671026945114,0.3922072947025299,-1.5657968521118164
1761476172284810000,9.01881005859375,0.16506877541542053,0.44759970903396606,-1.4267604351043701
1761476172294846000,9.028845947265625,0.0972900316119194,0.3849216401576996,-1.1767250299453735
1761476172304882200,9.038882080078125,-0.01729247346520424,0.12372706830501556,-0.8397140502929688
1761476172314918100,9.048918212890625,-0.09497667104005814,-0.28558430075645447,-0.5489203333854675
1761476172324954000,9.0589541015625,-0.11507528275251389,-0.6827074289321899,-0.37923622131347656
1761476172334990000,9.068989990234375,-0.09942515939474106,-0.9108781814575195,-0.3431590497493744
1761476172345026300,9.0790263671875,-0.103837750852108,-0.910326361656189,-0.42269808053970337
1761476172355062300,9.089062255859375,-0.14214132726192474,-0.7329230904579163,-0.5597720146179199
1761476172365098200,9.09909814453125,-0.1544557809829712,-0.4271557331085205,-0.6216201782226562
1761476172375134200,9.10913427734375,-0.1606556475162506,-0.19594237208366394,-0.5772414207458496
1761476172385170200,9.119170166015625,-0.1954232156276703,-0.16641511023044586,-0.4171007573604584
1761476172395206100,9.1292060546875,-0.26274511218070984,-0.29930830001831055,-0.15473532676696777
1761476172405242000,9.1392421875,-0.34273555874824524,-0.46411216259002686,0.15636396408081055
1761476172415278000,9.149278076171875,-0.43357959389686584,-0.5744354128837585,0.43848198652267456
1761476172425314300,9.159314208984375,-0.5486223101615906,-0.5800227522850037,0.6354230046272278
1761476172435350300,9.169350341796875,-0.6682976484298706,-0.4543089270591736,0.7517060041427612
1761476172445386200,9.17938623046875,-0.7453508973121643,-0.20804323256015778,0.8355370163917542
1761476172455422200,9.189422119140625,-0.7478850483894348,0.08123058825731277,0.9157888889312744
1761476172465458200,9.199458251953125,-0.6804969906806946,0.3544014096260071,0.9830965995788574
1761476172475494100,9.209494140625,-0.5697557926177979,0.5564276576042175,1.0172704458236694
1761476172485530000,9.219530029296875,-0.4409056305885315,0.67653888463974,1.0181636810302734
1761476172495566000,9.229566162109375,-0.30032873153686523,0.7197345495223999,0.9954436421394348
1761476172505602000,9.23960205078125,-0.18920409679412842,0.7119442820549011,0.9536794424057007
1761476172515638000,9.249637939453125,-0.12292349338531494,0.6582137942314148,0.9009559154510498
1761476172525674000,9.259674072265625,-0.10601801425218582,0.557025134563446,0.8476450443267822
1761476172535710200,9.269710205078125,-0.14900605380535126,0.4225826561450958,0.7960740923881531
1761476172545746200,9.27974609375,-0.22107891738414764,0.30747681856155396,0.7549124956130981
1761476172555782100,9.2897822265625,-0.2667821943759918,0.26111096143722534,0.7314740419387817
1761476172565818000,9.299818115234375,-0.23321649432182312,0.2865244448184967,0.7296566963195801
1761476172575854000,9.30985400390625,-0.14999932050704956,0.3395753800868988,0.7262951731681824
1761476172585890000,9.31989013671875,-0.09650760143995285,0.37960293889045715,0.6968744397163391
1761476172595926000,9.329926025390625,-0.05445624142885208,0.41449835896492004,0.6108959317207336
1761476172605962000,9.3399619140625,-0.009943898767232895,0.44870853424072266,0.4542522430419922
1761476172615998000,9.349998046875,0.04748385027050972,0.45171359181404114,0.2965049147605896
1761476172626034200,9.3600341796875,0.10530161112546921,0.45426782965660095,0.2108411341905594
1761476172636070100,9.370070068359375,0.16544152796268463,0.4654783010482788,0.21503975987434387
1761476172646106400,9.3801064453125,0.21655584871768951,0.5278249979019165,0.29325973987579346
1761476172656142300,9.390142333984375,0.23983296751976013,0.4025251865386963,0.4255981147289276
1761476172666178300,9.40017822265625,0.25696030259132385,0.1789536029100418,0.5623602271080017
1761476172676214300,9.41021435546875,0.2673616111278534,-0.007676626555621624,0.6904077529907227
1761476172686250200,9.420250244140625,0.29528936743736267,-0.24660958349704742,0.7818402051925659
1761476172696286200,9.4302861328125,0.28121235966682434,-0.6937420964241028,0.69367915391922
1761476172706322200,9.440322265625,0.16542530059814453,-1.1200534105300903,0.3679383397102356
1761476172716358100,9.450358154296875,0.01995639130473137,-1.4105857610702515,-0.1650441586971283
1761476172726394000,9.46039404296875,-0.03696281835436821,-1.35294508934021,-0.7425588965415955
1761476172736430000,9.47043017578125,0.027622699737548828,-0.8266127705574036,-1.1931132078170776
1761476172746466000,9.480466064453125,0.1693425476551056,-0.0125840213149786,-1.4847074747085571
1761476172756502300,9.490502197265625,0.2971537709236145,0.7814592719078064,-1.6249722242355347
1761476172766538200,9.500538330078125,0.37799590826034546,1.2406796216964722,-1.5930439233779907
1761476172776574200,9.51057421875,0.33394405245780945,1.1257444620132446,-1.4036616086959839
1761476172786610200,9.520610107421875,0.1828102171421051,0.5535207390785217,-1.11689031124115
1761476172796646100,9.530646240234375,0.09151168912649155,-0.23032887279987335,-0.7757692337036133
1761476172806682000,9.54068212890625,0.17506010830402374,-0.890991747379303,-0.42030540108680725
1761476172816718000,9.550718017578125,0.28898128867149353,-1.2328276634216309,-0.13665169477462769
1761476172826754000,9.560754150390625,0.3436881899833679,-1.1768499612808228,0.05596329644322395
1761476172836790000,9.5707900390625,0.34115758538246155,-0.9042953848838806,0.15565183758735657
1761476172846826000,9.580825927734375,0.2905314266681671,-0.5131552815437317,0.13045354187488556
1761476172856862000,9.590862060546876,0.23561295866966248,-0.16511188447475433,-0.01633169874548912
1761476172866898200,9.600898193359376,0.14632569253444672,0.015683725476264954,-0.23298092186450958
1761476172876934100,9.61093408203125,0.07039228826761246,-0.009366121143102646,-0.45415419340133667
1761476172886969000,9.620968994140625,0.03266994655132294,-0.14412714540958405,-0.6186174750328064
1761476172897005000,9.631005126953125,0.019533956423401833,-0.29273277521133423,-0.6883312463760376
1761476172907041000,9.641041015625,0.03415657579898834,-0.38202935457229614,-0.6439781188964844
1761476172917077000,9.651076904296875,0.09004765748977661,-0.356798380613327,-0.5047703385353088
1761476172927113000,9.661113037109375,0.16155940294265747,-0.24663914740085602,-0.3196985125541687
1761476172937149000,9.67114892578125,0.19489315152168274,-0.1265787035226822,-0.14275692403316498
1761476172947185200,9.68118505859375,0.19085261225700378,-0.06950077414512634,-0.0004948582500219345
1761476172957221000,9.69122119140625,0.16386207938194275,-0.029221421107649803,0.09637106955051422
1761476172967257000,9.701257080078125,0.12384647876024246,-0.02379576303064823,0.1878674179315567
1761476172977293300,9.711293212890626,0.08054865896701813,-0.04785458743572235,0.2973176836967468
1761476172987329300,9.721329345703126,0.040393248200416565,-0.06835480034351349,0.4374561607837677
1761476172997365200,9.731365234375,0.0005117133259773254,-0.053543876856565475,0.5839830636978149
1761476173007401200,9.741401123046876,-0.008253281936049461,-0.011319992132484913,0.7371941804885864
1761476173017437200,9.751437255859376,0.00775306299328804,0.050544485449790955,0.8696302175521851
1761476173027473200,9.76147314453125,0.027868451550602913,0.16142892837524414,0.9856345653533936
1761476173037509000,9.771509033203126,0.05396813526749611,0.240153968334198,1.0837690830230713
1761476173047545000,9.781545166015626,0.09806981682777405,0.3185374438762665,1.1542946100234985
1761476173057581300,9.791581298828126,0.1358986794948578,0.36223939061164856,1.1854705810546875
1761476173067617300,9.8016171875,0.15129095315933228,0.37381723523139954,1.1987621784210205
1761476173077653200,9.8116533203125,0.13831180334091187,0.3563965857028961,1.2064751386642456
1761476173087689200,9.821689208984376,0.12899073958396912,0.3469218611717224,1.1806485652923584
1761476173097725200,9.83172509765625,0.10653699934482574,0.3772033154964447,1.0980112552642822
1761476173107761200,9.84176123046875,0.039439454674720764,0.47622576355934143,0.9400416016578674
1761476173117797000,9.851797119140626,-0.03724348545074463,0.5861870646476746,0.7453715801239014
1761476173127833000,9.8618330078125,-0.08522991836071014,0.6792280673980713,0.5223920345306396
1761476173137869000,9.871869140625,-0.1353413313627243,0.721488356590271,0.31476783752441406
1761476173147905000,9.881905029296876,-0.17826855182647705,0.6145305037498474,0.21328383684158325
1761476173157940200,9.891940185546876,-0.1845952272415161,0.44996368885040283,0.16207793354988098
1761476173167976200,9.90197607421875,-0.15911036729812622,0.32311946153640747,0.15273982286453247
1761476173178012200,9.91201220703125,-0.09932421147823334,0.23856323957443237,0.16626866161823273
1761476173188048100,9.922048095703126,-0.031077515333890915,0.3395090103149414,0.24190641939640045
1761476173198084000,9.932083984375,0.013007204048335552,0.5422256588935852,0.3224171996116638
1761476173208120000,9.9421201171875,-0.010008633136749268,0.7789830565452576,0.38346511125564575
1761476173218156000,9.952156005859376,-0.05613887682557106,0.6820691227912903,0.31826454401016235
1761476173228192000,9.96219189453125,-0.09265880286693573,0.1235663890838623,0.01262660976499319
1761476173238228000,9.97222802734375,-0.16573232412338257,-0.7696011066436768,-0.5249624848365784
1761476173248264200,9.98226416015625,-0.3242945373058319,-1.4570971727371216,-1.137154221534729
1761476173258300200,9.992300048828126,-0.5014936327934265,-1.4252851009368896,-1.6499552726745605
1761476173268336000,10.002336181640626,-0.607489287853241,-0.710649847984314,-1.9246357679367065
1761476173278372000,10.0123720703125,-0.596142590045929,0.27759429812431335,-1.9978995323181152
1761476173288408000,10.022407958984376,-0.41476237773895264,1.1379003524780273,-2.0006825923919678
1761476173298444000,10.032444091796876,-0.10653434693813324,1.408431887626648,-1.9284971952438354
1761476173308480000,10.04247998046875,0.15114805102348328,1.1834110021591187,-1.703113079071045
1761476173318516200,10.05251611328125,0.25052979588508606,0.6611806750297546,-1.3641117811203003
1761476173328555500,10.062555419921875,0.1783120483160019,0.02276211977005005,-1.0302797555923462
1761476173338591500,10.072591552734375,-0.011942679062485695,-0.6477649211883545,-0.8428393602371216
1761476173348627500,10.08262744140625,-0.09923604130744934,-1.1748186349868774,-0.8354003429412842
1761476173358662700,10.09266259765625,0.040767818689346313,-1.4430416822433472,-0.9126197099685669
1761476173368698600,10.10269873046875,0.25047844648361206,-1.3620834350585938,-0.9484647512435913
1761476173378734600,10.112734619140625,0.32611575722694397,-0.9386741518974304,-0.8253059387207031
1761476173388770600,10.1227705078125,0.17692333459854126,-0.5559712648391724,-0.5873767733573914
1761476173398806500,10.132806640625,-0.11777554452419281,-0.45200225710868835,-0.33874276280403137
1761476173408842800,10.1428427734375,-0.397936075925827,-0.5963615775108337,-0.0745907574892044
1761476173418878700,10.152878662109375,-0.6142563819885254,-0.9285827279090881,0.17205986380577087
1761476173428914700,10.162914794921875,-0.7640053629875183,-1.2708865404129028,0.2509040832519531
1761476173438950700,10.17295068359375,-0.7587566375732422,-1.3874716758728027,0.15169525146484375
1761476173448987000,10.18298681640625,-0.6123064756393433,-1.196972131729126,-0.02895735204219818
1761476173459022800,10.19302294921875,-0.40729066729545593,-0.8125372529029846,-0.26317986845970154
1761476173469058800,10.203058837890625,-0.19927407801151276,-0.34288451075553894,-0.5103102922439575
1761476173479094800,10.2130947265625,-0.03210320323705673,0.04363361373543739,-0.7080140113830566
1761476173489130800,10.223130859375,0.10774204879999161,0.24491532146930695,-0.7947164177894592
1761476173499166700,10.233166748046875,0.21876828372478485,0.2703534960746765,-0.7418767213821411
1761476173509201700,10.24320166015625,0.29374533891677856,0.19428403675556183,-0.6001430153846741
1761476173519237600,10.253237548828125,0.33164432644844055,0.0869225338101387,-0.4047771990299225
1761476173529273900,10.26327392578125,0.33567342162132263,-0.012012832798063755,-0.12437988817691803
1761476173539309800,10.273309814453125,0.34293171763420105,-0.020340600982308388,0.2551729381084442
1761476173549345800,10.283345703125,0.3599706292152405,-0.003443376626819372,0.677446722984314
1761476173559381800,10.2933818359375,0.3676214814186096,-0.05751541629433632,0.9559967517852783
1761476173569417700,10.303417724609375,0.38707056641578674,-0.024872787296772003,1.1045851707458496
1761476173579453700,10.31345361328125,0.30030325055122375,0.4632764160633087,1.2472060918807983
1761476173589489700,10.32348974609375,0.22583062946796417,0.6838216185569763,1.223026990890503
1761476173599525600,10.333525634765625,0.1535312533378601,0.6746360063552856,1.1074728965759277
1761476173609561600,10.3435615234375,0.07943332195281982,0.6346331834793091,0.9783892035484314
1761476173619597600,10.35359765625,0.02992938831448555,0.49852320551872253,0.8646848797798157
1761476173629633800,10.3636337890625,0.020697809755802155,0.36536940932273865,0.816990315914154
1761476173639669800,10.373669677734375,0.029506802558898926,0.29316896200180054,0.8092598915100098
1761476173649704700,10.38370458984375,0.02507983148097992,0.29586195945739746,0.8170866966247559
1761476173659740700,10.39374072265625,0.005183958448469639,0.38067230582237244,0.8480178117752075
1761476173669776600,10.403776611328125,-0.0386548675596714,0.548417866230011,0.8867825269699097
1761476173679812600,10.4138125,-0.12587891519069672,0.7138607501983643,0.8986515402793884
1761476173689848600,10.4238486328125,-0.24624048173427582,0.8447455167770386,0.8745118379592896
1761476173699884500,10.433884521484375,-0.35860884189605713,0.885040283203125,0.8452832698822021
1761476173709920800,10.443920654296875,-0.3918544054031372,0.7900815010070801,0.8382101655006409
1761476173719956700,10.453956787109375,-0.32101204991340637,0.5906401872634888,0.8302119374275208
1761476173729992700,10.46399267578125,-0.16891786456108093,0.4172638952732086,0.772874653339386
1761476173740028700,10.474028564453125,-0.013655301183462143,0.3061525523662567,0.6500599980354309
1761476173750064600,10.484064697265625,0.0806962326169014,0.22862979769706726,0.43226033449172974
1761476173760100600,10.4941005859375,0.09402642399072647,0.14850406348705292,0.18443986773490906
1761476173770136600,10.504136474609375,0.029011204838752747,0.023971185088157654,-0.04728497937321663
1761476173780171500,10.514171630859375,-0.07752680778503418,-0.16857501864433289,-0.2073579579591751
1761476173790207700,10.524207763671875,-0.16273225843906403,-0.3179551661014557,-0.2919061481952667
1761476173800243700,10.53424365234375,-0.19898982346057892,-0.28229057788848877,-0.3878447413444519
1761476173810279700,10.54427978515625,-0.17760969698429108,-0.1560029536485672,-0.5556588172912598
1761476173820315600,10.554315673828125,-0.09479686617851257,-0.019626416265964508,-0.7881423830986023
1761476173830351600,10.5643515625,0.004297227598726749,0.07404627650976181,-1.0451909303665161
1761476173840387600,10.5743876953125,0.042282313108444214,0.03206028416752815,-1.25058114528656
1761476173850423600,10.584423583984375,0.04232172667980194,-0.032736554741859436,-1.297677755355835
1761476173860459500,10.59445947265625,0.043061017990112305,-0.09350962191820145,-1.2364439964294434
1761476173870495700,10.604495849609375,0.03667768836021423,-0.09968602657318115,-1.1794264316558838
1761476173880531700,10.61453173828125,0.0437709242105484,0.05958225578069687,-1.131799340248108
1761476173890566700,10.624566650390625,0.01051363255828619,0.29787445068359375,-1.0445137023925781
1761476173900602600,10.6346025390625,-0.08359522372484207,0.41343095898628235,-0.9127113223075867
1761476173910638600,10.644638671875,-0.18254204094409943,0.4805428981781006,-0.7940062284469604
1761476173920674800,10.6546748046875,-0.2248985767364502,0.4597049951553345,-0.7483575344085693
1761476173930710800,10.664710693359375,-0.22811567783355713,0.329694539308548,-0.7975333333015442
1761476173940746800,10.674746826171875,-0.18973153829574585,0.13316215574741364,-0.8943142890930176
1761476173950782700,10.68478271484375,-0.11344262957572937,-0.05867091566324234,-0.9858516454696655
1761476173960818700,10.694818603515625,-0.042280811816453934,-0.1487210988998413,-1.0099728107452393
1761476173970854700,10.704854736328125,0.0025178203359246254,-0.09228897094726562,-0.9458248019218445
1761476173980890600,10.714890625,-0.038748081773519516,0.0730733573436737,-0.781480073928833
1761476173990926800,10.7249267578125,-0.12970516085624695,0.16660091280937195,-0.562105655670166
1761476174000961800,10.7349619140625,-0.24326160550117493,0.15326718986034393,-0.35020846128463745
1761476174010997800,10.744997802734375,-0.3295519948005676,0.09257349371910095,-0.1617530882358551
1761476174021033700,10.75503369140625,-0.37881988286972046,-0.08246895670890808,0.01275612972676754
1761476174031069700,10.765069580078125,-0.39712005853652954,-0.30921635031700134,0.16568097472190857
1761476174041105700,10.775105712890625,-0.3960907757282257,-0.48232191801071167,0.22292304039001465
1761476174051141600,10.7851416015625,-0.4149472713470459,-0.5336306691169739,0.19884486496448517
1761476174061177900,10.795177734375,-0.3874092400074005,-0.5259364247322083,0.18035218119621277
1761476174071213800,10.8052138671875,-0.26933667063713074,-0.48073408007621765,0.20410437881946564
1761476174081249800,10.815249755859375,-0.13709110021591187,-0.41107988357543945,0.27352213859558105
1761476174091285800,10.82528564453125,-0.04745681211352348,-0.37414050102233887,0.3540489375591278
1761476174101320700,10.83532080078125,-0.019790159538388252,-0.37321698665618896,0.4518153667449951
1761476174111356700,10.845356689453125,-0.025682669132947922,-0.37147819995880127,0.5225297212600708
