time,seconds_elapsed,z,y,x
1761475491845639400,0.075639404296875,-0.4915238725155592,0.11932605212628841,-0.23446868108808994
1761475491855616300,0.0856162109375,-0.4388637109518051,0.14516491532512008,-0.3049376171953976
1761475491865593300,0.09559326171875,-0.2535147423416376,0.1385680012781173,-0.21136662244200705
1761475491875571200,0.1055712890625,0.014879589223861693,0.11573825676739215,-0.07189319675676524
1761475491885548300,0.11554833984375,0.2748211497426033,0.07658537316098808,0.046097368982061744
1761475491895525400,0.125525390625,0.4765566050082445,0.04238061348125338,0.11292436839044094
1761475491905502200,0.135502197265625,0.5432026218265295,-0.02390855272337794,0.1860145198468119
1761475491915480300,0.145480224609375,0.4809352584838867,-0.03482318383902311,0.17907288401536642
1761475491925457000,0.155456787109375,0.3405149804025888,0.014110212286561726,0.1221613486174494
1761475491935434000,0.16543408203125,0.20908990968167782,0.0837029500812292,0.006347834656760096
1761475491945411800,0.175411865234375,0.06706511901319026,0.17296908724755047,-0.11131773691140115
1761475491955389000,0.185388916015625,-0.05565466720461845,0.15025354370102287,-0.15975611606165765
1761475491965365800,0.19536572265625,-0.1454950971275568,0.16417371330820024,-0.1667578115172684
1761475491975343000,0.205343017578125,-0.2510445528358221,0.15356551779322325,-0.18374007210880516
1761475491985321000,0.215321044921875,-0.3900596402943134,0.06117211545184254,-0.07403335059061646
1761475491995297800,0.2252978515625,-0.4594067327648401,0.08926650249250233,-0.08666545314863323
1761475492005275100,0.235275146484375,-0.4054273052960634,0.1948239223115146,-0.1320716980613768
1761475492015252000,0.245251953125,-0.25503333021104335,0.21365407579205928,-0.09246025703251361
1761475492025229800,0.255229736328125,-0.08270867834687233,0.17267061575762926,-0.03580108896046877
1761475492035207000,0.26520703125,0.05153612596988678,0.09302812004834413,0.01367196699976921
1761475492045184000,0.27518408203125,0.19298808518648147,0.012648907562345265,0.04307327192053199
1761475492055161000,0.2851611328125,0.22820786712765692,-0.09005195378176867,0.05394128741547465
1761475492065139000,0.295138916015625,0.27322365141808985,-0.10064480559714138,0.07960837424397468
1761475492075116000,0.305115966796875,0.30346973659992216,-0.05041961609534919,0.11791545467600226
1761475492085093000,0.315093017578125,0.27687632870674134,-0.01554689402617514,0.14989523178264497
1761475492095070000,0.325070068359375,0.20040099179148674,-0.030719328716769814,0.2169602046653628
1761475492105048000,0.335048095703125,0.10051379962861537,-0.02682977393232286,0.25609920587688684
1761475492115025200,0.345025146484375,0.018271569749712942,-0.0033346973806619644,0.2169371891159564
1761475492125002000,0.355001953125,-0.059742228779196736,0.034878567288070914,0.16959230429083108
1761475492134979800,0.364979736328125,-0.11556699185371398,0.04922945646271109,0.16521343161948024
1761475492144957000,0.37495703125,-0.1317909814238548,0.059955871529877185,0.142322312310338
1761475492154934000,0.38493408203125,-0.22216098817884922,0.047521483501046895,0.04116838814727962
1761475492164911000,0.3949111328125,-0.2911766567379236,0.06120528706908226,-0.0776817900955677
1761475492174889000,0.404888916015625,-0.29500995129048824,0.024914661026000977,-0.09877207052782178
1761475492184866000,0.414865966796875,-0.2384434299379587,0.03122252899855375,-0.09424589834026992
1761475492194843100,0.424843017578125,-0.1905067897647619,0.039392829842120405,-0.12870076032355426
1761475492204820000,0.434820068359375,-0.18883213455080985,-0.00821691646426916,-0.1168869153458625
1761475492214798000,0.444798095703125,-0.18373042749762533,-0.0007264145784080028,-0.16653050556741653
1761475492224775000,0.45477490234375,-0.18977672192454337,0.012764058374613522,-0.19414858033321797
1761475492234752000,0.464751953125,-0.18569442104697226,0.00720569359511137,-0.1797471300151199
1761475492244729000,0.47472900390625,-0.12528934444487094,0.013250965108722448,-0.14934088583551347
1761475492254707000,0.48470703125,-0.029879589956998822,0.0010655834048986434,-0.14502024615742265
1761475492264684000,0.49468408203125,0.016038111609220505,-0.027246903365850447,-0.11897307397015391
1761475492274660900,0.504660888671875,0.021319266882538795,-0.04193944558501243,-0.13504055780433116
1761475492284638000,0.514637939453125,0.05794482396841049,-0.034820553490519525,-0.1358197985485196
1761475492294616000,0.524615966796875,0.07102233220636844,-0.03027954906001687,-0.11775171548165381
1761475492304593000,0.534593017578125,0.12022680035829543,-0.017630641497671604,-0.08065335325226188
1761475492314570000,0.544570068359375,0.16064356642067432,-0.00812193165719509,-0.08925123185813426
1761475492324547000,0.554547119140625,0.16756372107267378,-0.01539163039922714,-0.11008929109498858
1761475492334525000,0.56452490234375,0.181138657438755,-0.0111855570115149,-0.10776479367017745
1761475492344502000,0.574501953125,0.17339900309741496,-0.014500380647927523,-0.08922763178683817
1761475492354478800,0.584478759765625,0.12554068885743616,-0.020933190174400804,-0.06279029123820364
1761475492364456000,0.5944560546875,0.06224281342327594,-0.011257599334418772,-0.060211453726142644
1761475492374434000,0.60443408203125,-0.010453589475154876,-0.001773877804726362,-0.09283376652002334
1761475492384411000,0.614410888671875,-0.07093582296669483,0.01915931236967444,-0.15344795582816004
1761475492394388000,0.624387939453125,-0.09440262327194213,0.018568653000146148,-0.19473375981003044
1761475492404366000,0.634365966796875,-0.10265139617919922,0.018679273767769334,-0.21582542848177252
1761475492414343000,0.644343017578125,-0.0996931308954954,-0.014109335503727196,-0.19936215026304124
1761475492424320000,0.654320068359375,-0.1217144085675478,-0.01300181265324354,-0.1920541653372347
1761475492434296800,0.664296875,-0.09932546662688255,0.008146335446089505,-0.1689530565392226
1761475492444275000,0.67427490234375,-0.045962125229835504,0.06494505811929703,-0.13282098205871878
1761475492454252000,0.684251953125,0.046751814302802085,0.10536942296624183,-0.06470956886298954
1761475492464228900,0.694228759765625,0.06934007820785046,0.09259966550320387,-0.03563070082962513
1761475492474206000,0.7042060546875,0.051604515030980104,0.05026902864351868,0.0003386573698371649
1761475492484184000,0.71418408203125,0.024538228929042814,0.05196837990731001,-0.011048486628383397
1761475492494161000,0.724160888671875,0.054530047088861465,0.08387772212624549,-0.0098414489261806
1761475492504138000,0.734137939453125,0.0898947904586792,0.08686579802632331,0.017731033132225273
1761475492514114800,0.74411474609375,0.12397767732441424,0.04923632459491491,0.08793941860720515
1761475492524093000,0.754093017578125,0.12133797647058964,-0.0069086103446781635,0.1310522188205272
1761475492534070000,0.764070068359375,0.14194471116960047,-0.02528729373067617,0.12787694978527725
1761475492544046800,0.774046875,0.15339958664178846,-0.0078634268514812,0.12176190097108483
1761475492554024000,0.78402392578125,0.14716507616639135,-0.011602321118861437,0.14540376558229326
1761475492564002000,0.794001953125,0.10935060155689716,-0.0027853929348289966,0.1942271254621446
1761475492573979000,0.803978759765625,0.0292705181479454,0.01907850221842527,0.2144615927826613
1761475492583956000,0.8139560546875,0.030205753171443937,0.06604015987962485,0.16520064520314334
1761475492593932800,0.823932861328125,0.06136836867630481,0.08833996223211288,0.14147124843895434
1761475492603911000,0.833910888671875,0.10138765985369681,0.08706614290401339,0.18659604606181382
1761475492613888000,0.843887939453125,0.10564707086384295,0.06790697666481137,0.23951237434372305
1761475492623864800,0.85386474609375,0.08529635675251483,0.04929755326285958,0.2250853511929512
1761475492633842000,0.863842041015625,0.03181318836808204,0.0561667083799839,0.21084932056963443
1761475492643820000,0.873820068359375,-0.03652385027706623,0.10099690697044134,0.18853563582226632
1761475492653796900,0.883796875,-0.07538812620043754,0.11690803119912743,0.17633030730895696
1761475492663774000,0.89377392578125,-0.08586743463873862,0.12477481905147432,0.17019216988012192
1761475492673750800,0.903750732421875,-0.06863572933077812,0.1250844695225358,0.17201777787208555
1761475492683729000,0.91372900390625,-0.027989830687642096,0.10303571932166815,0.16239881259016692
1761475492693706000,0.9237060546875,-0.04134557134509086,0.07883943569809197,0.13895656220428645
1761475492703682800,0.933682861328125,-0.06207213303148746,0.0701046328395605,0.13576368444710968
1761475492713661000,0.943660888671875,-0.0702051706045866,0.12539148964509367,0.11805449782051146
1761475492723638000,0.953637939453125,-0.0878121389657259,0.16133490968570113,0.09496719835214316
1761475492733614800,0.96361474609375,-0.13510229792892933,0.13225085402056574,0.06306896204911172
1761475492743592000,0.973592041015625,-0.1966460231721401,0.15245353796333075,0.0186567696750164
1761475492753569800,0.98356982421875,-0.19038170208036898,0.1944714556120336,-0.03546571952626109
1761475492763547000,0.993546875,-0.11251052689254283,0.2006567201182246,-0.03455941833630204
1761475492773524000,1.00352392578125,0.014749825364351273,0.18074921972975133,-0.030690102622285484
1761475492783500800,1.013500732421875,0.08729074544012547,0.1252478433907032,0.00564596999771893
1761475492793479000,1.02347900390625,0.11165069519281387,0.06551423630937933,0.05091434080973267
1761475492803455700,1.033455810546875,0.06899754838049411,0.04066518786549568,0.03679258421584963
1761475492813432800,1.043432861328125,0.03916062852144241,0.06370937884449958,-0.005416252895072102
1761475492823410000,1.053409912109375,0.04921966572105884,0.06756459296792745,-0.05249211152046918
1761475492833387800,1.0633876953125,0.02223053650856018,0.05628025175705552,-0.08690379194915294
1761475492843364900,1.07336474609375,0.06055705229341984,0.04800926701799035,-0.12031133683659136
1761475492853342000,1.083342041015625,0.1024514896929264,0.04726999295800924,-0.1500851283315569
1761475492863319000,1.093319091796875,0.09735913498997688,0.019054682951420543,-0.08584514974169433
1761475492873297000,1.103296875,0.07786532996892928,-0.001440700327605009,-0.0405221991982311
1761475492883273700,1.113273681640625,0.07177636544406414,0.061003919278085225,-0.06885514423511922
1761475492893250800,1.123250732421875,0.07239011342823505,0.10394435859918594,-0.1493978767197579
1761475492903228200,1.133228271484375,0.0575216301202774,-0.00629398557767272,-0.09470540561079978
1761475492913205800,1.143205810546875,0.06736322517693043,-0.0975888520926237,-0.05852306224778294
1761475492923182800,1.153182861328125,0.05191898780763149,-0.11160276439785957,-0.10822130526602268
1761475492933160400,1.163160400390625,0.05750935516059398,-0.08935776097252965,-0.14445932433903216
1761475492943137300,1.17313720703125,0.027146365600824354,-0.06136909932866692,-0.11404314328730106
1761475492953115400,1.183115478515625,-0.03815057469606399,-0.05819543772861361,-0.06910575799532234
1761475492963092500,1.193092529296875,-0.1098240642875433,-0.05134644861668348,-0.043486748092249033
1761475492973069300,1.2030693359375,-0.16703882041573523,-0.0028654724337160587,-0.054790378525480625
1761475492983046700,1.213046630859375,-0.20681845761835574,-0.01104424884468317,-0.04680303303338587
1761475492993024500,1.2230244140625,-0.19084931959211826,-0.02261427512913942,-0.0499991256609559
1761475493003001300,1.23300146484375,-0.16875146955251694,-0.026835692216455934,-0.04779854687675834
1761475493012978400,1.242978515625,-0.16969313431680202,-0.04319178373366594,-0.053033524920791386
1761475493022955500,1.25295556640625,-0.1979921770840883,-0.05227788424789905,-0.05796762032210827
1761475493032933400,1.262933349609375,-0.2120925986289978,-0.0002896305963397026,-0.045471565233916045
1761475493042910500,1.272910400390625,-0.19189035307765007,0.024871844797581432,-0.010898922089859842
1761475493052887600,1.282887451171875,-0.15258300956189633,0.039784021116793154,0.013063406647369265
1761475493062864600,1.29286474609375,-0.10111994882822035,0.04099091268852353,0.02520538760088384
1761475493072842500,1.302842529296875,-0.037438042512536046,0.059379240685701364,0.023712518694624304
1761475493082819600,1.312819580078125,0.019821137279272077,0.07188698621168732,0.01762428482212126
1761475493092796700,1.322796630859375,0.05972995381951332,0.06977306279763579,0.03158398272208869
1761475493102773500,1.3327734375,0.042213001829385755,0.08143588193207979,0.061401613358780735
1761475493112751400,1.34275146484375,0.03207096252143383,0.11213511770889162,0.06232004337795079
1761475493122728700,1.352728759765625,0.05902794302999973,0.117306090606004,0.0570632188282907
1761475493132705500,1.36270556640625,0.10310907681882381,0.10934972477406263,0.043241468094289304
1761475493142682600,1.3726826171875,0.11412906800508499,0.08898717409446835,0.02705189225040376
1761475493152660500,1.382660400390625,0.10956745917797088,0.08071268222406507,-0.012290741774439812
1761475493162637600,1.392637451171875,0.0983779566437006,0.08515724054276942,-0.015378332526236771
1761475493172614700,1.40261474609375,0.11538695911169052,0.10547288334071636,0.007939780023321508
1761475493182591500,1.412591552734375,0.1285018767505884,0.10189750907197594,0.03823649941384792
1761475493192569600,1.422569580078125,0.12470189994573593,0.08257832996547222,0.0636068683180958
1761475493202546700,1.432546630859375,0.06613923633992672,0.04952843940928578,0.06923669089861213
1761475493212523500,1.4425234375,0.043754970574378965,0.042279491194337604,0.009421177687495947
1761475493222500600,1.45250048828125,0.04680208318531513,0.055455491370707745,-0.03490991227440536
1761475493232478500,1.462478515625,0.06583586947917938,0.033975919359922405,-0.05125219446197152
1761475493242455600,1.47245556640625,0.08186229065060616,-0.024963760864734647,-0.02633205354325473
1761475493252432600,1.4824326171875,0.0742921476572752,-0.06984218251109123,0.00333075185790658
1761475493262409500,1.492409423828125,0.05058043268024921,-0.08279051141142844,0.0007190349895507097
1761475493272387600,1.5023876953125,-0.011098901641368866,-0.06354454367160797,0.010012640774622559
1761475493282364400,1.512364501953125,-0.07085223633646964,-0.030566841568797826,-0.013934490393474698
1761475493292341500,1.522341552734375,-0.10640168862342834,-0.0272445652782917,-0.05491634299270808
1761475493302318600,1.532318603515625,-0.10054185667932033,-0.012083528764545918,-0.044190220186486835
1761475493312296400,1.54229638671875,-0.10694997015595435,-0.013919073628634213,0.004591419443488121
1761475493322273500,1.5522734375,-0.10196809009015559,-0.024595073682814834,0.02616860660985112
1761475493332250600,1.562250732421875,-0.13435001825690268,-0.01427826232984662,0.050049759869650004
1761475493342227500,1.5722275390625,-0.20299334637224672,0.010161766921728849,0.04643756072185933
1761475493352205600,1.58220556640625,-0.18287176484167575,0.05478840576410293,0.007635755575448274
1761475493362182400,1.592182373046875,-0.14087795872092246,0.06643968059122562,0.01685191221013665
1761475493372159500,1.602159423828125,-0.10296002373695373,0.02547799399718642,0.03711823597364127
1761475493382136600,1.612136474609375,-0.07553250310719013,0.017962211539596318,0.07894187315925956
1761475493392114400,1.622114501953125,-0.053553895533084865,0.028277561587840318,0.09526545064635575
1761475493402091500,1.632091552734375,-0.0058282677620649335,0.04063713081479072,0.10967734929323196
1761475493412068400,1.642068359375,-0.0006722001731395721,0.06552928774803876,0.11185651996321976
1761475493422045400,1.65204541015625,0.010772153905034065,0.07981792534142731,0.1340395640682429
1761475493432023600,1.6620234375,0.03025660657584667,0.0566176670178771,0.13768361965902148
1761475493442000400,1.67200048828125,0.03601473171114921,0.06259469560086726,0.11215813325829803
1761475493451977500,1.6819775390625,0.06614215894937515,0.048992286705970764,0.06608655630461871
1761475493461954600,1.69195458984375,0.0972141735613346,0.028559593399614093,0.05792590007223188
1761475493471932400,1.701932373046875,0.124293319144845,-0.0016452829889953135,0.04455591169372201
1761475493481909500,1.711909423828125,0.1422661982089281,-0.005575315914303064,0.053074295322597026
1761475493491886300,1.72188623046875,0.137499422198534,0.0220902512550354,0.07622413863316178
1761475493501863400,1.731863525390625,0.12128829210996626,0.023511223968863487,0.09675926940068602
1761475493511841500,1.741841552734375,0.08594634509384631,0.028586481406539677,0.07447839094437658
1761475493521818400,1.751818359375,0.06129354987442493,0.03151829707473516,0.02052095611169934
1761475493531795500,1.76179541015625,0.046616789746284484,0.009007482320070266,0.007768588174879551
1761475493541772500,1.7717724609375,0.005025134685635566,0.014106412894278764,-0.022512568320333957
1761475493551750400,1.78175048828125,0.0165349552154541,0.022779110302031037,0.005799918450415134
1761475493561727500,1.7917275390625,0.022778818041086196,0.030141455763578413,0.004697144840285182
1761475493571704300,1.801704345703125,0.016077274575829505,0.03027969519048929,0.03771978206336498
1761475493581681400,1.811681396484375,-0.03569616728127002,0.04018412635028362,0.05087152458131313
1761475493591659500,1.821659423828125,-0.08404957156181335,0.07450842075645923,0.033359906353428954
1761475493601636400,1.83163623046875,-0.10107786325216293,0.0775137400522828,0.02009462045840919
1761475493611613400,1.841613525390625,-0.113287941005826,0.06902823577970266,0.010627411672100424
1761475493621590300,1.85159033203125,-0.09832242706418037,0.06547536560371518,0.00038395781628787517
1761475493631568400,1.861568359375,-0.0779863260000944,0.05681845028698444,-0.025299130298942325
1761475493641545500,1.87154541015625,-0.034654549273848534,0.0373627853192389,-0.00785122495703399
1761475493651522300,1.881522216796875,-0.018485504761338232,0.01887114307805896,0.012339622417464852
1761475493661499400,1.89149951171875,0.0063052376240491865,0.02856646153181791,0.010426482272520661
1761475493671477500,1.9014775390625,0.008829787665605545,0.029272563974559306,-0.01549618675224483
1761475493681454300,1.911454345703125,0.015875030001997945,0.008117840003967284,0.003475713286548853
1761475493691431400,1.921431396484375,0.03337327729165554,-0.04277691932246089,0.027720731422677634
1761475493701408500,1.931408447265625,0.04970598793327808,-0.03331920901685953,0.00642184974104166
1761475493711386400,1.941386474609375,0.022490064227581024,-0.021667203537374734,-0.012910188847035169
1761475493721363500,1.951363525390625,-0.012075637719035148,-0.015211305396258831,-0.009450184586271643
1761475493731340300,1.96134033203125,-0.0331657720208168,0.01136558975353837,-0.008287497482448817
1761475493741317600,1.971317626953125,-0.056523266732692715,0.02737666722536087,0.02041252730116248
1761475493751295500,1.98129541015625,-0.06116203244924545,0.052066871845722194,0.04077390893697738
1761475493761272300,1.991272216796875,-0.05316928012967109,0.06499430408850312,0.0633692601699382
1761475493771249400,2.00124951171875,-0.05308160184621811,0.05697437150105834,0.04902472767084837
1761475493781226500,2.0112265625,-0.061010641279816626,0.04009820163249969,0.017194880428910254
1761475493791204400,2.021204345703125,-0.027433950370550155,0.05099924261420965,-0.01592434903644025
1761475493801181400,2.031181396484375,-0.014306173250079154,0.023249504292756316,-0.03741692665927112
1761475493811158500,2.041158447265625,-0.013764905980229378,0.013198065877705811,-0.019851020960882305
1761475493821135600,2.051135498046875,-0.012356792747974394,0.0287803965434432,0.011932137595117092
1761475493831113500,2.061113525390625,0.0009586158990859985,0.05720101986378431,0.014835238625481724
1761475493841090600,2.071090576171875,0.0076303487479686734,0.04812441783025861,0.0264641554903239
1761475493851067600,2.081067626953125,-0.01824468174278736,0.04696326509639621,0.009969459220021962
1761475493861044500,2.09104443359375,-0.03468728249967098,0.07066475094035267,-0.022350071235001087
1761475493871022300,2.101022216796875,-0.044859716945886606,0.11102964068502187,-0.032607918942347165
1761475493880999700,2.110999755859375,-0.03440495842695236,0.10428060481622814,-0.013587503586709498
1761475493890976500,2.1209765625,-0.011672902137041091,0.0918093919083476,0.028942309106886385
1761475493900953600,2.13095361328125,0.017156886506080625,0.07637363010644913,0.016374503956735134
1761475493910931700,2.140931640625,0.03247545166909695,0.07158771100416779,0.0003019786212593317
1761475493920908500,2.150908447265625,0.05187631770968437,0.07666691396459936,0.0195087103292346
1761475493930885000,2.160885009765625,0.07799041765332222,0.05584376003593206,0.007445639830827713
1761475493940862200,2.1708623046875,0.07074760691821574,0.04690393612459302,0.020803572445362805
1761475493950839300,2.18083935546875,0.051206455624103545,0.0579921702414751,0.003705868780612945
1761475493960817200,2.190817138671875,0.05599544346630573,0.07610285034105181,0.006414031760767102
1761475493970794200,2.200794189453125,0.05936755024790764,0.0794585905097425,0.058082405808195466
1761475493980771300,2.210771240234375,0.07125321835279465,0.0720826549142599,0.09131466719396412
1761475493990748200,2.220748046875,0.03193418439924717,0.050684331446141,0.08159516414701938
1761475494000726300,2.230726318359375,0.042943069669604296,0.051098026813566684,0.06793810245543717
1761475494010703000,2.240703125,0.015886135917901993,0.0654687897324562,0.052519437918812036
1761475494020680200,2.25068017578125,0.03854804958105087,0.03618848084285855,0.05338540709838271
1761475494030657300,2.2606572265625,0.03828443020880222,0.01708878970593214,0.04660334574282169
1761475494040635100,2.27063525390625,0.041782209196686744,-0.004588789094984531,0.05454093380905688
1761475494050612200,2.2806123046875,0.042133506852388376,0.00786269619911909,0.05304382711909711
1761475494060589000,2.290589111328125,0.024170564660429952,0.01652604125663638,0.052095148092135786
1761475494070566100,2.300566162109375,-0.007957096484303474,0.019798048664629458,0.036974516654014584
1761475494080544300,2.310544189453125,-0.020150223103165624,0.041508068430423734,0.042672655230388046
1761475494090521000,2.32052099609375,-0.03659340838193893,0.06557122719362378,0.043241468094289304
1761475494100498200,2.330498291015625,-0.056691024515032766,0.04127513645738363,0.026477014971897004
1761475494110475300,2.340475341796875,-0.0578571456849575,0.04759337969347834,0.028979280116409063
1761475494120453000,2.350453125,-0.0816466020733118,0.06011047756969928,0.0449886040225625
1761475494130430200,2.36043017578125,-0.08178571828305721,0.07811068303212523,0.04267915803641081
1761475494140407000,2.370406982421875,-0.05062953251898288,0.08503565998971462,0.05822875547632575
1761475494150384000,2.380384033203125,-0.02612695942521095,0.05794935401305556,0.036330081270635126
1761475494160362200,2.3903623046875,-0.0018821604847908018,0.036812896351516244,0.03211019855327904
1761475494170339000,2.400339111328125,-0.0030950434058904645,0.008939385519921779,0.0044007191769778724
1761475494180316200,2.410316162109375,-0.01927811644375324,0.02070098885372281,0.0008086129691451787
1761475494190293200,2.420293212890625,-0.004987140762805938,0.05937777938097715,0.005011471486464142
1761475494200271000,2.43027099609375,-0.011328618744015693,0.06260960090905428,0.010397256178036331
1761475494210248200,2.440248291015625,-0.0013210194706916808,0.04871873046159744,0.00787504422403872
1761475494220225000,2.45022509765625,-0.023928572598099707,0.013526567179709672,0.008851707236468791
1761475494230202000,2.4602021484375,-0.03617781331837177,0.02039820651486516,-0.04396371795423329
1761475494240179200,2.47017919921875,0.020513795718550682,0.022992606922239065,-0.06661795976758003
1761475494250157000,2.480156982421875,0.07546236048042773,0.00531578819528222,-0.052042321926355356
1761475494260134100,2.490134033203125,0.08963058656454086,-0.028344050952792167,-0.021189722218737005
1761475494270111000,2.500111083984375,0.09611293432116508,-0.06124298873096704,0.004912760352343321
1761475494280088000,2.510088134765625,0.10534428852498531,-0.03230813227817416,-0.03765329269841313
1761475494290066200,2.520066162109375,0.10506956323683261,-0.012626111208647489,-0.06055296064019203
1761475494300043000,2.53004296875,0.08726385743319988,-0.0021202070243656634,-0.050248058920726174
1761475494310020000,2.54002001953125,0.06172726511657237,-0.005545213036984205,0.015170973385870456
1761475494319997200,2.5499970703125,0.03777355807721615,0.009984802919626235,0.04255553165674209
1761475494329975000,2.55997509765625,0.006003039807081222,0.0263264275200665,0.05706109993644058
1761475494339952000,2.5699521484375,-0.024781390035152433,0.06445712847188115,0.0647754006408155
1761475494349929200,2.57992919921875,-0.08549450967311858,0.046836277715861796,0.033373204226419324
1761475494359906300,2.58990625,-0.11964110942482947,0.03413739353194833,0.033796544205024835
1761475494369884200,2.59988427734375,-0.13048866665363312,0.03269406285583973,-0.0016056085657328366
1761475494379861000,2.609861083984375,-0.14644026902318,0.022849252928793428,0.010331862791627644
1761475494389838300,2.61983837890625,-0.12542787613272666,0.04060089045763016,0.02542838270179927
1761475494399815200,2.629815185546875,-0.08617723124027252,0.06125716338679194,0.060310968577861786
1761475494409793000,2.63979296875,-0.06222118611335754,0.062140522092580794,0.1049756744083017
1761475494419770400,2.649770263671875,-0.0269745161652565,0.05184840678945184,0.12622794046923516
1761475494429747200,2.659747314453125,-0.011612111860513686,0.06258037481456995,0.10845818276181816
1761475494439724300,2.669724365234375,-0.008138882791996002,0.05667115077078342,0.08012691822536289
1761475494449702100,2.6797021484375,-0.04989771111309528,0.08177753497660159,0.05379720276966691
1761475494459679200,2.68967919921875,-0.04470715673267841,0.11294044274240732,0.04930142572037875
1761475494469656300,2.69965625,-0.02273205628991127,0.11057181391492485,0.0590210018325597
1761475494479633200,2.709633056640625,0.039918753412365914,0.08905322506800294,0.06351064140200614
1761475494489610200,2.7196103515625,0.08724047655761241,0.06786226074025034,0.07421447931118309
1761475494499588400,2.72958837890625,0.08374445113539696,0.0328761414244771,0.04154708526656031
1761475494509565200,2.739565185546875,0.07449497675299643,0.02663373990356922,-0.010417422183230518
1761475494519542300,2.749542236328125,0.08919628680050373,0.042657969117909665,0.015036533351242541
1761475494529519000,2.75951904296875,0.0924959128677845,0.054741059491038316,0.03537446104623377
1761475494539497200,2.769497314453125,0.08348258532881736,0.06645356298610568,0.05837481288351118
1761475494549474300,2.779474365234375,0.08077917158901692,0.08044234085008502,0.08162270974107086
1761475494559451100,2.789451171875,0.04549100058674812,0.09681903676390648,0.05658076907359063
1761475494569428200,2.79942822265625,-0.001765256106853485,0.08444368544593453,0.018697832337766885
1761475494579406300,2.80940625,-0.0007359130591154098,0.07906637632176279,-0.022396906051412223
1761475494589383200,2.819383056640625,0.01661912636756897,0.028683658170700073,-0.018244974003732203
1761475494599360300,2.8293603515625,0.05646013836860656,0.0040104046851396555,-0.004238368222117424
1761475494609337000,2.839337158203125,0.09680559276044368,-0.028296996940672395,0.020568375450000165
1761475494619315200,2.849315185546875,0.06461831038296223,-0.038285160861164326,0.04871113167703151
1761475494629292300,2.859292236328125,0.02085457198023796,0.005073650002479553,0.038726255692169066
1761475494639269000,2.86926904296875,-0.04853928224146366,0.03583089957684278,0.01841141661182046
1761475494649246200,2.87924609375,-0.10778349837064742,0.05516644529625773,0.005804448495060205
1761475494659224300,2.889224365234375,-0.1266553721010685,0.036666327487677335,-0.005820449781790376
1761475494669201200,2.899201171875,-0.14044248991310596,0.018386282170563935,-0.008612637783586978
1761475494679178200,2.90917822265625,-0.11638239988982677,0.010212912587076425,0.005045958277955651
1761475494689155000,2.919155029296875,-0.08533961137235165,0.012780863378942011,0.003841550924256444
1761475494699132200,2.929132080078125,-0.06892214505672455,0.030434739621728657,0.04489084273651242
1761475494709110300,2.9391103515625,-0.08470248251259327,0.019857377636432645,0.046795799575001
1761475494719087000,2.949087158203125,-0.11126491074562073,0.01710384114459157,0.027308935751393437
1761475494729064200,2.959064208984375,-0.11803893492519855,0.031087796702980994,0.01873122315071523
1761475494739041000,2.969041015625,-0.10422200649678706,0.03612462182641029,-0.003806333480402827
1761475494749019100,2.97901904296875,-0.05105389541089535,0.029242168836295605,-0.0034300475139170884
1761475494758996200,2.988996337890625,0.020860417199134826,0.025555443147569894,0.0183664814915508
1761475494768973000,2.99897314453125,0.028712299743294714,-0.012358546313643455,0.020103826678171753
1761475494778950100,3.0089501953125,0.042595279145240784,-0.004749971006065607,0.03990793975740671
1761475494788928300,3.01892822265625,0.03498188153207302,0.033787703311443325,0.02837985291853547
1761475494798905000,3.028905029296875,0.026318098083138463,0.05911605970486998,0.005731090997904539
1761475494808882200,3.038882080078125,0.030501521247625347,0.05076017316132784,-0.01282587156444788
1761475494818859000,3.04885888671875,0.05138473480045795,0.023942162732034922,-0.033773236394673584
1761475494828837000,3.058837158203125,0.06963117010891437,0.04333411481380462,-0.03403897465877235
1761475494838814200,3.068814208984375,0.08849369148910045,0.024090192900598047,-0.030288316888362168
1761475494848791000,3.078791015625,0.11372983955442904,0.012537994533777236,-0.02547536364868283
1761475494858768100,3.08876806640625,0.1133832180738449,0.013054711884260177,-0.022457915523648262
1761475494868745200,3.0987451171875,0.12006781040430069,0.0247426654599607,-0.037123350540176035
1761475494878723000,3.10872314453125,0.09631927054822444,0.02210720238983631,-0.0505466034758836
1761475494888700200,3.1187001953125,0.03489069611728191,-0.004090045792609453,-0.03592990297190845
1761475494898677000,3.128677001953125,-0.025236732587218282,0.008411416123062372,-0.025495821914821862
1761475494908654300,3.138654296875,-0.07088730764985084,0.045996612021327016,-0.04854841539599001
1761475494918632200,3.148632080078125,-0.07548048065900802,0.07731500260978937,-0.05373670475408435
1761475494928609500,3.158609619140625,-0.043320670810341834,0.05263108159974217,-0.026690146265923975
1761475494938586600,3.168586669921875,-0.043211949738860125,0.03043678544834256,0.024162673614919184
1761475494948563500,3.1785634765625,-0.020606734699010847,0.041957419633120295,0.013425517958030105
1761475494958541600,3.18854150390625,-0.04044365406930446,0.06961684932261705,0.010546236194670199
1761475494968518400,3.198518310546875,-0.02965747163891792,0.07004355030208825,-0.008297507419809698
1761475494978495500,3.20849560546875,-0.009873159238696097,0.06113894383460283,0.016926219555363057
1761475494988472600,3.21847265625,-0.004044306954741478,0.029196868389844893,0.032005130743607876
1761475494998450400,3.228450439453125,-0.04860591773688793,0.011875731232762336,0.04331109926439822
1761475495008427500,3.238427490234375,-0.05538637165725231,0.050074528984725475,0.03481894605532288
1761475495018404600,3.248404541015625,-0.03978548242151737,0.10232450231239199,0.04385828481838107
1761475495028381700,3.258381591796875,-0.02152911024093628,0.08746420231088996,0.09130699534416198
1761475495038358800,3.26835888671875,0.011330372309684754,0.050343409053981304,0.09796944890804588
1761475495048336400,3.27833642578125,0.026048633491992948,0.017838439029455182,0.08561996268369257
1761475495058313700,3.288313720703125,0.01258008010983467,-0.015653496205806732,0.04131488394588232
1761475495068290800,3.298290771484375,0.003833294552564621,-0.006532032117247581,0.01089512269757688
1761475495078267600,3.308267578125,0.0021317513316869733,0.00657367930188775,-0.003037394934520125
1761475495088245500,3.31824560546875,-0.0013286182552576064,-0.004487959069013595,0.014991817426681518
1761475495098222600,3.32822265625,-0.019421324306726453,0.009210311415791511,0.05366064384318888
1761475495108199700,3.33819970703125,-0.03644961599707603,0.01981061588525772,0.07541260305456816
1761475495118176800,3.3481767578125,-0.04773673368692398,0.03676014325097203,0.03280709477625787
1761475495128154600,3.358154541015625,-0.03941489554345608,0.03969195891916752,0.026200755313783883
1761475495138131700,3.368131591796875,-0.0007113631397485733,0.04799260814413428,-0.0072119772054255
1761475495148108800,3.37810888671875,0.023320085310935972,0.014037293180823326,0.015056187899783254
1761475495158085600,3.388085693359375,0.03817921626865864,0.026134119818359614,0.0077566785413771865
1761475495168062700,3.398062744140625,0.0625409195870161,0.021072306384146214,0.03630312019847333
1761475495178040600,3.40804052734375,0.07900456313192844,0.01183788344040513,0.042156230140849946
1761475495188017700,3.418017578125,0.061271922564506524,0.0005482815325260162,0.01969414989873767
1761475495197994800,3.427994873046875,0.04663900157809257,-0.0017155717462301254,0.01660407492890954
1761475495207971600,3.4379716796875,0.035488662010431285,0.045602205876260994,0.010828048810735345
1761475495217949700,3.44794970703125,-0.010563479590415955,0.04865267948806286,-0.008906067772209644
1761475495227926500,3.457926513671875,-0.06759118871390819,0.04132087529525161,0.013669044390320777
1761475495237903600,3.467903564453125,-0.07181552841067314,0.04805120646357536,0.020822350211068985
1761475495247880700,3.477880615234375,-0.057875265863537785,0.0735077192813158,0.02922960161566734
1761475495257858600,3.487858642578125,-0.058273909792304034,0.08473550799936055,0.052806438166648144
1761475495267835600,3.497835693359375,-0.06181377435624599,0.051564183020591736,0.06397935489229857
1761475495277812700,3.507812744140625,-0.0944563992857933,0.05306596588566899,0.0499207997277379
1761475495287789600,3.51778955078125,-0.0925485198378563,0.06478314555585384,0.025056553714722395
1761475495297766700,3.5277666015625,-0.08933540301024913,0.06058437869176268,0.00341601898856461
1761475495307744500,3.53774462890625,-0.05867372276484966,0.06315393691882491,0.0054956017415970565
1761475495317721600,3.5477216796875,-0.017552023303508756,0.03476078612729907,0.014117884136363864
1761475495327698700,3.55769873046875,0.018781272837519646,0.029800387240946292,0.009940598451718687
1761475495337675500,3.567675537109375,0.02590951728224754,0.04356207835078239,-0.002959799653664231
1761475495347653600,3.577653564453125,0.03774140937328339,0.05624181944280862,-0.010003142293915152
1761475495357630700,3.587630615234375,0.051230421021580694,0.0611576485350728,-0.0058988487802445885
1761475495367607600,3.597607666015625,0.05693710823059082,0.035007892756164075,0.004492050722241401
1761475495377584600,3.607584716796875,0.07720014405846595,0.016788929976522923,0.015197276870906351
1761475495387562500,3.6175625,0.08721008141934872,0.01811521014422178,-0.0029113574020564552
1761475495397539600,3.62753955078125,0.06813304050564765,0.036360184147953986,-0.007617270070686936
1761475495407516700,3.6375166015625,0.038377953711152074,0.047285336657613516,0.027655338036268948
1761475495417493500,3.647493408203125,0.021871640068292616,0.04759498712867498,0.053493251387029886
1761475495427471600,3.6574716796875,0.011158522874116897,0.05606368639692664,0.04839285950809717
1761475495437448400,3.667448486328125,0.007474865925312042,0.05866846206784248,0.03576674829944968
1761475495447425500,3.677425537109375,-0.010168342792987823,0.05277136685326695,0.0067543696310371154
1761475495457402600,3.687402587890625,-0.055849897515773766,0.056421267662942406,0.02710449922047555
1761475495467379500,3.69737939453125,-0.07668985644876956,0.0891860576674342,0.03904876564480364
1761475495477357600,3.707357666015625,-0.10745265898108482,0.08413096623495221,0.030225188524276015
1761475495487334700,3.717334716796875,-0.10937865860760211,0.07669014870971441,0.026317805822193622
1761475495497311500,3.7273115234375,-0.10260171181857586,0.07581731139793992,0.004975888716429472
1761475495507288600,3.73728857421875,-0.07601181105673313,0.03840060393437743,-0.012359130835533142
1761475495517266400,3.747266357421875,-0.017162147203087806,0.019243045130372047,-0.024798195039480924
1761475495527243500,3.757243408203125,-0.008961889612674712,0.016555559612065552,-0.03501965625919402
1761475495537220600,3.767220703125,-0.03604629589319229,0.009248743730038403,-0.010035437128320336
1761475495547197700,3.77719775390625,0.004819967502355575,0.05000292505323887,-0.048075829448178405
1761475495557175600,3.787175537109375,0.016824878072738646,0.033104835613816976,-0.05805230293087661
1761475495567152400,3.79715234375,0.01306932493150234,-0.006877922945469617,0.0009787819042801856
1761475495577129700,3.807129638671875,0.00215630125105381,0.0008425883039832115,-0.007208908465504646
1761475495587106800,3.81710693359375,-0.028700609305500984,0.030165713422000407,-0.01981499979943037
1761475495597083600,3.827083740234375,-0.028420623320341107,0.06832213333696127,-0.04218129151687026
1761475495607061500,3.8370615234375,-0.008429390171170234,0.08832695662006736,-0.05103248729668557
1761475495617038800,3.847038818359375,0.009555763852596282,0.06633563569486141,0.021898381944745776
1761475495627015700,3.857015625,0.036917818030714984,0.07516571562141179,0.0494306781232357
1761475495636992800,3.86699267578125,0.038052375018596644,0.07503989728465676,0.06341675257347523
1761475495646970600,3.876970703125,0.009534721064567566,0.05625292535871267,0.03667290335893631
1761475495656947700,3.88694775390625,0.015332593688368796,0.036679040838778015,0.00966032020561397
1761475495666924800,3.8969248046875,0.008777180695533751,0.05250745522007346,0.00880194981060922
1761475495676901600,3.906901611328125,0.03477086912989616,0.05530307728797197,-0.001522898718342185
1761475495686878700,3.916878662109375,0.05943301669955253,0.040697921091318125,0.04893916827924549
1761475495696856600,3.926856689453125,0.0699783761113882,0.05176029011458158,0.10097944437898695
1761475495706833700,3.936833740234375,0.0739653999209404,0.08123334509730339,0.14088672654926776
1761475495716810800,3.946810791015625,0.009058920246362685,0.09078823216706514,0.13858729050047694
1761475495726787600,3.95678759765625,-0.05149053326249122,0.09639978843852877,0.1152984771106392
1761475495736765700,3.966765625,-0.04028057246208191,0.09581877368018031,0.06529759788401425
1761475495746742800,3.97674267578125,-0.039193946269154546,0.09646423197686671,0.0416664738625288
1761475495756719600,3.9867197265625,-0.04223229105174541,0.06028378830999136,0.07683912872634828
1761475495766696700,3.99669677734375,-0.01061024134159088,0.04023410297185182,0.07955299079492688
1761475495776673500,4.006673583984375,-0.005842296287417411,0.056707975649833674,0.08430055064819753
1761475495786651600,4.016651611328125,-0.008361001110076904,0.05680617532730102,0.1073803243972361
1761475495796628700,4.026628662109375,-0.05428980859220028,0.06756181648895145,0.10013071859516202
1761475495806605600,4.03660546875,-0.07675473837852477,0.04141483718901873,0.08262056167200207
1761475495816582700,4.046582763671875,-0.06099310562312603,0.05406213731616735,0.032475232473388314
1761475495826560500,4.056560546875,-0.0736123486995697,0.050773032642900943,0.019666312043741346
1761475495836537600,4.06653759765625,-0.06248655905127525,0.033002982674539084,0.02884513234272599
1761475495846514700,4.0765146484375,-0.038816345128417015,0.02994315671250224,0.03273307969197631
1761475495856491500,4.086491455078125,-0.01508709449470043,0.028802169983834027,0.021237579948455095
1761475495866468600,4.096468505859375,-0.030381109738349912,0.04650046989023685,0.030028058516979216
1761475495876446700,4.10644677734375,0.00014788403809070586,0.017540186735242606,0.028318039728701113
1761475495886423600,4.116423583984375,0.013793547552824019,0.0041347617171704765,0.01235460079088807
1761475495896400600,4.126400634765625,0.013265139764547348,0.010736498069763184,0.01845591334067285
1761475495906377500,4.13637744140625,0.026846505871415138,0.0068720777265727515,0.022194442281872034
1761475495916355600,4.14635546875,0.019805939710140226,-0.0018299919061362743,0.008209975266829133
1761475495926332700,4.156332763671875,0.021024667850136756,0.020229864210635422,-0.007147387536615133
1761475495936309200,4.166309326171875,0.031185411858558654,0.03436857193931937,-0.004431698837131261
1761475495946286300,4.176286376953125,0.03583352992534637,0.02825023518949747,-0.004327434745058417
1761475495956263400,4.186263427734375,0.03312485548853874,0.015367372740805149,-0.008321984273940325
1761475495966241300,4.1962412109375,0.016273673930764197,0.016913287008553744,-0.012855389919877051
1761475495976218400,4.20621826171875,0.01933481506705284,0.04805252163782715,0.01037051430158317
1761475495986195200,4.2161953125,0.06275310103297234,0.07610021999254822,0.0018190321207046509
1761475495996172500,4.226172607421875,0.06169219380319118,0.07696589691117406,0.0407280970338732
1761475496006150100,4.236150146484375,0.03247486714720726,0.05372486818581819,0.0908777370814234
1761475496016127200,4.246127197265625,0.026695114701986312,0.020918723257631062,0.09091010498106479
1761475496026104600,4.2561044921875,0.013877718704938887,0.021587270168960095,0.03466346323266625
1761475496036081400,4.266081298828125,-0.04144786267578601,0.04769523263275623,-0.013205810792744159
1761475496046059300,4.276059326171875,-0.07540566185712815,0.03416968836635351,-0.0324157573711127
1761475496056036400,4.286036376953125,-0.05583411542475223,0.05417743425890803,-0.028518238475918768
1761475496066013400,4.296013427734375,-0.037387189108133316,0.06346461030319332,0.03792465698570013
1761475496075990500,4.305990478515625,-0.06291501359641552,0.08143076736554503,0.08878544097729027
1761475496085967400,4.31596728515625,-0.09184534000456332,0.06671805914118886,0.08080328311696648
1761475496095945500,4.325945556640625,-0.10538520505726337,0.0784190183289349,0.0370853566173464
1761475496105922600,4.335922607421875,-0.09085457540154457,0.06914484789669513,-0.014922405452281236
1761475496115899400,4.3458994140625,-0.06039572425186634,0.037907559720426795,-0.054081864929944275
1761475496125877500,4.35587744140625,-0.01104337206184864,0.01375730719566345,-0.06116480892822146
1761475496135854300,4.365854248046875,0.03148994776308536,-0.015531477261334657,-0.032467852884531016
1761475496145831400,4.37583154296875,0.06217559340596199,-0.017216215477883816,-0.027675869367644188
1761475496155808500,4.38580859375,0.023429975426197052,0.014530775786191224,-0.02799019601382315
1761475496165786400,4.395786376953125,0.006164367848634719,0.04189823679178953,-0.03991173914968967
1761475496175763500,4.405763427734375,0.0059463411837816236,0.06283434957563877,-0.029902751636877653
1761475496185740500,4.415740478515625,0.013853168785572051,0.06751037856265903,0.00027501754909753796
1761475496195717400,4.42571728515625,0.012343348744511604,0.053125148726999756,-0.015523293954879044
1761475496205694500,4.435694580078125,0.012996259695291518,0.04257628218382597,-0.013308102123439311
1761475496215672300,4.44567236328125,0.018800562059879303,0.025228695411235093,-0.03279861920885742
1761475496225649400,4.4556494140625,0.0325906024813652,0.029635844328999517,-0.04974843883551657
1761475496235626500,4.46562646484375,0.05602116242945194,0.0036100071907043457,-0.05432809477597475
1761475496245603300,4.475603271484375,0.0429079983562231,-0.008282090654969215,-0.0232932703692466
1761475496255581400,4.48558154296875,0.03103694329857826,0.008463146310299634,0.019127602057158945
1761475496265558300,4.495558349609375,0.02138181072473526,0.017738339655846355,0.02757313964553177
1761475496275535400,4.505535400390625,0.0009679682493209838,0.04796937339901924,0.04488967369273305
1761475496285512400,4.515512451171875,0.021959902873635292,0.0675838821902871,0.024395386392250657
1761475496295489300,4.5254892578125,0.0322726225733757,0.04890066289976239,0.01040682772397995
1761475496305467400,4.53546728515625,0.05846621749401092,0.018126754451543093,0.019424100785702465
1761475496315444500,4.545444580078125,0.0454179353505373,0.03176861857399344,0.03712327747493982
1761475496325421300,4.55542138671875,0.01511281345784664,0.013651216472685336,0.022183117170259354
1761475496335398400,4.5653984375,-0.024428338813781737,0.026451369073987006,0.036977439263463016
1761475496345375200,4.575375244140625,-0.03733692022562027,0.028463147287815807,0.010179010317474603
1761475496355353300,4.585353271484375,-0.07623919007182121,0.025938304985314607,0.012376155035570264
1761475496365330400,4.595330322265625,-0.07114508180320263,0.043965690715610975,0.020880583204329013
1761475496375307300,4.605307373046875,-0.0695078359901905,0.035882775894552466,0.0418636038698256
1761475496385284400,4.615284423828125,-0.08209493036270141,0.047262978695333004,0.043453065018355844
1761475496395262500,4.625262451171875,-0.07233984454572201,0.05064736043661833,0.016226985244825482
1761475496405239300,4.6352392578125,-0.08156827614009379,0.028872166480123994,-0.018496537612006068
1761475496415216400,4.64521630859375,-0.07964929077625274,0.034783290220052,-0.028603286410868164
1761475496425193200,4.655193115234375,-0.053826282733678815,0.04344020553678274,-0.033137641904875635
1761475496435171300,4.66517138671875,-0.01628477984666824,0.02888663339689374,0.008755188059434295
1761475496445148400,4.6751484375,0.0010164835661649703,0.009597995559126138,0.030097470491379497
1761475496455125200,4.685125244140625,0.03634440205693245,0.012807459124922751,0.035070582728832955
1761475496465102300,4.695102294921875,0.04755436285734176,0.028438012846559283,0.02282287637852132
1761475496475079400,4.705079345703125,0.061928340646624565,0.020336539455503223,-0.00276442321203649
1761475496485057300,4.715057373046875,0.08640694834291934,0.007159077974408864,0.005395283172279596
1761475496495034400,4.725034423828125,0.08480126671195029,-0.009197305803745984,-0.0000018266309052705764
1761475496505011200,4.73501123046875,0.08515957863032818,0.002784516151994467,-0.012147899237647652
1761475496514988500,4.744988525390625,0.05825929674506187,0.01116319904923439,-0.019764511721208692
1761475496524966400,4.75496630859375,0.05183423213362694,0.044258097790926695,-0.008241977840289473
1761475496534943200,4.764943115234375,0.04485036459565162,0.06005144085884094,0.019546558121591805
1761475496544920300,4.77492041015625,0.047447979873418804,0.06046747431382537,0.017264073207601902
1761475496554897400,4.7848974609375,0.030799627411365507,0.04592603100314736,0.02657002701759338
1761475496564874500,4.79487451171875,0.0314537074059248,0.06135244045481086,0.00045022798553109167
1761475496574852400,4.804852294921875,0.026877485531568525,0.07533829570934177,0.03463774426952004
1761475496584829400,4.814829345703125,0.02485913144648075,0.06610577246174217,0.04381152306720614
1761475496594806500,4.824806640625,0.029151860204339027,0.08197349594011902,0.05893639228902757
1761475496604783400,4.834783447265625,0.011475918260216713,0.0972404770463705,0.09276661956794559
1761475496614761500,4.844761474609375,-0.05179331560134887,0.10484423004835844,0.1040014956139028
1761475496624738600,4.854738525390625,-0.09959142408668994,0.08881240204945207,0.09911072789765894
1761475496634715400,4.86471533203125,-0.11925649402141571,0.08242693879604339,0.047697278459370135
1761475496644692500,4.8746923828125,-0.08208382444679736,0.09086261257752776,0.002634513222053647
1761475496654669300,4.88466943359375,-0.04905366150438785,0.07823445554226637,-0.02228380106575787
1761475496664647400,4.8946474609375,-0.029362872606515884,0.07899637982547282,0.012495543631538748
1761475496674624500,4.90462451171875,-0.008621113350987433,0.06964812124371528,0.033215017990022896
1761475496684601300,4.914601318359375,-0.004610124143958091,0.0718530839420855,0.03326747882962227
1761475496694578400,4.924578369140625,-0.0433960741341114,0.06192351834103465,0.022701515021175143
1761475496704556500,4.934556640625,-0.06980126597881317,0.05649389450773597,-0.040230741970986125
1761475496714533400,4.944533447265625,-0.058636897885799406,0.04690729712545871,-0.08035816969797015
1761475496724510500,4.954510498046875,-0.03477729887068271,0.017707944517582654,-0.10502674700841307
1761475496734487300,4.9644873046875,0.002419336101412773,-0.03326689430773258,-0.11193944900631904
1761475496744464400,4.97446435546875,0.024614801296591757,-0.058082040482014416,-0.09886150237694383
1761475496754442500,4.9844423828125,0.07413666483461856,-0.06822729466035962,-0.08030388222746551
1761475496764419300,4.99441943359375,0.09384265130162238,-0.06124021225199103,-0.05764832523986697
1761475496774396400,5.004396484375,0.056874564388394354,-0.040539515659213064,-0.023465996587648988
1761475496784373200,5.014373291015625,0.021230419555306433,-0.003359101169556379,-0.04011588341966271
1761475496794351400,5.024351318359375,0.0004816460371017456,0.01631736694201827,-0.05470196958966553
1761475496804328400,5.034328369140625,-0.024118542212247848,0.029484745420515535,-0.07749320872090756
1761475496814305300,5.04430517578125,-0.0145002345174551,0.03295519801005721,-0.05652743145115673
1761475496824282400,5.054282470703125,-0.005487491500377655,0.02621200736016035,-0.021526772153377532
1761475496834259200,5.06425927734375,0.00812543878853321,0.029190146388113496,0.02153451706841588
1761475496844237300,5.0742373046875,0.005723053821921348,0.04329056793302297,0.033750951497629286
1761475496854214400,5.08421435546875,-0.0032838439762592313,0.04702931606993079,0.05170322616510093
1761475496864191200,5.094191162109375,-0.0289700738966465,0.0700121322505176,0.07742277383320033
1761475496874168300,5.104168212890625,-0.0551297665476799,0.09072685736864805,0.11692439781203866
1761475496884146400,5.114146484375,-0.05813888523578643,0.0963061188057065,0.14151567210257052
1761475496894123300,5.124123291015625,-0.0604278729557991,0.11531652422398328,0.11957476619035005
1761475496904100400,5.134100341796875,-0.05040566063523292,0.11597995656877755,0.114883904960379
1761475496914077200,5.1440771484375,-0.013016717961430549,0.11723784767538309,0.1413878810044378
1761475496924054300,5.15405419921875,0.018027824121713637,0.10678221237361431,0.16480412016622722
1761475496934032100,5.1640322265625,0.03163958536684513,0.10136807837039231,0.17653087138235568
1761475496944009200,5.17400927734375,0.01713584371805191,0.08953077945187687,0.14860146564505994
1761475496953986300,5.183986328125,0.018086276310682294,0.0779059542402625,0.12890928850769995
1761475496963963400,5.19396337890625,0.046925417304039,0.06418094187900424,0.0948067470934242
1761475496973941200,5.203941162109375,0.06511281590163708,0.026763796024024487,0.10347915224023163
1761475496983918300,5.21391845703125,0.0543845011383295,0.015455635546147822,0.07908098936900496
1761475496993895200,5.223895263671875,0.015247838014364242,0.016309037505090235,0.05860876776985824
1761475497003872500,5.23387255859375,-0.006591068828105926,0.021994097404181956,0.014246040560677646
1761475497013849300,5.243849365234375,-0.014467501291632651,0.029144699811190364,0.007239011342823505
1761475497023827200,5.2538271484375,-0.036086627903580665,0.03670782854184508,-0.001301949444040656
1761475497033804500,5.263804443359375,-0.023024901756644248,0.036022768887132406,0.004341463270410895
1761475497043781400,5.273781494140625,-0.006311667364835739,0.02138268750756979,-0.0010251052640378475
1761475497053758500,5.283758544921875,0.015521978780627249,0.01518295608460903,0.004015007795020938
1761475497063735300,5.2937353515625,0.01095452473461628,0.008553016550838947,0.0023570845201611517
1761475497073713400,5.30371337890625,0.006434416961669922,0.010246376465260982,-0.008018617413192987
1761475497083690500,5.3136904296875,-0.03649754679203033,0.021723463769257066,-0.07168342646360397
1761475497093667300,5.323667236328125,-0.03210486479103565,0.0376969857096672,-0.0824088186174631
1761475497103644400,5.33364453125,-0.04073883762359619,0.0447502652220428,-0.07909158382825553
1761475497113622500,5.34362255859375,-0.017124153280258177,0.005846534071117639,-0.055419981665909286
1761475497123599400,5.353599365234375,-0.01170563536286354,-0.020769085653871297,-0.05278963316231966
1761475497133576400,5.363576416015625,-0.03082826898396015,-0.006354921984672546,-0.05885777409486472
1761475497143553300,5.37355322265625,-0.006599252134561538,0.014595949976891278,-0.08310629936233162
1761475497153530400,5.3835302734375,0.031118191841244695,-0.0006274842485785484,-0.05892762446068227
1761475497163508500,5.393508544921875,0.03935819692015648,0.032835663283616305,-0.02755852659828961
1761475497173485300,5.4034853515625,0.04152034339010715,0.04310454384163022,-0.03607113807350397
1761475497183462400,5.41346240234375,0.03910568346381187,0.040576194407790894,0.02644566998556256
1761475497193439200,5.423439208984375,0.05066109670102596,0.02224456503391266,0.04050897439047694
1761475497203417300,5.433417236328125,0.021563597032427786,0.014223755663633346,0.03341192880161106
1761475497213394400,5.44339453125,-0.013922142368555069,0.05561331228092312,0.02346110121682286
1761475497223371300,5.453371337890625,-0.03223462865054607,0.07967544813081621,0.03869330327063799
1761475497233348400,5.463348388671875,-0.027685879305005073,0.06137523680850863,0.028429829540103674
1761475497243325200,5.4733251953125,0.0008878887504339218,0.04737564528957009,0.02942095946930349
1761475497253303300,5.48330322265625,0.038272155249118804,0.04328896049782634,0.048237668946385384
1761475497263280400,5.4932802734375,0.029731705918908117,0.03067103259563446,0.0615174948234111
1761475497273257200,5.50325732421875,-0.020330255845189094,0.040493338429927826,0.08220138641186057
1761475497283234300,5.513234375,-0.053555649098753925,0.06879325798004865,0.055971843395009636
1761475497293211100,5.523211181640625,-0.0622924977838993,0.07350815767273307,0.033384675468504425
1761475497303189200,5.533189208984375,-0.053742696103453634,0.08424757835194469,0.008584872993826865
1761475497313166300,5.543166259765625,-0.007994505885243416,0.04675166817232966,0.017730010218918322
1761475497323143200,5.55314306640625,-0.0027718028008937834,0.029788842933624982,0.029109190106391906
1761475497333120300,5.563120361328125,-0.013141221123933792,0.029981881287693975,0.05030936065390706
1761475497343098400,5.573098388671875,-0.05275426958799362,0.03996609968543052,0.0452991312764585
1761475497353075200,5.5830751953125,-0.057977557194232934,0.049220396373420953,0.025453663273528215
1761475497363052300,5.59305224609375,-0.059601359003782266,0.039892742188274856,-0.004786284428462386
1761475497373029000,5.603029052734375,-0.04181377337872982,0.041382103963196276,-0.02586414377056062
1761475497383006200,5.613006103515625,-0.017040566650032996,-0.00127834937274456,-0.01058174589946866
1761475497392984300,5.622984375,0.03394435517787933,0.017794892148673535,-0.00483640718050301
1761475497402961200,5.632961181640625,0.02836684730648994,0.023993016136437652,0.012991583520174026
1761475497412938200,5.642938232421875,0.02237082176208496,0.033079993433505296,0.03615267887711525
1761475497422915300,5.652915283203125,0.005243161350488662,0.04722849190384149,-0.005584522134065628
1761475497432892400,5.662892333984375,-0.030257775619626042,0.04665303010344505,0.00803483789563179
1761475497442870300,5.672870361328125,-0.023923311901092526,0.05525514649301767,-0.0032247342001646756
1761475497452847400,5.682847412109375,-0.005286415970325469,0.054200084482133384,-0.013191928397864103
1761475497462824400,5.692824462890625,0.02223871981501579,0.059091071394085884,0.014567162273824215
1761475497472801300,5.70280126953125,0.03536941954493522,0.053756286237388845,0.03489909861944616
1761475497482779400,5.712779296875,0.01667348690330982,0.0567351559177041,0.04317592857740819
1761475497492756500,5.722756591796875,0.022958850783109663,0.05025324655249715,0.05765263608880341
1761475497502733300,5.7327333984375,-0.0031646015107631683,0.0743346716247499,0.03826039174608886
1761475497512710400,5.74271044921875,-0.027670097213983533,0.0813577021293342,0.021390432422608137
1761475497522687500,5.7526875,-0.006805588361620903,0.08207169561758637,0.03338927857838571
1761475497532665300,5.762665283203125,0.016378303349018096,0.07805924510583281,0.04938179748021066
1761475497542642400,5.772642333984375,0.06418050348758697,0.07602233245074748,0.05514452572539449
1761475497552619300,5.782619384765625,0.11988076339960098,0.048570115771144624,0.05556202048510313
1761475497562596400,5.792596435546875,0.12661270200312136,0.031030221296846863,0.06218662625662982
1761475497572573400,5.802573486328125,0.11755962697565554,0.009616554129123687,0.05555310652628541
1761475497582551300,5.81255126953125,0.09175240102410316,-0.00029927520751953123,0.028634046875312923
1761475497592528400,5.8225283203125,0.045589200264215465,0.01707461505010724,0.0024161212310194967
1761475497602505200,5.832505126953125,0.024995909568667412,0.03309431421980261,0.02107917451635003
1761475497612482300,5.842482421875,-0.010887304717302322,0.06545169246718287,0.024718480866774917
1761475497622460400,5.85246044921875,-0.0326081381380558,0.06763634302988648,0.00995411552041769
1761475497632437200,5.862437255859375,-0.05941957269608974,0.07278831896558403,0.01947246997207403
1761475497642414300,5.872414306640625,-0.06865852568447589,0.09227934750765561,0.04643675700426102
1761475497652391400,5.882391357421875,-0.050232057633996005,0.07516703079566359,0.06501330104991793
1761475497662368300,5.8923681640625,-0.03747837452292442,0.06976385657787322,0.07864734719209372
1761475497672346400,5.902346435546875,-0.06051262862980365,0.047889001639187335,0.05202390948683023
1761475497682323200,5.9123232421875,-0.050213937455415726,0.05876870757192373,0.03628324645422399
1761475497692300300,5.92230029296875,-0.017654899156093598,0.058789750359952445,0.041625995721668
1761475497702277400,5.93227734375,-0.022715105155110358,0.04059679880440235,0.06312777956426144
1761475497712254200,5.942254150390625,-0.025419687938690184,0.02708294497579336,0.0447401822194457
1761475497722232300,5.952232421875,-0.008036591461300849,0.02487754388600588,0.019850290308520195
1761475497732209200,5.962209228515625,0.010243161594867706,0.02744140302464366,0.02147694166228175
1761475497742186200,5.972186279296875,0.011495792004466055,0.0568755873017013,0.03460866430550814
1761475497752163300,5.982163330078125,0.015990180814266203,0.04618994263634085,0.04422419552132487
1761475497762141200,5.99214111328125,0.06357260072231292,0.02934767503738403,0.05797434232383966
1761475497772118300,6.0021181640625,0.07501812384426593,0.0013413316063582896,0.04959142164289951
1761475497782095400,6.012095458984375,0.08228080832362175,-0.03485767063051462,0.023088760773092507
1761475497792072200,6.022072265625,0.06618599809110164,-0.03040390609204769,0.0009825082313269376
1761475497802049300,6.03204931640625,0.046668227672576904,0.00570011133775115,-0.004969678171351552
1761475497812027100,6.042027099609375,0.004619476494193077,0.021329788276553154,-0.007245514148846268
1761475497822004200,6.052004150390625,-0.029412556967139243,0.04606792369186878,0.03503733804635703
1761475497831981300,6.061981201171875,-0.005642974323034286,0.05082578574344516,0.02510236561782658
1761475497841958400,6.07195849609375,0.030563480567932125,0.03178440066501498,0.026685470090806483
1761475497851935500,6.081935546875,0.035973230656981464,0.01477729789316654,-0.014844956301897763
1761475497861913000,6.0919130859375,0.020659926190972327,0.0129448217689991,0.0029671061772853133
1761475497871890400,6.101890380859375,-0.05380582446753979,0.02395195347368717,0.003849661165475845
1761475497881867500,6.111867431640625,-0.10094926843643189,0.04633431954309344,0.011269143641740084
1761475497891844400,6.12184423828125,-0.11153379081487655,0.07727773933932185,-0.007312295774742961
1761475497901821400,6.131821533203125,-0.10085516041219234,0.10203808658644556,-0.001361862937733531
1761475497911799600,6.141799560546875,-0.046915480431914326,0.08250088081508875,0.024185177707672117
1761475497921776400,6.1517763671875,0.011950550034642219,0.03552607141137123,0.024332331093400716
1761475497931753700,6.161753662109375,0.02902443443238735,0.013646248036623,-0.0017344956424087286
1761475497941730800,6.171730712890625,0.05817804820239544,0.012013970659673212,-0.040711730420961975
1761475497951708700,6.181708740234375,0.06797697316110134,-0.00961421604156494,-0.047471872205659744
1761475497961685800,6.191685791015625,0.04720014259219169,-0.011676555398851632,-0.02198211470544338
1761475497971662800,6.201662841796875,0.023218963024020194,0.030404490613937376,0.002358545824885368
1761475497981639700,6.2116396484375,0.031713819646835326,0.04865574822798371,0.010203341041132807
1761475497991616800,6.22161669921875,0.011983283260464668,0.05919336272478103,-0.00015694412738084793
1761475498001595000,6.231594970703125,-0.015904256096482276,0.05006079272031784,-0.019452815423533318
1761475498011571700,6.24157177734375,-0.02045534352958202,0.01958966661095619,-0.058550461711362
1761475498021548800,6.251548828125,-0.022388357418775557,0.015121435155719518,-0.05254172281585633
1761475498031525600,6.261525634765625,0.014095745369791983,0.010957008952647448,-0.012485679824650287
1761475498041502700,6.271502685546875,0.05647767402529716,0.004663754027336836,0.016108254235982895
1761475498051480800,6.281480712890625,0.05462123250365257,-0.013134499122202395,0.025225334410369393
1761475498061457700,6.291457763671875,0.002444470542669296,0.005525923814624548,0.043642450110614295
1761475498071434800,6.301434814453125,-0.032715105643868446,0.03696370299905538,0.030258944663405417
1761475498081411600,6.31141162109375,-0.0356143342167139,0.05788637177944183,0.015429843517765402
1761475498091388700,6.321388671875,-0.03433715388774872,0.04566343454420566,-0.0187222361266613
1761475498101366800,6.33136669921875,-0.01650748268663883,0.03873144332394004,-0.0019354250419884918
1761475498111343600,6.341343505859375,-0.028953707283735274,0.03138400317057967,0.012281316358968614
1761475498121320700,6.35132080078125,-0.03467559206187725,0.06029927814006805,0.04171228576563298
1761475498131297500,6.361297607421875,-0.01486322261095047,0.08633154501914977,0.08421323769092559
1761475498141275600,6.371275634765625,0.0014659808993339539,0.05761164649128914,0.08256963520236313
1761475498151252700,6.381252685546875,0.0006914893954992294,0.02868000490888953,0.06473302280381321
1761475498161229600,6.3912294921875,0.015513795474171638,-0.011904226674884557,0.0024772768337279556
1761475498171206700,6.40120654296875,-0.0011935936987400055,-0.05033639479130506,-0.05029153273627162
1761475498181183500,6.41118359375,-0.0037082068681716916,-0.06372852193638683,-0.08036956787481904
1761475498191161600,6.42116162109375,0.010151391658186912,-0.03364902549311519,-0.034598142911493775
1761475498201138700,6.431138671875,-0.008555646899342536,0.0016579963400959968,0.012348097984865306
1761475498211115500,6.441115478515625,0.014352350479364393,0.024689912359416484,0.0331563466053456
1761475498221092600,6.451092529296875,-0.015036825612187384,0.021688100194931028,0.04113032115921378
1761475498231069700,6.461069580078125,-0.06508592789471149,0.0012425474070012568,0.03831453308612108
1761475498241047600,6.471047607421875,-0.09189677793085575,0.030728315740823745,-0.019427388721331953
1761475498251024600,6.481024658203125,-0.07745733368992805,0.06497706069275737,-0.03920044907517731
1761475498261001500,6.49100146484375,-0.01946691701412201,0.06627995998486876,-0.013342881175875662
1761475498270978800,6.500978759765625,0.049476270830631254,0.018764760094136,0.034575931079685686
1761475498280956000,6.510955810546875,0.0862912130087614,0.014476561380922794,0.026244813651219008
1761475498290933500,6.52093359375,0.10059680173695087,0.014070610928535461,-0.019227263039350507
1761475498300910600,6.53091064453125,0.09713877023756504,-0.00008373276069760322,-0.046825098734721536
1761475498310887700,6.5408876953125,0.08411912966668605,0.022566052073240278,-0.060119318463280794
1761475498320864800,6.55086474609375,0.0834375771433115,0.01703647499680519,-0.040405952407419676
1761475498330841900,6.560841796875,0.11242986287176608,0.02137055867835879,-0.0018768997877836226
1761475498340819700,6.57081982421875,0.09183131147921085,0.01388502522855997,0.01079495025873184
1761475498350796800,6.580796875,0.04319850573539734,0.02070011207088828,0.005534910838678479
1761475498360774000,6.59077392578125,0.05753507412374019,0.044833413460850714,-0.026519831200316545
1761475498370750700,6.600750732421875,0.10012567709386348,0.054318304034322494,-0.07307451549582183
1761475498380727800,6.610727783203125,0.14138298563361168,0.010375409672409295,-0.06669898911453784
1761475498390705700,6.62070556640625,0.1841284869045019,-0.06128741239458322,-0.018475421758741138
1761475498400682800,6.630682861328125,0.13308335932195187,-0.03284501563385129,0.10005845707654952
1761475498410659800,6.640659912109375,0.06660451576411723,0.028393589182943105,0.18041976857967673
1761475498420636700,6.65063671875,0.019835165804624556,0.10963701728284359,0.15413199256956575
1761475498430614800,6.66061474609375,0.04383446555137634,0.1289485976047814,0.12466010663062334
1761475498440592000,6.670591796875,0.12942249872684478,0.117604489030689,0.042441988279670474
1761475498450568700,6.680568603515625,0.18056757955253122,0.040250323454290624,0.01542078342847526
1761475498460545800,6.6905458984375,0.18747370567917823,-0.03129267162531614,0.009868483063578605
1761475498470522600,6.700522705078125,0.14345453121066093,-0.04870075641348958,0.03323942177891731
1761475498480500700,6.710500732421875,0.035687983974814416,-0.021943390130251646,0.021034970048442483
1761475498490477800,6.720477783203125,-0.0028530513435602186,0.009119856653362512,0.09441533662304281
1761475498500454700,6.73045458984375,-0.10626023432612418,0.08440306117460131,0.0969535498637706
1761475498510431700,6.740431640625,-0.17350655512511728,0.12659078243225813,0.08090228651203214
1761475498520408600,6.75040869140625,-0.21011165394484996,0.13291910867094991,0.09095978934168815
1761475498530386700,6.76038671875,-0.2091910319685936,0.11052475990280508,0.0648017771910876
1761475498540363800,6.77036376953125,-0.20124621044397353,0.0600808861490339,0.061728945617005225
1761475498550340600,6.780340576171875,-0.2021446205884218,0.018291954950615762,0.06476137211546301
1761475498560317700,6.790317626953125,-0.17912614857256412,0.012509572156891226,0.038330022916197776
1761475498570294500,6.80029443359375,-0.1648918715149164,0.013640695078670977,0.04364588417671621
1761475498580272600,6.810272705078125,-0.10993512344658374,0.022793723349273202,0.016893924720957874
1761475498590249700,6.820249755859375,-0.09873802212774753,0.009310045463219285,0.018454890427365898
1761475498600226600,6.8302265625,-0.08066928147375584,0.001512961846217513,0.05492218821160495
1761475498610203600,6.84020361328125,-0.09053601097166537,0.001956906221434474,0.06048734805807471
1761475498620180500,6.850180419921875,-0.09051029200851916,0.01658208229281008,0.03054755234643817
1761475498630158600,6.86015869140625,-0.07618015336096286,-0.009664923315495252,0.00644581513851881
1761475498640135700,6.8701357421875,-0.06442658720314502,-0.006519976353272795,-0.002471723875775933
1761475498650112500,6.880112548828125,-0.041600422888994217,0.02482281802408397,0.018169570679962634
1761475498660089900,6.89008984375,-0.050213937455415726,0.029535379629209636,0.05224164389073849
1761475498670066700,6.900066650390625,-0.051202948492765424,0.06172704592086374,0.07925904934965074
1761475498680044500,6.91004443359375,-0.03232347597777843,0.07195910159982741,0.06550378798060119
1761475498690021600,6.920021728515625,0.03504559441804886,0.08633907073847949,0.055321270531788466
1761475498699998700,6.929998779296875,0.08475392043888569,0.09413739646449684,0.0514572885800153
1761475498709975800,6.939975830078125,0.10783084464371204,0.05711465675458312,0.0520736669126898
1761475498719953700,6.94995361328125,0.1411462542682886,0.03322173999175429,0.04561287340074777
1761475498729930800,6.9599306640625,0.13694061927199364,0.05792297746278345,0.0564259438380599
1761475498739907800,6.969907958984375,0.11175590913295745,0.10592420730479062,0.07072481056451797
1761475498749884700,6.979884765625,0.08648059810101985,0.12118848499730228,0.06862184693589807
1761475498759861800,6.98986181640625,0.10800094051361084,0.10661920383162796,0.07949811880253255
1761475498769838800,6.9998388671875,0.1293558632314205,0.09480309383161366,0.041896264030411835
1761475498779816700,7.009816650390625,0.12214461667835712,0.05138955710604787,0.013083280391618608
1761475498789793800,7.019793701171875,0.06978314580023288,0.011286825428903103,-0.009274901084601878
1761475498799770600,7.0297705078125,0.03465980997085571,0.012005275896564126,-0.012229001649841666
1761475498809747700,7.039747802734375,0.04068681517541408,0.030550255760177968,-0.013240078388527034
1761475498819725800,7.049725830078125,0.050071898636221884,0.029298063741996883,0.017122034388408064
1761475498829702700,7.05970263671875,0.10951602125167846,0.023368819823488592,0.02940262009501457
1761475498839679700,7.0696796875,0.13892156395614147,-0.01738514230400324,-0.0015890227571129798
1761475498849656600,7.079656494140625,0.11753916870951651,-0.07125526417940854,-0.05200133232884109
1761475498859633700,7.089633544921875,0.1015846437305212,-0.05745492155961692,-0.08620426537767052
1761475498869611800,7.09961181640625,0.06893851166963577,-0.07101582940034568,-0.08860906149707734
1761475498879588600,7.109588623046875,0.02297814000546932,-0.06948460124507547,-0.06477554677128791
1761475498889565700,7.119565673828125,-0.006615034225583076,-0.05581614137664437,-0.08949768089987337
1761475498899542800,7.129542724609375,-0.009610124388337134,-0.045098640268296,-0.11839468956030905
1761475498909519600,7.13951953125,-0.06795651489496231,-0.07633717055357993,-0.09605287469699979
1761475498919497700,7.149497802734375,-0.16869827806055546,-0.057841655854880804,-0.05386771072261035
1761475498929474600,7.159474609375,-0.22225100454986094,-0.009215718243271111,-0.06328311625644564
1761475498939450600,7.16945068359375,-0.2793085242897272,0.01009805403575301,-0.04697144840285182
1761475498949427700,7.179427734375,-0.3142354607641697,0.03593808627836406,0.011489216133207083
1761475498959404500,7.189404541015625,-0.3137906396061182,0.06611972792185843,0.06388108214959502
1761475498969382400,7.19938232421875,-0.30309564259052274,0.08985482377447188,0.12104082015492021
1761475498979359700,7.20935986328125,-0.26794658779799935,0.10202946488857269,0.14579269183464347
1761475498989336600,7.219336669921875,-0.23032909706532953,0.09588109832666813,0.10424377993717789
1761475498999313700,7.229313720703125,-0.1869610799819231,0.052944020006433126,0.08651501182727515
1761475499009290500,7.23929052734375,-0.09981588049232959,0.010058306547254323,0.0711516576744616
1761475499019268600,7.2492685546875,-0.010247253248095512,-0.0004683481641113758,0.08584946059063077
1761475499029245700,7.25924560546875,0.05120704014599323,-0.009950827584788203,0.11387202450409531
1761475499039222500,7.269222412109375,0.03667173431515693,0.0012610329117625951,0.13101568620242177
1761475499049199600,7.27919970703125,-0.001443184545636177,0.03692322485819459,0.1423896784581244
1761475499059176700,7.2891767578125,0.0025660510957241055,0.04836692134924233,0.13253171678856016
1761475499069154600,7.299154541015625,0.018745617002248763,0.021046806616708633,0.10115428948923945
1761475499079131600,7.309131591796875,0.04260813862681389,0.10147278085388242,0.07136288927234709
1761475499089108500,7.3191083984375,0.08069090878367424,0.1077394400332123,0.071522975204885
1761475499099085600,7.32908544921875,0.12326046896576881,0.054403936491161584,0.08320756777971983
1761475499109062700,7.339062744140625,0.12249299172461033,0.01963211751319468,0.06804718885309993
1761475499119040500,7.34904052734375,0.1111830776810646,0.037726723260805006,0.025983532366529106
1761475499129017600,7.359017578125,0.06603226883411407,0.048581660078465934,-0.02397942600250244
1761475499138994400,7.368994384765625,0.035330256578326225,0.07162782381884754,-0.047412177907675504
1761475499148971500,7.378971435546875,0.05069909062385559,0.07079444173462689,-0.03705174660868942
1761475499158948600,7.388948486328125,0.04797580313980579,0.077170698768273,0.00984327555708587
1761475499168926500,7.398926513671875,0.03548398583531379,0.08709208106286823,0.008973433919996023
1761475499178903600,7.408903564453125,0.008613514566421508,0.058512029397115105,-0.02659815713353455
1761475499188880600,7.418880615234375,-0.017422259443998337,0.054537426677718756,-0.026737784799933433
1761475499198857500,7.428857421875,-0.08022504483759403,0.07215265141054987,-0.012307985170185566
1761475499208834600,7.43883447265625,-0.09364040672779082,0.05997114216424525,-0.0029408026922494173
1761475499218812400,7.4488125,-0.07348843005895614,0.07560878321379423,-0.01626958227753639
1761475499228789500,7.45878955078125,-0.036737200766801835,0.06176745099648833,-0.01061630575619638
1761475499238766600,7.4687666015625,-0.019215572601556777,0.02105513605363667,-0.004174216944724321
1761475499248743400,7.478743408203125,-0.010107552516460418,0.000052387774363160134,0.00013845862261950968
1761475499258720500,7.488720458984375,-0.03393967900276184,0.005716404885426163,-0.0022147534400224684
1761475499268698400,7.498698486328125,-0.008691255977749824,0.010162424508854746,-0.0017181290294975041
1761475499278675500,7.508675537109375,0.011260814204812048,0.010794292671605943,0.017699834276363253
1761475499288652500,7.518652587890625,0.006167290458083153,-0.006459843663871288,0.04629376833699644
1761475499298629600,7.528629638671875,-0.018993454283475875,0.025956571294367313,0.05585523127801716
1761475499308606700,7.538606689453125,-0.05169862305521965,0.036710020498931406,0.038370281861349935
1761475499318584600,7.54858447265625,-0.04185468991100788,0.020598405262082814,0.008242416231706738
1761475499328561700,7.558561767578125,-0.03285305280983448,0.020217004729062318,0.04250182870812714
1761475499338538800,7.568538818359375,-0.012854805397987366,0.003705138128250837,0.05780125077925622
1761475499348515600,7.578515625,-0.05601940886378288,0.014037512376531957,0.0653626990094781
1761475499358492700,7.58849267578125,-0.09394435811042785,0.054312239619717,0.05103526377566159
1761475499368470800,7.598470703125,-0.09984744467437266,0.0772916217342019,0.02780300287865102
1761475499378447600,7.608447509765625,-0.0753027860045433,0.06068761987052858,0.03654094754233956
1761475499388424700,7.6184248046875,-0.04906359837651252,0.0549522180236876,0.04187514817714691
1761475499398401500,7.628401611328125,-0.005672784939408302,0.04403554108142853,-0.0012855828311294317
1761475499408378600,7.638378662109375,-0.007870002722740172,0.03649418579116463,-0.001165682778507471
1761475499418356700,7.648356689453125,0.0009352350234985351,0.05501001262553036,0.00774637634307146
1761475499428333600,7.65833349609375,0.0243254629611969,0.07189706921428442,0.03841521698161959
1761475499438310700,7.668310546875,0.014482114338874816,0.07578560108542443,0.05905936108157038
1761475499448287500,7.67828759765625,-0.03212590757906437,0.056311669808626175,0.04025952967405319
1761475499458264600,7.6882646484375,-0.04622691364586353,0.07436163269691169,-0.02133468364737928
1761475499468242700,7.69824267578125,-0.04797346505224705,0.06386800347231328,-0.032711671577766534
1761475499478219500,7.708219482421875,-0.009590835165977477,0.06389606052301823,-0.03812551332004368
1761475499488196600,7.718196533203125,0.040871524092555046,0.07609766270928084,-0.014165741866081952
1761475499498173400,7.72817333984375,0.03971592431664467,0.0503096529148519,0.028374299960583448
1761475499508150500,7.738150634765625,0.0450607924759388,0.03842727274559438,0.040174043347686525
1761475499518128600,7.748128662109375,0.020332009410858155,0.0388709248598665,0.0023006050925701857
1761475499528105500,7.75810546875,0.015371756654977798,0.024313114936277268,-0.02454648530073464
1761475499538082600,7.76808251953125,0.009277531433105468,0.025322949565947054,-0.018555062866210937
1761475499548059400,7.778059326171875,0.0329436537027359,0.04016191451847553,-0.02387337181214243
1761475499558036500,7.788036376953125,0.06266366918385029,0.05206577586717903,0.004666932365112006
1761475499568014600,7.7980146484375,0.02402560323178768,0.028684827214479444,0.03087389822397381
1761475499577991400,7.807991455078125,0.01946340988278389,0.028266017280519008,0.027093210641480982
1761475499587968500,7.817968505859375,0.029304420417547224,0.038222543953731654,-0.0027881694138050077
1761475499597945300,7.8279453125,0.05475684158205986,0.014542393158748746,0.007165653845667839
1761475499607922400,7.83792236328125,0.06876315510272979,0.0006525456245988607,-0.009392353451810777
1761475499617900500,7.847900634765625,0.031389994519948956,0.0005354951161891222,0.010229060004279016
1761475499627877400,7.85787744140625,-0.032686464071273805,0.015875103067234157,0.01442252963874489
1761475499637854500,7.8678544921875,-0.07295768418312072,0.0485476847436279,0.010946377960778773
1761475499647831600,7.87783154296875,-0.0817120685249567,0.04545337199009954,0.020920440290682015
1761475499657808600,7.88780859375,-0.08381576280593872,0.04712568911649286,0.044875060645490884
1761475499667786500,7.897786376953125,-0.07210545126795768,0.054316112077236176,0.01721449844483286
1761475499677763600,7.907763671875,-0.04264847063720226,0.0245894476596266,-0.0068654287900775665
1761475499687740700,7.91774072265625,-0.04307283352911472,-0.008022782131657004,0.0035881606850773095
1761475499697717800,7.9277177734375,-0.022722119417786596,-0.022121888502314686,-0.017193272993713617
1761475499707694600,7.937694580078125,-0.04346855484843254,-0.03924823373965919,-0.014618490602262318
1761475499717671700,7.947671630859375,-0.08562661162018775,0.008773308238014579,-0.000961501975916326
1761475499727649500,7.9576494140625,-0.0682049366980791,0.01894851916320622,0.012920564110577105
1761475499737626600,7.967626708984375,-0.02131166809797287,0.0409245694540441,0.03151281718201935
1761475499747603700,7.977603759765625,0.03604746493697166,0.03976064024120569,0.03583564881719649
1761475499757580500,7.98758056640625,0.07073007126152515,0.03241363847926259,0.03765340229626745
1761475499767557600,7.9975576171875,0.06559446193873882,0.026262130112200972,0.054819896880909796
1761475499777534500,8.007534423828124,0.041946459847688675,0.05373334375321865,0.03680840283948928
1761475499787512600,8.0175126953125,0.020574585995078085,0.041435295455157756,0.04336867467053234
1761475499797489700,8.02748974609375,0.004571545699238777,0.04456606776155531,0.04080448673833161
1761475499807466500,8.037466552734376,-0.0036538463324308395,0.04846132163442671,0.019962189717777072
1761475499817443600,8.047443603515624,0.0037041152149438856,0.044826326132938264,0.03289082753695547
1761475499827420400,8.05742041015625,0.005708440774679184,0.04154182456955313,0.049706426324695345
1761475499837398500,8.0673984375,-0.00896422770023346,0.03999715241082012,0.06086275724172592
1761475499847375600,8.077375732421874,-0.0631289486080408,0.05190634752176702,0.08501929337680339
1761475499857352400,8.0873525390625,-0.036765842339396476,0.11836312537826597,0.029827275247871873
1761475499867329500,8.09732958984375,-0.018949615141749383,0.08394808394871651,0.01869030661843717
1761475499877306400,8.107306396484375,-0.04052607165575027,0.04721373272612691,0.061081076167523854
1761475499887284500,8.117284423828124,-0.01648527085483074,0.04538849006034434,0.07396992996558546
1761475499897261600,8.127261474609375,-0.025286416947841645,0.02080225727111101,0.038055005367100235
1761475499907238400,8.13723828125,-0.002263268756866455,0.0332568843703717,0.02273746311739087
1761475499917215500,8.147215576171876,0.002333995905518532,0.0331603651933372,-0.007207739421725273
1761475499927192600,8.157192626953124,0.012313538128137588,0.039310996777564285,0.011703516471013427
1761475499937169700,8.167169677734375,0.02352759058177471,0.019186054246127605,0.018269012466445564
1761475499947147800,8.177147705078125,0.028008535388112068,0.005122603710740805,0.007862038611993194
1761475499957124600,8.18712451171875,0.060195817765593525,0.013471622122079132,-0.01827478462010622
1761475499967101700,8.197101806640624,0.07052899573147296,-0.0008975333616137504,-0.02750131651833653
1761475499977078800,8.207078857421875,0.07567220383882522,0.002022957194969058,-0.006813041015714407
1761475499987055900,8.217055908203125,0.07469020706415176,0.024472543281689286,0.025915654762089253
1761475499997033700,8.22703369140625,0.013242927932739257,0.036622342215478415,0.027810017141327262
1761475500007010800,8.2370107421875,-0.046102410483360286,0.032655776672065255,0.017419482965022326
1761475500016988000,8.24698779296875,-0.08543079678714274,0.05175524861328303,-0.03026917379647493
1761475500026964700,8.25696484375,-0.08229659041464328,0.03348141384124756,-0.059492930193245405
1761475500036941800,8.26694189453125,-0.06916881329417228,0.039079891435429455,-0.04660846030935645
1761475500046920000,8.276919921875,-0.029620646759867666,0.032356428399309516,-0.010828998658806085
1761475500056896800,8.286896728515625,0.031628479450941084,0.03466660503782332,0.00396459278203547
1761475500066873900,8.296873779296876,0.02962123128175735,0.032281682662665845,0.032628304143249985
1761475500076850700,8.3068505859375,0.0001572363883256912,0.026969693859666584,0.028580855383351443
1761475500086827800,8.316827880859375,-0.012703998750448225,0.0337780587002635,-0.015319222750142216
1761475500096806000,8.326805908203125,0.014388590836524962,0.02337218082435429,-0.06411985934153198
1761475500106782700,8.33678271484375,0.070305123847723,0.0075546531632542605,-0.08216631509847938
1761475500116759800,8.346759765625,0.13385142108500003,-0.0011919862635433674,-0.02350179855339229
1761475500126736600,8.356736572265625,0.14384791444242,0.0030373218692839143,0.04051708463169634
1761475500136714800,8.36671484375,0.09802315185666084,0.02610467452816665,0.0835699713513255
1761475500146691800,8.37669189453125,0.03147825732529163,0.06790164290256798,0.07574285792224109
1761475500156668700,8.386668701171875,0.006559504646062851,0.06816117062158882,0.03530738715939224
1761475500166645800,8.396645751953125,0.03253156577050686,0.04851677814871073,0.014901070403307676
1761475500176622600,8.40662255859375,0.025580431458353994,0.01598192444257438,-0.004473053760826588
1761475500186600700,8.4166005859375,0.020884382596611975,0.013579101084545254,0.005966872515156865
1761475500196577800,8.426577880859375,0.01786006633937359,0.04734028171524405,0.02638685247041285
1761475500206554600,8.4365546875,0.01567570803761482,0.04201806377917528,0.012209493231773375
1761475500216531700,8.44653173828125,-0.008148819664120673,0.020080080476403236,0.03611198154054582
1761475500226508500,8.456508544921874,-0.015940496453642844,0.020279694701731205,0.025552739733830092
1761475500236485600,8.466485595703125,-0.009162965142726898,0.027795404094085097,0.01731967585235834
1761475500246463700,8.476463623046875,0.014887772530317306,0.03135996470786631,0.008886047897487879
1761475500256440600,8.486440673828126,0.012446224597096442,0.004536547451093793,0.02509177115857601
1761475500266417700,8.496417724609374,-0.019621230792999267,-0.0394414182242006,0.03127667033858597
1761475500276394800,8.506394775390625,-0.026754151412844655,-0.04533581002503633,-0.002619096457213163
1761475500286371600,8.51637158203125,-0.05615969411730766,-0.062240402270480985,-0.01385842948257923
1761475500296349700,8.526349609375,-0.07898644295334815,-0.04915003455094993,-0.04808569325506687
1761475500306326500,8.536326416015624,-0.12827625130116938,-0.04454349060356617,-0.06793985602110623
1761475500316303600,8.5463037109375,-0.14590133984088896,-0.029388226243481037,-0.04240713616199791
1761475500326281000,8.556281005859375,-0.13197861295044422,-0.014935922520980239,-0.0006073182433843612
1761475500336257800,8.5662578125,-0.13744389261901377,0.023058511765301225,0.05630538619831204
1761475500346235600,8.576235595703125,-0.07432955705821513,0.04950893099121749,0.09389591585882008
1761475500356212700,8.586212646484375,-0.0068231240183115,0.061287777720764276,0.11674239230863749
1761475500366189800,8.59618994140625,0.061410454252362245,0.05762538275569677,0.07451675019338727
1761475500376167000,8.6061669921875,0.10827157414853572,0.01727547138445079,0.04488054053820669
1761475500386143700,8.616143798828125,0.1044990698724985,-0.0007477496273815632,0.02665229847356677
1761475500396121900,8.626121826171875,0.051717327755689615,0.0131952893987298,0.030537396278604863
1761475500406099000,8.636098876953126,0.044078795701265334,-0.007587751715257764,0.03301335793808102
1761475500416075800,8.64607568359375,0.06382277609109878,-0.023556597480550407,0.009172390558198094
1761475500426052900,8.656052978515625,0.0788712921410799,-0.011448957188054918,-0.022209712916240094
1761475500436029700,8.66602978515625,0.08589256907999515,0.004062573263794183,-0.0056497693900018926
1761475500446007800,8.6760078125,0.08817161992788314,-0.005641732214018702,0.03073584146015346
1761475500455985000,8.68598486328125,0.07108896770179271,-0.0067838149212300775,0.05367167669385671
1761475500465961700,8.695961669921875,0.03447393200993538,0.026915479454398154,0.053495954800769685
1761475500475938800,8.705938720703125,0.00006079027652740478,0.03699614396393299,0.05665595320165157
1761475500485915600,8.71591552734375,-0.028826281511783597,0.04195398556701839,0.07463124341852963
1761475500495892700,8.725892822265624,-0.05908756426274776,0.04752199495770037,0.048903074052557345
1761475500505870800,8.735870849609375,-0.05488602091968059,0.04558788508996367,0.030266762643679973
1761475500515847700,8.74584765625,-0.003665536770224571,0.03950074719600379,0.006308087168261409
1761475500525824800,8.75582470703125,-0.00014846855998039245,0.02450849137790501,-0.0052139352560043335
1761475500535801600,8.765801513671875,0.008456862699985504,0.017325813332200048,0.029598727189004418
1761475500545778700,8.77577880859375,-0.01706570109128952,0.031403365458175535,0.050982218414172525
1761475500555756800,8.7857568359375,-0.01624561688005924,0.07426372528038919,0.051584641286730765
1761475500565733600,8.795733642578124,-0.02740706236362457,0.06994951534308493,0.03072247052192688
1761475500575710700,8.805710693359375,-0.005071311914920807,0.04036350150518119,0.013586334542930125
1761475500585687600,8.8156875,-0.014706570744514464,0.0035606150910258293,-0.03773717158958315
1761475500595664600,8.82566455078125,-0.03399637762606144,-0.031715280951559545,-0.07058737485520541
1761475500605641700,8.835641845703124,-0.05598316850662231,-0.03410919035077095,-0.07639291932880878
1761475500615619600,8.84561962890625,-0.07066109767854213,-0.010440437732636927,-0.06876498173363506
1761475500625596700,8.8555966796875,-0.05180909769237041,0.008971826484799385,-0.039957989444211126
1761475500635573500,8.865573486328126,-0.054797758114337916,0.0027742139536887406,0.012154109782725572
1761475500645550800,8.87555078125,-0.05308160184621811,-0.0232561532292515,0.017851152380555867
1761475500655528000,8.88552783203125,-0.07168167289793491,-0.017696254079788924,-0.005987257716059685
1761475500665505500,8.895505615234375,-0.08337795591056346,-0.0094019615303725,-0.04966185653060674
1761475500675482600,8.905482666015626,-0.06239245102703571,-0.01933013889193535,-0.07462875920049845
1761475500685460000,8.9154599609375,-0.014126140508055687,-0.028054055030271408,-0.05621617354489863
1761475500695436800,8.925436767578125,0.01702127742767334,-0.042730669027939434,-0.005865823293477296
1761475500705414000,8.935413818359375,0.03758592655062675,-0.03323496479950845,0.03870784325264394
1761475500715391700,8.945391845703124,0.05297931051552295,-0.00282031811773777,0.03567702418938279
1761475500725368800,8.955368896484375,0.059846858197450635,-0.02074979643151164,0.0159125124681741
1761475500735346000,8.965345947265625,0.07428104174137115,-0.016889613872021435,-0.01733195081204176
1761475500745322800,8.97532275390625,0.09754676651656627,0.009380991807579994,-0.0250802268512547
1761475500755299800,8.9852998046875,0.08328618597388267,0.012549758036807178,0.005016074596345424
1761475500765277700,8.995277587890625,0.057740241307020185,0.024413944962248205,0.04904153267517686
1761475500775254800,9.0052548828125,-0.0009001637101173401,0.04955700791664421,0.09551635666750372
1761475500785232000,9.01523193359375,-0.037549686193466186,0.07454897196255623,0.08424538639485836
1761475500795208700,9.025208740234374,-0.061920741862058634,0.0798170485585928,0.017973390520736574
1761475500805185800,9.035185791015625,-0.09198796334564685,0.05699957900755107,-0.005621200882643461
1761475500815164000,9.045163818359375,-0.0880079537987709,0.04134790943264961,-0.00024294191040098666
1761475500825140700,9.055140625,-0.07309270873963833,0.033048210055753584,-0.0020871815375983712
1761475500835117800,9.065117919921875,-0.042720951351523394,0.034321883253380654,0.0040532209135591985
1761475500845094700,9.0750947265625,-0.026612112593650816,0.04357376878857613,0.05582936618439853
1761475500855071700,9.08507177734375,0.004188683861494064,0.028942966694012282,0.07394969089515507
1761475500865048600,9.095048583984376,0.01910685153007507,0.027167700649797916,0.10170505523979663
1761475500875026700,9.105026611328125,0.061411623296141624,0.028936317757517097,0.10468239055015147
1761475500885003800,9.115003662109375,0.09906652342975139,0.05656820185296237,0.07656864122189581
1761475500894980600,9.124980712890626,0.13079612516760825,0.06435615231543779,0.059204176379740237
1761475500904957700,9.134957763671874,0.10956336752474308,0.024466624997556207,0.07015628996156156
1761475500914934500,9.1449345703125,0.05545417619645595,0.019678513938188553,0.0451695135474205
1761475500924912600,9.15491259765625,0.016285948890447616,0.035158626338467,0.015624270111322402
1761475500934890000,9.164889892578126,0.03368833459019661,0.027432416000589727,0.009472396418079733
1761475500944867000,9.1748671875,0.07456453485786914,-0.014846563737094401,0.005165566069632768
1761475500954844000,9.184843994140625,0.09376432536840439,-0.0222306826390326,-0.006926657458022237
1761475500964821000,9.194821044921875,0.07040624613463878,-0.022528569607064126,0.00436769369021058
1761475500974798000,9.204798095703126,0.0022527473628520963,0.0005791150622069835,0.007816665100306272
1761475500984776000,9.21477587890625,-0.05950491289198398,0.04074709399528801,0.0036062808636575937
1761475500994753000,9.2247529296875,-0.08707739495038985,0.04934877199344337,0.018458251428231594
1761475501004730000,9.234730224609375,-0.07965279790759086,0.03708623340018093,0.03911116335652769
1761475501014707200,9.244707275390626,-0.05905015486180782,0.04129574085399508,0.015567936814203858
1761475501024684000,9.25468408203125,-0.042027123868465424,0.02509199035428464,-0.015566913900896906
1761475501034662000,9.264661865234375,-0.036137481307983395,0.005896437627449631,0.011348565553501248
1761475501044639200,9.27463916015625,-0.024373393756151197,0.008211071245372296,0.039581557347252966
1761475501054616000,9.284615966796874,0.01799625993967056,0.029138270070403812,0.07475070507973432
1761475501064593200,9.29459326171875,0.017660159853100776,0.02570164668522775,0.0791089733544737
1761475501074570200,9.3045703125,0.009749825119972228,0.013257175653800368,0.07398169346861541
1761475501084548000,9.314548095703126,0.005630114841461181,0.00998874844238162,0.03200023537278175
1761475501094525200,9.324525146484374,-0.01963116766512394,-0.009369739761203527,-0.015113324914500117
1761475501104502000,9.334501953125,-0.03915887495577335,-0.012638240037858486,-0.009296966785937548
1761475501114479000,9.34447900390625,-0.012518705311417579,0.013935586372017859,0.008072320361807942
1761475501124456200,9.354456298828126,0.012117723295092583,0.025064298629760742,0.010064078700914978
1761475501134433000,9.36443310546875,0.03746843765079975,0.03379603274837136,0.06634871437214314
1761475501144411100,9.3744111328125,0.061140989661216734,0.04226275925524533,0.06958221640065312
1761475501154388000,9.384387939453125,0.02362520573735237,0.046810339557006954,0.04846044485159218
1761475501164365000,9.394364990234376,-0.025058453410863876,0.04485803644545376,0.02197137411572039
1761475501174342100,9.404342041015624,-0.0550555322676897,0.03681888770088553,-0.014017419436573982
1761475501184319000,9.414319091796875,-0.06826806506216526,0.07326163556575775,-0.013002397175133228
1761475501194297000,9.424297119140626,-0.02967442277371883,0.08454509999379516,0.012375424383208156
1761475501204274200,9.434274169921874,0.014114450070261955,0.0626947949744761,0.011363836187869309
1761475501214251000,9.4442509765625,0.03515723809897899,0.06740706431865692,0.017043050868064163
1761475501224228000,9.45422802734375,0.0701788671195507,0.04822773207426071,-0.023104542864114046
1761475501234205000,9.464204833984375,0.12315233241617679,0.04467449657209217,-0.009062792703881859
1761475501244183000,9.47418310546875,0.16654723750650882,0.02029533066228032,0.011259425965324043
1761475501254160100,9.48416015625,0.1628092200219631,0.006146612996235489,0.009737111768871546
1761475501264137000,9.494136962890625,0.11532616883516311,0.012695669313520192,0.03912774916514754
1761475501274114000,9.504114013671876,0.02553016257584095,0.029246845011413097,0.03910845994278788
1761475501284091000,9.5140908203125,-0.02423077041506767,0.061162616971135134,0.012744769152253865
1761475501294068200,9.524068115234375,-0.02718669761121273,0.06297989552617073,-0.021888298942148682
1761475501304046000,9.534046142578125,0.00180208098590374,0.03492920149676502,-0.05233845532871782
1761475501314023000,9.54402294921875,-0.007573065602779388,0.0071843585461378095,-0.05099471256956458
1761475501324000000,9.554,-0.013825111734867095,0.005144961673021317,-0.02492730131186545
1761475501333977000,9.56397705078125,-0.021868717458844184,0.03898753697685897,0.012988222519308328
1761475501343954200,9.5739541015625,-0.010527823755145072,0.07029014547429978,0.036548984718322755
1761475501353932000,9.58393212890625,-0.017391279783844946,0.06717990449927747,0.05265753121525049
1761475501363909000,9.5939091796875,-0.03246376123130321,0.049578416030853986,0.06761778445988893
1761475501373886200,9.60388623046875,-0.08060556858778,0.011325915330275892,0.02488251232206821
1761475501383863000,9.613863037109375,-0.0922387232363224,0.008926599103584886,-0.02781805431731045
1761475501393840000,9.623840087890626,-0.0779296273767948,0.003934855230897665,-0.06506042812727392
1761475501403817200,9.633817138671875,-0.04967383922934532,-0.0047537703983485695,-0.05090623056851327
1761475501413795000,9.643795166015625,-0.04145195432901382,0.012950959248840809,-0.023471476480364798
1761475501423772200,9.653772216796876,-0.038110242685675616,0.00719955611526966,-0.014031082635745405
1761475501433749000,9.6637490234375,-0.0187701669216156,0.0036347763057798144,0.00490998387336731
1761475501443726000,9.67372607421875,-0.015592705929279327,0.0019794103141874075,0.0144718852058053
1761475501453703200,9.683703125,-0.003591302490234375,0.011913579025119542,-0.009719356916472315
1761475501463681000,9.693680908203126,-0.0029489129334688184,0.007601414914429188,-0.018090002637729048
1761475501473658000,9.703658203125,-0.02969897269308567,0.006555997514724731,0.003014306319877505
1761475501483635200,9.71363525390625,-0.04009761711061001,-0.0013423545196652412,0.004263721859082579
1761475501493612000,9.723612060546875,-0.038486674782633776,0.00024235738851130007,-0.03456139109767973
1761475501503589000,9.733589111328126,-0.019241291564702986,0.019946224963665007,-0.019608517441898583
1761475501513566000,9.74356591796875,0.018317162457108495,0.033346535415202376,0.016073840509727596
1761475501523544000,9.7535439453125,0.042537996000051495,0.023345731208845973,0.0738250416021794
1761475501533521200,9.763521240234375,0.09068272596597671,0.019731705430150032,0.0970953694872558
1761475501543498000,9.773498046875,0.1013058267891407,0.024559490912780164,0.11269640485346316
1761475501553475000,9.78347509765625,0.07533668827414512,0.025468714712187646,0.08493957920409738
1761475501563452000,9.793451904296875,0.04079787433445453,0.024511633183062074,0.02314078322127461
1761475501573430000,9.803429931640625,-0.011741291198134421,0.015736425248906016,-0.00812448894046247
1761475501583407000,9.813406982421874,-0.015974398723244666,0.026911022474989294,-0.018185498901456595
1761475501593384000,9.823384033203125,0.009505494970083236,0.03035517157949507,-0.012127075645327567
1761475501603361000,9.833361083984375,0.03651858958005905,0.048877939611300825,0.019464871187508104
1761475501613338000,9.843338134765625,0.05588672239482403,0.04030095766298473,0.059100277613848444
1761475501623315200,9.853315185546874,0.03363338953256607,0.002424304537475109,0.07046301782317459
1761475501633293000,9.86329296875,-0.024556933629512785,0.013791136400029063,0.053366264006495474
1761475501643270000,9.873269775390625,-0.08156535353064537,0.01873283058591187,0.03612169921696186
1761475501653247200,9.883247314453126,-0.09364274481534958,0.03637874271795154,0.029227190462872383
1761475501663224000,9.89322412109375,-0.09873568404018879,0.02144603506736457,0.03202851161919534
1761475501673201200,9.903201171875,-0.0594341857433319,-0.010280132604390382,0.0360409621309489
1761475501683179300,9.91317919921875,-0.05268880313634872,-0.00012969079427421092,0.049593248273804784
1761475501693156000,9.923156005859376,-0.050279988428950304,0.007759235824644565,0.012133432320877909
1761475501703133200,9.93313330078125,-0.10049158779680728,0.005386003887280821,0.022467340939119458
1761475501713110000,9.943110107421875,-0.09749883572161197,0.002595642516389489,0.002707505393028259
1761475501723087000,9.953087158203125,-0.07821896571218967,-0.003047039545699954,-0.01482690918855369
1761475501733064200,9.963064208984376,-0.06403378849327564,-0.004718918280676007,-0.005865457967296242
1761475501743042000,9.9730419921875,-0.07920213153064251,-0.010560118589550256,-0.028326953687518832
1761475501753019100,9.98301904296875,-0.07234510524272918,0.021815745162591337,-0.01935067022331059
1761475501762996000,9.992995849609375,-0.06754968765974044,0.037907632785663004,-0.00888268689662218
1761475501772973000,10.00297314453125,-0.029889526829123495,0.03506977901123464,-0.007671703671663999
1761475501782950100,10.0129501953125,0.040519057393074036,0.036924540032446385,0.0034350890152156353
1761475501792928000,10.022927978515625,0.09288695801198482,0.016038915326818823,-0.003331847836449742
1761475501802905000,10.032905029296876,0.16082476820647715,0.0028217063572257756,-0.016736980593577026
1761475501812882200,10.042882080078124,0.17510229988396167,0.007017477546632289,-0.026076398281753062
1761475501822859000,10.05285888671875,0.15553016892969607,0.008907894403114914,-0.022869199738278983
1761475501832836000,10.062836181640625,0.12284370485842228,0.016422507816925645,-0.01746617165096104
1761475501842813000,10.07281298828125,0.14502221891880035,-0.012122618665918707,-0.010131298718228935
1761475501852791000,10.082791015625,0.17948153788149357,-0.010564721699431538,0.012370675142854452
1761475501862768000,10.09276806640625,0.20326690261662006,0.009670841599628329,0.03817958159483969
1761475501872745000,10.102744873046875,0.17224106523394583,-0.0025149054303765296,0.06506722319424152
1761475501882722000,10.11272216796875,0.14074644129574299,0.019652283518388866,0.09428177337124943
1761475501892699000,10.122698974609374,0.06215571966171264,0.04948832659460604,0.10032755634151398
1761475501902676200,10.13267626953125,0.08765607162117958,0.0799297882180661,0.12260368555746971
1761475501912654000,10.142654052734375,0.0012824410259723662,0.10032689875438809,0.13022307452000678
1761475501922631000,10.152630859375,-0.046964580270648,0.09569427051767707,0.08587196468338369
1761475501932608000,10.16260791015625,-0.09234685978591442,0.09904796485975384,0.06182897192537784
1761475501942584800,10.172584716796875,-0.11146014105677604,0.06828881558924912,0.00165828860104084
1761475501952562000,10.18256201171875,-0.13196283085942268,0.000540536617487669,-0.025372926187515257
1761475501962540000,10.1925400390625,-0.16905951258838176,-0.013760010609403251,-0.03734663790203631
1761475501972516900,10.202516845703125,-0.19138883329629897,0.011029854993149638,-0.05695880860574543
1761475501982494000,10.212493896484375,-0.19011749818623064,0.021271482218056918,-0.01190714928433299
1761475501992471000,10.222470947265625,-0.16340017165243625,0.0025352175660431383,0.015983020421117544
1761475502002448000,10.23244775390625,-0.10530161842703818,0.009553571895509958,0.015139190008118747
1761475502012425000,10.242425048828125,-0.059545829424262044,-0.015227818139642477,-0.03287248816266656
1761475502022402800,10.25240283203125,-0.050099371165037154,-0.0529337178081274,-0.06454962906092405
1761475502032380000,10.2623798828125,-0.061873395588994025,-0.07257577219344676,-0.09125628807023167
1761475502042357000,10.27235693359375,-0.05092179346382618,-0.047184068240225314,-0.06965396646261215
1761475502052333800,10.282333740234375,-0.05938157877326011,-0.03208331054635346,-0.028855069214850662
1761475502062311000,10.292310791015625,-0.02782791812419891,-0.008209975266829133,0.03590074994266033
1761475502072288800,10.302288818359376,0.0024760347247123715,0.017800445106625557,0.04801306641027331
1761475502082265900,10.312265869140624,0.03617372166514397,0.027649638947844505,0.047488969470933076
1761475502092243000,10.322242919921875,0.11017886907458305,0.02413666239082813,0.043726694327965374
1761475502102219800,10.3322197265625,0.2027162829965353,0.022123569002747534,0.041454000155627724
1761475502112196900,10.34219677734375,0.2318120290994644,-0.010612652494385838,0.04892294779680669
1761475502122173700,10.352173583984374,0.17398410950899124,-0.012336188351362944,0.04679397294409573
1761475502132151800,10.36215185546875,0.10117898553907871,-0.011082754224166273,0.013088906414806842
1761475502142129000,10.37212890625,0.04739361933767795,0.04375920835807919,-0.006649740212783217
1761475502152105700,10.382105712890626,0.04586275650858879,0.06751505473777651,0.008491860948130488
1761475502162082800,10.392082763671874,0.055772156104445456,0.06201134275496006,0.06243439047262072
1761475502172059600,10.4020595703125,0.06701835726201534,0.06845547739304601,0.09812661223113536
1761475502182037000,10.412037109375,0.0619616583943367,0.04652355850487947,0.11142587346099317
1761475502192014800,10.422014892578124,0.025496260306239128,0.06486790122985839,0.14395415129587052
1761475502201991700,10.43199169921875,-0.015813655203580856,0.07921594086028635,0.11207052804008126
1761475502211969000,10.441968994140625,-0.05631342337429523,0.060010232065618035,0.06224975462071597
1761475502221945900,10.45194580078125,-0.07985562700331211,0.050678193966299294,0.010220219110697508
1761475502231923000,10.4619228515625,-0.08296119180321693,0.016173866818100215,-0.04671038631387055
1761475502241900800,10.47190087890625,-0.08912263704240321,0.009493585336580871,-0.05345379615947604
1761475502251878000,10.4818779296875,-0.1166378359556198,0.006501344718039035,-0.045655689629167315
1761475502261855000,10.49185498046875,-0.12183423555493354,0.024804770910739897,-0.028578955687209962
1761475502271831800,10.501831787109374,-0.0995318028539419,0.059715413837507364,0.026945947657898067
1761475502281809000,10.511808837890625,-0.07466624166667461,0.09117701228894293,0.04605564873218536
1761475502291786000,10.521785888671875,-0.03346154009699821,0.04550393313355744,0.05217844246141612
1761475502301763800,10.531763916015626,-0.009839841490983962,0.016220117112621665,0.024259485052898523
1761475502311741000,10.541740966796874,0.029947979018092152,-0.017800298976153133,-0.021904592489823696
1761475502321718000,10.551718017578125,0.004520107772946358,-0.01371018011830747,-0.08070223389528691
1761475502331694800,10.56169482421875,0.02806932566463947,-0.04328801064975559,-0.12052176471687853
1761475502341672000,10.571671875,0.05134615635573864,-0.056811070698127145,-0.11692958544380962
1761475502351648800,10.581648681640624,0.06953121686577797,-0.05237170001119375,-0.11296835366263985
1761475502361627000,10.591626953125,0.09857084886729717,-0.052178515526652335,-0.032701588575169444
1761475502371604000,10.60160400390625,0.1570277140110731,-0.019261530635133386,0.040347719414159655
1761475502381580800,10.611580810546876,0.15334347254037856,0.0028531244087964293,0.07192863339632749
1761475502391558000,10.621557861328125,0.11638356893360614,0.01643565955944359,0.08648571266755462
1761475502401534700,10.63153466796875,0.07486322554349899,0.02364456802494824,0.08657127205915749
1761475502411512800,10.641512939453126,-0.03710544955730438,0.047649420729652045,0.026760215827450154
1761475502421490000,10.651489990234374,-0.08440554539263248,0.06435264518409967,-0.03216638571992516
1761475502431466800,10.661466796875,-0.08802198232412338,0.0776669578526169,-0.04362133425734937
1761475502441443800,10.67144384765625,-0.10977788705825806,0.08746595587655902,0.060736573578789824
1761475502451420700,10.681420654296875,-0.09828326409757136,0.09749956637397408,0.1440861801777035
1761475502461397800,10.691397705078124,-0.03558861525356769,0.09988719216287135,0.14007804051488637
1761475502471376000,10.7013759765625,-0.003936170405149459,0.10843100249394774,0.16271920365095138
1761475502481352700,10.711352783203125,-0.018864859467744827,0.11839110936373472,0.15448095213770865
1761475502491329800,10.721329833984376,-0.032141105148196215,0.07453041339255868,0.13893164695873855
1761475502501307000,10.731306884765624,-0.03685644323229789,0.0590763852816075,0.09828311796709895
1761475502511284000,10.741283935546875,-0.028805238723754883,0.05357018908075988,0.05940357140935957
1761475502521261000,10.751260986328125,-0.0323947876483202,0.032757118154689666,0.07930800305791198
1761475502531239000,10.761239013671876,-0.008476151922345162,0.029660321183130143,0.0654431438345462
1761475502541216000,10.771216064453125,0.011367197188735008,0.02208257940523326,0.04482230754494667
1761475502551192800,10.78119287109375,0.03899287073910236,0.0071843585461378095,0.011776362511515617
1761475502561170000,10.791169921875,0.06932312707304954,-0.014505860540643333,0.01744907438568771
1761475502571147000,10.80114697265625,0.06466857926547527,-0.028527590826153755,0.016844532621279357
1761475502581124900,10.811124755859375,0.01602174499630928,-0.031049145193025467,0.009461217436939477
1761475502591102000,10.82110205078125,-0.036545477586984634,-0.01348112060278654,0.019808277797698972
1761475502601078800,10.831078857421875,-0.0751022949963808,0.022621435522288083,0.0010452712692320346
1761475502611055900,10.841055908203124,-0.05474982731938362,0.0406430490989238,0.010501593335345387
1761475502621033000,10.851032958984375,-0.005059621477127075,0.047470410900935525,0.016692410799488425
1761475502631009800,10.861009765625,0.05643091227412223,0.03414440779462456,0.007764569586887956
1761475502640988000,10.87098779296875,0.08727963952422141,-0.016477452874556184,-0.02199380514323711
1761475502650965000,10.880965087890624,0.0909399155974388,-0.04778349543809891,-0.027313538861274717
1761475502660941800,10.89094189453125,0.03588496785163879,-0.03353467839844525,-0.006522314440831542
1761475502670919000,10.9009189453125,-0.03615209435522556,0.012826163825392723,-0.041284269611909986
1761475502680895700,10.910895751953126,-0.05967617780566215,0.028109511544555425,-0.04618924851659685
1761475502690872800,10.920872802734374,-0.03425298273563385,0.06406352604441344,0.015605967269651591
1761475502700851000,10.930850830078125,-0.016631985849142075,0.08350194761641323,0.07689378152303397
1761475502710827800,10.940827880859375,0.03420797455012798,0.08990392361320555,0.08237140921652317
1761475502720804900,10.950804931640626,0.11457447368502616,0.058822556651011104,0.07919226772375404
1761475502730781700,10.96078173828125,0.1449018074095249,0.0004646218370646238,0.05052895822133869
1761475502740758800,10.9707587890625,0.10438742619156836,-0.05458849927783012,-0.004668539800308644
1761475502750736000,10.98073583984375,0.0021785130828619,-0.07882087712809444,-0.07963599290326237
1761475502760713700,10.990713623046876,-0.14480945295095443,-0.06978614147491753,-0.09545395895577967
1761475502770690800,11.00069091796875,-0.24522096124887466,-0.01543495808430016,-0.06944331938661634
1761475502780668000,11.01066796875,-0.25648060640990733,0.0337828079406172,-0.07274349344316869
1761475502790645000,11.02064501953125,-0.14465163204073905,0.10668803128413855,-0.03423833315577358
1761475502800621800,11.030621826171876,-0.12795067260861395,0.14319683012254536,0.036583434977196155
1761475502810599000,11.040598876953124,0.06325520533621311,0.09810264683365821,0.22699231732543557
1761475502820577000,11.050576904296875,0.1600128673017025,0.05225611080750823,0.27866328518874944
1761475502830553900,11.060553955078126,0.1245113458096981,0.005221168714389205,0.19181597266718745
1761475502840531000,11.070531005859374,0.11821604505777358,-0.04087656559385359,0.0260975872002542
1761475502850508000,11.080508056640625,0.16567805345654488,0.10540917045474052,-0.14433767072074113
1761475502860484900,11.09048486328125,0.21111235541999337,0.15506021333038805,-0.21736217306237668
1761475502870463000,11.100462890625,0.2149234381407499,0.026387583122774956,0.037647118685953315
