time,seconds_elapsed,z,y,x
1761475504516597500,0.069597412109375,-0.8494108434796332,-0.03334978681821376,-0.28380368028450753
1761475504526574600,0.07957470703125,-0.826236888641119,-0.03351560837179422,-0.2877133280089125
1761475504536551400,0.089551513671875,-0.7062444815605878,0.0003161898097023368,-0.26151560490243136
1761475504546528500,0.099528564453125,-0.5212345356464385,0.013524777081422508,-0.20052476430162786
1761475504556506600,0.109506591796875,-0.31588498153686523,0.024198329450190067,-0.12448745347745716
1761475504566483500,0.1194833984375,-0.1555634866774082,0.03009385376218706,-0.03284655000381172
1761475504576460500,0.12946044921875,-0.08562836518585681,0.022682225798815486,0.05882376222740859
1761475504586437400,0.139437255859375,-0.06415595356822014,0.0625314211063087,0.056533057474344964
1761475504596414500,0.14941455078125,-0.022657237488031386,0.11892331654429435,0.04912354840282351
1761475504606391600,0.1593916015625,0.043243513920903205,0.1279656509820372,0.04197133856061846
1761475504616369400,0.169369384765625,0.1161065055578947,0.13741254763267932,0.05983060118239373
1761475504626346500,0.179346435546875,0.21923077994585036,0.08892959868833422,0.09767919725719838
1761475504636323300,0.1893232421875,0.2703197466701269,0.02308656881600618,0.1292896295947954
1761475504646300700,0.19930078125,0.30826690774857995,0.030551643999665975,0.113005836128816
1761475504656277800,0.20927783203125,0.3838619546979666,0.038440789814293386,0.06251541981957852
1761475504666254600,0.219254638671875,0.4744920736938715,0.021893303910829127,0.02843867043368518
1761475504676231700,0.229231689453125,0.5743962169915438,-0.01345134651903063,0.07149279926232993
1761475504686209500,0.23920947265625,0.6084855335980653,-0.0554038707813248,0.035107334542647
1761475504696186600,0.2491865234375,0.5713292306363582,-0.10031608509942888,0.018397534216940403
1761475504706163700,0.259163818359375,0.4391740920752287,-0.09083820878863334,0.01856887219585478
1761475504716140500,0.269140625,0.28820377840697764,-0.007620558006316423,-0.04969765849635005
1761475504726117600,0.27911767578125,0.1822246991097927,0.06577208352796733,-0.053510129456594585
1761475504736094500,0.289094482421875,0.11346037496328354,0.10603143053893,-0.02640650701895356
1761475504746072600,0.299072509765625,0.09590133739709854,0.10991897602938115,0.012917276174947619
1761475504756049700,0.309049560546875,0.11572539728581904,0.13162837474066763,0.06104980424642562
1761475504766026500,0.319026611328125,0.11695113968849181,0.10303560972381383,0.04588504140563309
1761475504776003600,0.329003662109375,0.1053577325284481,0.06362809376921505,0.028645006660744547
1761475504785980400,0.33898046875,0.07022095269560813,0.08185903924759477,0.01044138758070767
1761475504795957500,0.34895751953125,0.015951017847657203,0.07038045410625636,0.00657543286755681
1761475504805934600,0.3589345703125,0.00973404302895069,0.061787872730009255,0.03699818979054689
1761475504815912400,0.368912353515625,0.0037555531412363052,0.04768847409840673,0.07602861606106162
1761475504825889500,0.3788896484375,-0.06276654503643513,0.03936707434635609,0.11185093047264963
1761475504835866400,0.388866455078125,-0.17320260374248025,-0.0013331117672845721,0.07225739042665809
1761475504845843500,0.398843505859375,-0.2805208226889372,0.018316687533073125,0.02105232304204255
1761475504855820500,0.408820556640625,-0.329936303243041,0.027309556805901226,-0.030584450290724634
1761475504865797600,0.418797607421875,-0.36459202156066894,0.01697221412155777,-0.04639920147284865
1761475504875775500,0.428775390625,-0.33593525139689445,-0.03873564457502216,-0.03392199721559882
1761475504885752300,0.43875244140625,-0.27850831382274627,-0.06518463902883231,0.014648264686018228
1761475504895729700,0.448729736328125,-0.23564883078336715,-0.058254620569944376,0.06722695851139723
1761475504905706800,0.458706787109375,-0.24909984850883482,-0.03067556264027953,0.07603007736578583
1761475504915683600,0.46868359375,-0.24196342075765132,-0.01811458908971399,0.08749518197104335
1761475504925660700,0.47866064453125,-0.20933891600668428,-0.007623663278855383,0.08162928561232984
1761475504935637500,0.488637451171875,-0.1360088913798332,-0.020017573166824877,0.047397126469016074
1761475504945615000,0.498614990234375,-0.06688216366171837,-0.053542058964818715,0.015024367989413439
1761475504955592200,0.50859228515625,-0.007737900775671005,-0.06190693253241479,0.0210107854552567
1761475504965569000,0.518569091796875,0.032841946893930433,-0.046062297668680544,0.022119258153811095
1761475504975546000,0.528546142578125,0.08844692973792552,0.003950345060974359,0.042111185422725975
1761475504985523000,0.53852294921875,0.17462942167520523,-0.00685505352653563,0.04743453586995602
1761475504995500000,0.5485,0.24540683920979497,-0.031509090854972596,0.05568082455918193
1761475505005478100,0.55847802734375,0.2538216163337231,-0.06237462310940027,0.060992557633854444
1761475505015455000,0.568455078125,0.21265315512120722,-0.06836984493620693,0.020943601970560846
1761475505025432000,0.57843212890625,0.11803893492519855,-0.032164120697602626,-0.0015023308543488383
1761475505035409200,0.5884091796875,0.031706805384159084,0.032143370170518756,-0.022170842210575938
1761475505045386000,0.598385986328125,0.026427403676509857,0.06597476649321615,0.010857713296636939
1761475505055363000,0.608363037109375,0.049424248382449146,0.0946251799814403,0.04900638829655945
1761475505065341000,0.6183408203125,0.10923194361329078,0.08691350962556899,0.09290105960257351
1761475505075318000,0.628318115234375,0.13844400957226752,0.09220862035900354,0.10055307219307869
1761475505085295000,0.638295166015625,0.12006021161973476,0.07740494591556489,0.11165339860655367
1761475505095272200,0.648272216796875,0.028925065711140632,0.10556421488597989,0.09948723305985331
1761475505105249300,0.658249267578125,-0.05237491488158703,0.1282938600230962,0.03179134186245501
1761475505115226000,0.66822607421875,-0.08942658842504024,0.16193236412219703,0.009925912339240311
1761475505125203200,0.678203125,-0.08030337077081202,0.15028861501440405,0.026856077417358754
1761475505135181300,0.688181396484375,-0.05224164389073849,0.10251067253425716,0.04164831715133041
1761475505145158100,0.698158203125,-0.014943302109837532,0.05799041667580604,0.07498922654334456
1761475505155135200,0.70813525390625,-0.003308393895626068,0.026552637491375205,0.09066299835219979
1761475505165112000,0.718112060546875,-0.05548164872527122,0.020412308105453848,0.0565974279474467
1761475505175089200,0.728089111328125,-0.10170271715223789,0.03676489249132573,0.039684140938892956
1761475505185066000,0.73806591796875,-0.08977963964641093,0.05829575629793107,0.025983934225328267
1761475505195044000,0.748044189453125,-0.028803485158085822,0.031054478955268857,0.003311572233401239
1761475505205021200,0.758021240234375,0.036356677016615865,-0.030232348917424677,-0.025060060846060512
1761475505214998000,0.767998046875,0.03506429911851883,-0.06229103647917509,-0.007531418418139219
1761475505224975000,0.77797509765625,0.04587912312150001,-0.08372077799886464,-0.002167735960520804
1761475505234952200,0.7879521484375,0.07927285867929458,-0.0689252137966454,-0.010798128596507013
1761475505244929000,0.797928955078125,0.13585633116662502,-0.05802285764068365,-0.005664492035098373
1761475505254906000,0.807906005859375,0.1478121418982744,-0.08352832416668533,-0.018409589980915186
1761475505264884000,0.817884033203125,0.0611380670517683,-0.11314276038147508,-0.04398724496029317
1761475505274861000,0.827861083984375,-0.05908405713140964,-0.08407711715586483,-0.09727580408807843
1761475505284838100,0.837838134765625,-0.11726385889947413,0.003325856487080455,-0.11952994066793471
1761475505294815000,0.84781494140625,-0.10756488718390464,0.028400749576091764,-0.10001607923954725
1761475505304792000,0.8577919921875,-0.08661854526698588,0.03585077332109213,-0.023235183506458996
1761475505314769200,0.86776904296875,-0.035160160708427424,0.03267944980859756,0.02396828355398029
1761475505324747000,0.8777470703125,0.006228665256500244,0.02282711416222155,0.02335822536423802
1761475505334724000,0.88772412109375,0.04098433681726456,0.04306253133080899,0.0033460224922746418
1761475505344701000,0.897700927734375,0.06991933940052986,0.04146707883290946,-0.010577325452677904
1761475505354678300,0.90767822265625,0.012352116572856902,0.0027828356515616176,0.020622261061705647
1761475505364655000,0.917655029296875,-0.09354746774733066,0.0005783113446086645,0.0208791584322229
1761475505374632200,0.927632080078125,-0.17257541175484656,0.07398805014416575,-0.021421887006796893
1761475505384609000,0.937609130859375,-0.14027005595564843,0.11597900672070681,-0.03244618904199451
1761475505394587100,0.947587158203125,-0.050182957795262335,0.073387526967749,0.011364201514050364
1761475505404564200,0.957564208984375,0.030585107877850532,0.033522987960651514,0.043371341551654036
1761475505414541000,0.967541015625,0.05981120236217975,0.016704831889644264,0.09047993340287357
1761475505424518100,0.97751806640625,0.027505846562981603,0.01408558930195868,0.10737173923198133
1761475505434495200,0.9874951171875,0.000030979660153388974,0.0820300484329462,0.06435198759697378
1761475505444472000,0.99747216796875,0.0382329922825098,0.10762173193767666,0.03445668861418962
1761475505454449200,1.00744921875,0.08776128556132316,0.06664937781915069,0.074257770463638
1761475505464427000,1.017427001953125,0.1751052224934101,0.017560571936145422,0.05700063845347613
1761475505474404000,1.027404052734375,0.2073170547902584,-0.007639116576313972,0.042675066383183
1761475505484381200,1.037381103515625,0.21937866398394107,-0.010335223792493343,0.053103594482317565
1761475505494358000,1.04735791015625,0.146274264806509,-0.047628743267804384,0.030083332368172705
1761475505504335000,1.057335205078125,0.003719312784075737,-0.012480419127643107,0.02025919990297407
1761475505514312000,1.06731201171875,-0.06212123287022114,0.06796630563661456,0.0272243262078613
1761475505524289000,1.0772890625,-0.04000292456448078,0.12621420420482754,0.021938860085606575
1761475505534267100,1.08726708984375,0.014716507616639136,0.09724997552707791,0.09629965253230184
1761475505544244000,1.097243896484375,0.06331365752518177,0.040208603204414245,0.116454917136766
1761475505554221000,1.107220947265625,0.05333937599956989,-0.005774272552505135,0.06802420983631163
1761475505564198100,1.1171982421875,-0.012713351100683211,-0.026414178868755696,0.016926731012016534
1761475505574175200,1.12717529296875,-0.09225625889301299,-0.011465177670493721,-0.01817738866023719
1761475505584152000,1.137152099609375,-0.11796353160142897,-0.005801379755139351,-0.03434603131394833
1761475505594130000,1.1471298828125,-0.0955851110547781,-0.009538009000197053,-0.022793065762147305
1761475505604107300,1.157107177734375,-0.1331289520293474,-0.02739456820823252,-0.01979757374059409
1761475505614084000,1.167083984375,-0.18141162916123865,-0.01323795949667692,-0.013071115029789507
1761475505624061200,1.177061279296875,-0.2134340763658285,0.03062507456205785,0.0031729674803093076
1761475505634038300,1.187038330078125,-0.1912012017697096,0.04813859248608351,0.00637837592549622
1761475505644015000,1.19701513671875,-0.13069558740258216,0.05815547104440629,0.01637684204429388
1761475505653992200,1.2069921875,-0.04710954169929027,0.022520459365844726,0.04200414485167712
1761475505663970000,1.216969970703125,0.014256488889455795,-0.015716040048003196,0.04564308587592095
1761475505673947100,1.226947021484375,0.020226795470714567,-0.04481463569514453,0.023565876765549183
1761475505683924200,1.23692431640625,-0.006465981143712997,-0.006431129026040434,0.003572049800492823
1761475505693901000,1.246901123046875,-0.026457214292883873,0.03651574003584683,-0.03716627636644989
1761475505703878100,1.256878173828125,-0.028347558084130284,0.04647285123094916,-0.02373538811355829
1761475505713855000,1.26685498046875,-0.0035217443853616712,0.043277489255741236,-0.01739898816626519
1761475505723833000,1.2768330078125,0.06535948413908481,0.036366394693031906,-0.007714410302229225
1761475505733810200,1.28681005859375,0.11658698255121708,0.030590149379149077,0.015483802194707096
1761475505743787000,1.296787109375,0.13715396976172922,0.013927330000326036,0.04274334584642201
1761475505753764000,1.30676416015625,0.14446341599225998,0.03151157507300377,0.01024089657254517
1761475505763741000,1.316740966796875,0.14713000485301017,0.04736855796165764,0.004819419513083994
1761475505773718000,1.326718017578125,0.13904314450919628,0.02702953428812325,-0.029349903527088463
1761475505783695000,1.336695068359375,0.17449147450923919,0.02308569203317165,-0.001456336288154125
1761475505793673000,1.3466728515625,0.19188275429308413,0.017384119390696288,-0.010228913873806596
1761475505803650000,1.356650146484375,0.1633668539047241,0.020553031750395894,0.00815250945854932
1761475505813627000,1.366626953125,0.06581891834437847,0.019549188470095395,0.011789185460470615
1761475505823604200,1.376604248046875,-0.03331248701512814,0.05236958111934364,0.016937325471267105
1761475505833581300,1.386581298828125,-0.06544365529119968,0.10095555204674601,-0.0038736265629529952
1761475505843558100,1.39655810546875,-0.04970131175816059,0.10355039084553717,-0.01277896368280053
1761475505853535200,1.40653515625,-0.029938042145967483,0.06187646432891488,0.024269239261932668
1761475505863513000,1.41651318359375,-0.045941082441806794,0.010772884557396173,0.06013517361953854
1761475505873490200,1.426490234375,-0.10285597884058952,-0.005261500724777579,0.04544522521626204
1761475505883467300,1.43646728515625,-0.15818039117753505,0.03598769757375121,0.010207176966033875
1761475505893444000,1.446444091796875,-0.14022037159502507,0.07369600839503108,-0.011201485233008861
1761475505903421200,1.456421142578125,-0.1351864690810442,0.03901500950567424,0.010591427043266594
1761475505913398000,1.46639794921875,-0.09120061236023902,0.01450030758269131,0.04707143817860633
1761475505923375000,1.476375,-0.03388122681379318,0.014429945760220289,0.032791385750472545
1761475505933353200,1.486353271484375,-0.01664776794016361,-0.004446969471499323,0.027875008668936788
1761475505943330800,1.496330810546875,-0.006261983004212379,0.004194967471808195,-0.00730425859875977
1761475505953307600,1.5063076171875,-0.024148352828621863,0.005779460184276103,-0.016877302379719912
1761475505963284700,1.51628466796875,-0.020357728374004364,0.019097645310312508,-0.009778028301149606
1761475505973261800,1.52626171875,0.00018646248281002043,0.031038989125192165,0.002883300351351499
1761475505983238700,1.53623876953125,0.003202595433592796,0.015311039443686603,0.0068254255732521415
1761475505993215700,1.5462158203125,0.029506080469489097,0.02446341012716293,0.0001958513656631112
1761475506003193600,1.556193603515625,0.03687514793276787,0.024025384036079046,-0.011989384207688272
1761475506013170700,1.566170654296875,0.002170329776406288,0.028015476585552094,-0.013123868130333722
1761475506023147800,1.576147705078125,0.020202245551347732,0.029034809695929288,-0.021017982381023464
1761475506033124600,1.58612451171875,0.043936172360181804,0.04875102529600262,0.012280585706606506
1761475506043101700,1.596101806640625,0.088421795296669,0.0557386922262609,0.027789485809952018
1761475506053078500,1.60607861328125,0.07312310387790202,0.06651259969696402,0.06711980834249406
1761475506063056000,1.616055908203125,0.04060556663274765,0.04707556636445224,0.052872744868509465
1761475506073033700,1.62603369140625,-0.003088613665103912,0.04735167989209294,0.011208937887102364
1761475506083010600,1.636010498046875,-0.03858662802577018,0.0760981011006981,-0.015975896560586986
1761475506092987600,1.645987548828125,-0.022388941940665243,0.07885558311529457,-0.017807459369301795
1761475506102964700,1.65596484375,0.010476385828852653,0.06245631004348397,0.026351598493941128
1761475506112941800,1.66594189453125,0.067791095200181,0.038744010544568296,0.06321396001037209
1761475506122918700,1.675918701171875,0.1035930609434843,0.026413082890212533,0.07418971019610762
1761475506132895700,1.685895751953125,0.07941314393281936,0.02929316837117076,0.017087620662152764
1761475506142873900,1.695873779296875,0.015036825612187384,0.010831263681128621,-0.018864494141563774
1761475506152850700,1.7058505859375,-0.015061960053443908,0.02020662946552038,-0.07902304863668978
1761475506162827800,1.715827880859375,-0.009185176974534987,0.01327339613623917,-0.07943524616677314
1761475506172804900,1.725804931640625,0.04387362851798534,-0.010061375287175179,-0.06144837510995566
1761475506182781700,1.73578173828125,0.09503215334713458,-0.02055010914094746,-0.01332611270416528
1761475506192758800,1.7457587890625,0.10511983211934565,-0.04461407162174582,0.042840961001999675
1761475506202736600,1.755736572265625,0.019931027394533157,-0.02025192991197109,0.06109053811561316
1761475506212713700,1.765713623046875,-0.04758183538615703,0.036841172597929836,0.03703658557217568
1761475506222690800,1.77569091796875,-0.07575052977204322,0.05772613971643149,-0.013068155887722968
1761475506232667600,1.785667724609375,-0.08662789761722087,0.041777752217277885,0.01103054911289364
1761475506242644700,1.795644775390625,-0.08801847519278526,0.026069164823368192,0.020517631643451748
1761475506252621600,1.80562158203125,-0.07144143440127372,0.03645407297648489,0.026802739794924854
1761475506262598700,1.8155986328125,-0.06130056413710117,0.05307473371401429,0.03727357266582548
1761475506272575700,1.82557568359375,-0.05911036061644554,0.039282647465914484,0.05761738211233169
1761475506282553600,1.8355537109375,-0.11953940261602401,0.03067205550894141,0.03703095954898745
1761475506292530700,1.84553076171875,-0.1238794776469469,0.051257016767561434,0.007669365584105253
1761475506302507500,1.855507568359375,-0.11128127735853195,0.0665123805012554,-0.034155513710528614
1761475506312484900,1.86548486328125,-0.0602624532610178,0.06751337423734366,-0.016674400218762455
1761475506322461700,1.875461669921875,-0.03402969537377357,0.017607991274446247,0.019583236870169638
1761475506332438800,1.885438720703125,-0.04341185622513294,0.00409326066300273,0.04206961130332201
1761475506342416600,1.895416748046875,-0.04335749568939209,0.05640519331097602,0.008052738878503442
1761475506352393700,1.905393798828125,0.014976619857549667,0.07555274217762052,0.003563281972147524
1761475506362370800,1.915370849609375,0.09543138179779052,0.04751804943494498,0.038022308673895895
1761475506372348000,1.925347900390625,0.13999006997048855,0.01286057755164802,0.06565254880152642
1761475506382324700,1.93532470703125,0.1543570334970951,-0.009644976506009697,0.06558320989236235
1761475506392301800,1.9453017578125,0.11419161184728145,0.004679463053122163,0.04919288731198758
1761475506402278700,1.955278564453125,0.10503624548912048,0.05967004032582044,0.0030617256581783295
1761475506412256800,1.9652568359375,0.0878121389657259,0.025957594207674264,0.015200089882500468
1761475506422233900,1.97523388671875,0.09408288979828357,0.012643208473920822,0.02417538696601987
1761475506432210700,1.985210693359375,0.11903554474711417,0.025833967828005552,0.0025992227129638195
1761475506442187800,1.995187744140625,0.1296183135598898,0.017356500731408594,0.032856121549755334
1761475506452164600,2.00516455078125,0.07173077273666859,-0.01535509778112173,0.049430568525381385
1761475506462141700,2.0151416015625,-0.012886954101920128,-0.02399557341970503,0.03798179400041699
1761475506472118500,2.025118408203125,-0.07781096943318844,0.008717997854202986,-0.007998670603707432
1761475506482096600,2.0350966796875,-0.06894377236664295,0.05868672837689519,-0.024983780739456413
1761475506492073700,2.04507373046875,-0.01738426552116871,0.03047865182869136,-0.014005875129252672
1761475506502050600,2.055050537109375,0.0013905775755643844,-0.008391615444049238,0.010562274014018476
1761475506512027600,2.065027587890625,-0.04606207847297191,-0.03369746774472296,0.01612421899009496
1761475506522004500,2.07500439453125,-0.09467267238497734,0.01088189788982272,-0.01760327856671065
1761475506531981800,2.08498193359375,-0.0972100819081068,0.05584288325309753,-0.0392929131316021
1761475506541959000,2.094958984375,-0.0709369920104742,0.0545647530760616,-0.005189969858527183
1761475506551935700,2.104935791015625,-0.02089899564385414,0.03227357242144644,0.049510538426414126
1761475506561913900,2.114913818359375,0.012265607333183288,0.0345355260040611,0.09702460580598563
1761475506571891000,2.124890869140625,-0.014636428117752074,0.014351839022710918,0.07596866603475064
1761475506581867800,2.13486767578125,-0.09914134223163128,0.03561426115147769,0.029974099840037523
1761475506591844900,2.144844970703125,-0.13451017725467682,0.06847388983257115,0.006715608523227274
1761475506601821700,2.15482177734375,-0.1397311267733574,0.07318425948061048,0.016653941952623427
1761475506611798800,2.164798828125,-0.0911450827807188,0.043560617046058174,0.04220459932722151
1761475506621775600,2.174775634765625,0.0022743746727705,0.0598668780721724,0.06094922994878143
1761475506631753700,2.184753662109375,0.07746960864961147,0.027327567386627196,0.05935469076633453
1761475506641730800,2.194730712890625,0.11829670907855033,-0.0007907119862735271,0.04218052433189005
1761475506651707600,2.204707763671875,0.09430676168203353,-0.03474515016674995,0.022870624510385094
1761475506661684700,2.214684814453125,0.020042671075463293,-0.07708893876895308,0.007663520365208387
1761475506671661600,2.22466162109375,-0.07627426138520241,-0.07274068043157458,-0.047622240461781616
1761475506681638700,2.234638671875,-0.08648761236369609,-0.04321976771913469,-0.08489533820357173
1761475506691615700,2.24461572265625,-0.04056581914424896,-0.019714315903931856,-0.09312957112882286
1761475506701593600,2.254593505859375,0.006625555619597435,-0.019847440764307975,-0.023246325954981148
1761475506711570700,2.26457080078125,0.07582067239880562,-0.05021064951978624,0.02631170487497002
1761475506721547500,2.274547607421875,0.09658113635480403,-0.03769932379722595,0.029996786595880984
1761475506731524600,2.284524658203125,0.05278934090137481,-0.02198262616209686,0.02919569934606552
1761475506741501700,2.294501708984375,0.010457096606492996,0.004663900157809257,-0.006260558232106268
1761475506751478800,2.304478759765625,-0.009661562314629554,0.018754969352483747,-0.005544445852003991
1761475506761455900,2.314455810546875,-0.024752163940668103,0.0004900485392659902,-0.0015484350183978676
1761475506771433700,2.324433837890625,-0.02879530185163021,0.022047946483269333,0.016520890157483516
1761475506781410800,2.334410888671875,-0.016378303349018096,0.05271912520937621,0.021441724218428132
1761475506791388000,2.344387939453125,0.020135025534033773,0.05176533161588013,0.033704335876926776
1761475506801364700,2.35436474609375,0.005959200665354728,0.05495163350179791,0.058030858284048734
1761475506811341800,2.364341796875,-0.005512625941634178,0.08548260003961622,0.0718395303407684
1761475506821318700,2.374318603515625,-0.016126958936452863,0.12165595637857914,0.07108118625413626
1761475506831295700,2.384295654296875,-0.01887771894931793,0.11476838882192969,0.08513966835346072
1761475506841273900,2.39427392578125,-0.018086276310682294,0.08870609213076532,0.06703592945132404
1761475506851250700,2.404250732421875,-0.006358429116010665,0.06705700877197086,0.07061850064583122
1761475506861227800,2.414227783203125,0.01648877798616886,0.07165171615108847,0.0527636219382286
1761475506871204600,2.42420458984375,0.02754384048581123,0.0650724838912487,0.06741725691910833
1761475506881181700,2.434181640625,0.007715688943862915,0.0549083788819611,0.05370744212698191
1761475506891158800,2.44415869140625,0.003211363261938095,0.06660955726541579,0.06581197714693844
1761475506901135600,2.454135498046875,0.004615969362854957,0.06606617110371589,0.036896884840540586
1761475506911113700,2.46411376953125,0.02441898646354675,0.05451579936780035,0.014735796838998793
1761475506921090800,2.4740908203125,0.06062076517939567,0.045524172203987835,-0.011515921477042139
1761475506931067600,2.484067626953125,0.09741641813516616,0.012470847581699489,0.00945091523863375
1761475506941044200,2.494044189453125,0.12631167322993278,-0.009393047571554779,0.033140637579560275
1761475506951021300,2.504021240234375,0.13034253618121147,-0.002660816707089543,0.028553784713335334
1761475506960998400,2.513998291015625,0.09158698132932186,0.004089388205483556,0.008749452438391744
1761475506970975500,2.5239755859375,0.04156009087860584,0.005854205920919776,0.010681443414278327
1761475506980953300,2.533953369140625,0.007764788782596587,0.006835179782286286,-0.02328895952031016
1761475506990930400,2.543930419921875,-0.016153262421488762,-0.008428294192627072,-0.03951744260247796
1761475507000907500,2.553907470703125,-0.009672083708643912,0.0023460516694933176,-0.038430085757188495
1761475507010884400,2.56388427734375,-0.011411036330461501,0.014848901824653147,0.0005771423008292913
1761475507020861400,2.573861328125,-0.0432610495775938,0.015105287738516927,0.03193809338938445
1761475507030838300,2.58383837890625,-0.07530453957021235,0.019772987288609146,0.02972794305924326
1761475507040815400,2.5938154296875,-0.07289572486281394,0.05158098802492022,0.013400894973427056
1761475507050792200,2.603792236328125,-0.10265256522297858,0.04242496407963335,0.003159815737791359
1761475507060770300,2.613770263671875,-0.09748597624003887,0.02358889231495559,-0.028535664534755048
1761475507070747400,2.623747314453125,-0.03470423363447189,0.00028882687874138353,-0.03357530266977846
1761475507080724200,2.63372412109375,0.0346036958694458,-0.015323679729551076,-0.042508477644622324
1761475507090701300,2.643701416015625,0.06379238095283508,-0.04055624759830534,-0.04635653137490153
1761475507100678100,2.65367822265625,0.0641705666154623,-0.05697575974054634,-0.030477446252293882
1761475507110655200,2.6636552734375,0.028761399582028387,-0.03656038289517164,-0.049162930565141136
1761475507120632300,2.67363232421875,-0.00039046062231063843,0.0034035978984087705,-0.01444433961175382
1761475507130610200,2.683610107421875,-0.00021627309918403624,0.013248188629746437,0.006335998088493943
1761475507140587300,2.693587158203125,0.006216390296816826,0.04023439523279667,0.02101516936942935
1761475507150564000,2.703564208984375,0.022983985224366187,0.0533171641677618,-0.014210786584205925
1761475507160541200,2.713541259765625,0.012570727759599686,0.05015080909132957,-0.006458491957001388
1761475507170518300,2.723518310546875,-0.015756956580281256,0.01480206700824201,-0.006553513296693563
1761475507180495400,2.733495361328125,-0.02837561513483524,0.024210019887983797,0.002927102960459888
1761475507190472400,2.743472412109375,-0.05420914457142353,0.03098879330791533,0.0032416122697293756
1761475507200450300,2.7534501953125,-0.08042845845520497,0.03996916842535138,0.018100633629597723
1761475507210427400,2.763427490234375,-0.0824526577591896,0.04613528983965516,0.010495090529322624
1761475507220404500,2.773404541015625,-0.03110182522833347,0.030136633457988497,0.008223273139819503
1761475507230381300,2.78338134765625,0.007114800441265106,0.015785452022403477,0.031208792734146118
1761475507240358400,2.7933583984375,0.044805940932035444,0.010016878558322787,0.01264934595376253
1761475507250335200,2.803335205078125,0.02475625559389591,0.006727846950292587,-0.004173559357598423
1761475507260312300,2.813312255859375,-0.007055179208517074,0.010649696569144725,0.01932725281510502
1761475507270289400,2.823289306640625,-0.014944471153616905,0.0437970561504364,-0.00986176106184721
1761475507280267300,2.833267333984375,-0.01842646805047989,0.0813185391627252,0.011215331095270812
1761475507290244400,2.843244384765625,0.04651508293747902,0.05319390311427414,0.03305719707980752
1761475507300221200,2.85322119140625,0.11747954747676849,0.03218435976803303,0.052507893611490726
1761475507310198300,2.8631982421875,0.13499240781366825,0.00395575188845396,0.05022964648120105
1761475507320175400,2.87317529296875,0.11226152056753634,-0.00638458647057414,0.0685694226289168
1761475507330152200,2.883152099609375,0.11536883893311023,0.03003295388780534,0.13213263446837664
1761475507340129300,2.89312939453125,0.08019289613366126,0.09625424248799681,0.17031108355205504
1761475507350107100,2.903107177734375,-0.03543313243091106,0.06239617735408246,0.11535502960346639
1761475507360084200,2.913084228515625,-0.07349135266840458,0.09778824712224304,0.1140083277022466
1761475507370061300,2.923061279296875,-0.13208558045625685,0.06251015912257135,0.003822407832369208
1761475507380038100,2.9330380859375,-0.13189151918888092,0.05137567471116781,-0.04892272860109806
1761475507390015500,2.943015380859375,-0.14755261417925358,0.041401612381264566,-0.006280030117556452
1761475507399992300,2.952992431640625,-0.15806640940904618,0.039824791518598794,0.004072985059954226
1761475507409969400,2.962969482421875,-0.1209732348114252,0.08384498890042305,0.004407514243945479
1761475507419947300,2.972947265625,-0.05755260978043079,0.0975847604393959,0.021848953312449158
1761475507429924400,2.98292431640625,0.026382395491003987,0.0739243372581899,0.04300426180493086
1761475507439901400,2.9929013671875,0.06610241146087646,0.023181626688316463,0.05577306941989809
1761475507449878300,3.002878173828125,0.06780687729120254,-0.01388064131438732,0.05534684336446225
1761475507459855400,3.01285546875,-0.012390695017576217,-0.025414719502627848,-0.021524178337492046
1761475507469832400,3.02283251953125,-0.053284430941939354,-0.009764218971505761,-0.08186813586950302
1761475507479809300,3.032809326171875,-0.0225303962379694,0.00042019817344844337,-0.10993052033670246
1761475507489786400,3.042786376953125,0.025199907708168028,-0.01177314764112234,-0.08626841665506363
1761475507499764200,3.05276416015625,0.0797685332417488,-0.037597909249365326,-0.03948880102988332
1761475507509741300,3.0627412109375,0.08602467102706432,-0.03807159117572009,-0.01674395832363516
1761475507519718400,3.072718505859375,0.05303776270449161,-0.021894290291517973,0.01459156606271863
1761475507529695200,3.0826953125,-0.005587444743514061,-0.005037994167208671,0.0123345443835482
1761475507539672300,3.09267236328125,0.00978372738957405,0.0021110738698393106,-0.0290315217602998
1761475507549649200,3.102649169921875,0.0592559065669775,-0.0006880553293973208,-0.055042855449207125
1761475507559626200,3.112626220703125,0.07013795058727264,-0.008884659657999873,-0.051657341196760534
1761475507569604400,3.122604248046875,0.051043958538770674,-0.017544716779887674,0.0004671425877138972
1761475507579581200,3.132581298828125,0.012774725899100304,0.01044138758070767,0.0327269422121346
1761475507589558300,3.142558349609375,-0.03665712126791477,0.056375821086019275,0.05181991134732961
1761475507599535000,3.15253515625,-0.0415793801009655,0.09525763266608119,0.07811806262098252
1761475507609512400,3.162512451171875,-0.04102408430576324,0.08764803444519638,0.07067483394294977
1761475507619489300,3.1724892578125,-0.005752864438295364,0.07618892118930816,0.041348201693594454
1761475507629466400,3.18246630859375,-0.03462415413558483,0.048763665581867094,0.036387656676769256
1761475507639443500,3.192443359375,-0.039837504869699475,0.0283888399425894,0.02405333148892969
1761475507649421300,3.20242138671875,-0.07625906381607055,0.05680581000111997,0.030942725676484404
1761475507659398400,3.2123984375,-0.07882686847746372,0.07931830525621772,0.031476576824858785
1761475507669375500,3.22237548828125,-0.04209492840766906,0.06665697660371661,0.06122877754252404
1761475507679352300,3.232352294921875,-0.039644028124213214,0.0404769718170166,0.044047816041111944
1761475507689329400,3.242329345703125,-0.018137714236974717,0.02214453872554004,0.047067565721087154
1761475507699306200,3.25230615234375,0.004483867415785789,0.017432050185650586,0.017523381730914115
1761475507709283300,3.262283447265625,-0.001395253750681877,0.021826412687078117,0.017868213113211094
1761475507719261400,3.272261474609375,-0.01985971572399139,0.03343479822054505,0.028449812882207333
1761475507729238300,3.28223828125,-0.06870996361076831,0.04065254757963121,0.03748505999203771
1761475507739215400,3.29221533203125,-0.03607902911901474,0.05407718875482678,0.04911397685687989
1761475507749192200,3.302192138671875,0.0058592474222183225,0.03328530674725771,0.02578961722962558
1761475507759169300,3.312169189453125,0.027843700215220448,0.003850537948310375,-0.0017628084214404225
1761475507769146000,3.32214599609375,0.034173487758636475,-0.024445143818110224,-0.008727788595855235
1761475507779123200,3.332123291015625,0.06153788002431392,-0.027466829726845023,-0.01426098240148276
1761475507789100300,3.342100341796875,0.060570496296882624,-0.021334318321198222,-0.015622370415180921
1761475507799078100,3.352078125,0.010946341428160667,-0.010298910370096564,-0.0017319383591413496
1761475507809055200,3.36205517578125,-0.026230419799685475,0.0231744662951678,0.019179113048687576
1761475507819032300,3.3720322265625,-0.014884265398979185,0.061573828120529646,0.024696670893765985
1761475507829009400,3.382009521484375,-0.00043780689537525175,0.05566599231623113,0.02767108359467238
1761475507838986500,3.391986572265625,-0.0052472530037164684,0.03562003330513835,0.04029171491060406
1761475507848963300,3.40196337890625,-0.01388940914273262,0.025608123182877897,0.006062113050557673
1761475507858940400,3.4119404296875,-0.01266249769628048,0.022077245642989872,-0.004883716920949519
1761475507868918500,3.42191845703125,-0.0129360539406538,0.02207424996830523,-0.002383314939960837
1761475507878895400,3.431895263671875,-0.03775193076729774,0.005473974431678652,-0.013355448396503924
1761475507888872400,3.44187255859375,-0.05301788896024227,-0.011480667500570415,-0.017129523575119675
1761475507898849300,3.451849365234375,-0.03854863410294056,-0.010862681732699274,-0.024007008129172027
1761475507908826400,3.461826416015625,-0.04523614904284477,0.010769815817475319,0.000011398176848888396
1761475507918803200,3.47180322265625,-0.03281038271188736,0.024867972340062258,0.02073529298212379
1761475507928780300,3.4817802734375,-0.0005564648389816284,0.050577948462218046,0.04445789467934519
1761475507938757400,3.49175732421875,0.043977673414349557,0.13205240883901714,0.08289638293869793
1761475507948736000,3.501736083984375,0.016416297271847725,0.1224995675958693,0.15697408412769437
1761475507958713000,3.511713134765625,-0.04064122246801853,0.06735913352370261,0.15879278745483605
1761475507968690200,3.521690185546875,0.021501053190231323,0.12466346763148903,0.0358931146254763
1761475507978667000,3.5316669921875,0.051669981482625006,0.09923457347303628,-0.03881429930180311
1761475507988644000,3.54164404296875,0.01504091726541519,0.014906769491732119,0.018258271876722573
1761475507998621000,3.551620849609375,0.0011018237620592116,-0.018303791518881916,0.0067411082906648516
1761475508008598000,3.561597900390625,-0.004403787916898727,0.020259601761773226,0.012206789818033576
1761475508018574800,3.571574951171875,-0.023805238479375837,0.023324030833691358,-0.018897446563094854
1761475508028553000,3.581552978515625,-0.011273089164495468,0.024937603510171172,-0.03208272602446377
1761475508038530000,3.591530029296875,0.04032090447247028,0.016179858167469502,-0.004217106238380074
1761475508048507000,3.6015068359375,0.1093050088495016,0.02586772396713495,-0.009500745729729533
1761475508058484000,3.61148388671875,0.12327917366623878,0.02535729022696614,-0.002281644663773477
1761475508068461000,3.6214609375,0.09330021498799324,0.010508461467549204,0.03014671646058559
1761475508078438100,3.631438232421875,0.05502689069509506,0.02707483473457396,0.022980879951827227
1761475508088415200,3.641415283203125,0.04182429477274418,0.03066511431150138,-0.008867124001309274
1761475508098393000,3.65139306640625,0.06024316403865814,0.015576996903494,-0.038495515676215286
1761475508108370200,3.6613701171875,0.05136603009998798,-0.002426350364089012,-0.04852072367146611
1761475508118347300,3.67134716796875,0.030115736800432204,-0.01541552273146808,-0.05091474266853183
1761475508128324000,3.681323974609375,0.022626257827877996,-0.0021307284183800217,-0.0071016121661290526
1761475508138301200,3.69130126953125,-0.0006377133816480637,-0.00009564239419996738,0.01778543020058423
1761475508148278000,3.701278076171875,0.020965046617388725,0.027643647598475218,0.0008946838174015283
1761475508158255000,3.711255126953125,0.014759762236475944,0.03137033997140825,-0.01381360396016389
1761475508168232000,3.72123193359375,0.020879706421494483,0.010228329351916908,-0.010346439306251703
1761475508178210000,3.7312099609375,-0.008116086438298226,-0.0038204350709915157,-0.025233006260171532
1761475508188187100,3.741187255859375,-0.05268120435178279,0.0009982903223484754,-0.036333588401973246
1761475508198164000,3.7511640625,-0.11023381413221359,0.02361738775707781,-0.02148435778375715
1761475508208141000,3.76114111328125,-0.16600070953965185,0.018318842957541347,-0.018068229197338224
1761475508218118000,3.771117919921875,-0.17453122199773788,0.015869330913573503,-0.008120251156762242
1761475508228095000,3.781094970703125,-0.14144377591013907,0.03481682716347277,-0.018100998955778776
1761475508238072000,3.791072021484375,-0.08109130627810955,0.05420782939717173,0.010594349652715027
1761475508248049000,3.801048828125,0.0011328034222126005,0.028394685161486265,0.04577756244316697
1761475508258027000,3.811027099609375,0.02430149756371975,0.0003454524368047714,0.06939531552642583
1761475508268003800,3.82100390625,0.03202712337970733,0.021558190204948185,0.05401501023881137
1761475508277981000,3.83098095703125,-0.014005144476890562,0.026294717207551,0.04097005256358534
1761475508287958300,3.840958251953125,-0.06153671098053455,0.0404385395027697,0.03720766782276332
1761475508297935000,3.85093505859375,-0.06357669237554073,0.012158566762134433,0.01722834430709481
1761475508307912200,3.860912109375,-0.05771861399710178,0.043087519641593096,0.014866218285635113
1761475508317889000,3.870888916015625,-0.02581365569233894,0.017538360104337333,0.02884538807105273
1761475508327867100,3.8808671875,0.003849661165475845,0.023464681413397193,0.055621130261197686
1761475508337844200,3.89084423828125,0.04071487222611904,0.01872669310607016,0.08936254674550145
1761475508347821000,3.900821044921875,0.06520809296965599,0.029665508814901112,0.08632051216848194
1761475508357798100,3.910798095703125,0.07789104893207549,0.03628251580186188,0.06061663699354976
1761475508367775000,3.92077490234375,0.10152969867289066,0.042922319142520426,0.049456177890673275
1761475508377752000,3.930751953125,0.10759002162516117,0.03818286953046918,0.042246283044479783
1761475508387729200,3.940729248046875,0.12169862647652625,0.055167979666218156,0.04860357964932918
1761475508397706000,3.9507060546875,0.10717559560537337,0.06043401043564081,0.06954294383618981
1761475508407684000,3.96068408203125,0.05181202030181885,0.07066438561417163,0.08292469571772962
1761475508417661000,3.970660888671875,0.0005132102191448212,0.07956643479838967,0.06030453883707523
1761475508427638000,3.980637939453125,-0.03293897752761841,0.08133030266575515,0.02358253563940525
1761475508437615000,3.990614990234375,-0.022999182793498038,0.07416983645185828,-0.0005326090393587946
1761475508447592000,4.000592041015625,0.011536708536744118,0.049310193548724054,-0.0005418152591213583
1761475508457569000,4.010569091796875,0.019958499923348427,0.02790770536214113,-0.015032770491577684
1761475508467546000,4.020546142578125,-0.014648118555545805,0.0029340806905180216,-0.02546604783106595
1761475508477523200,4.030523193359375,-0.07342179456353187,-0.00961048971451819,-0.03155008045248687
1761475508487500000,4.0405,-0.0998895302504301,0.025116174947470427,-0.0414362818358466
1761475508497478000,4.050477783203125,-0.07543196534216404,0.03159720752984285,-0.03212093914300203
1761475508507455200,4.060455322265625,-0.07436813550293445,0.020544190856814384,-0.04507672069743275
1761475508517432000,4.07043212890625,-0.042914428097009655,-0.010677972815558314,-0.029042810339294373
1761475508527409200,4.0804091796875,0.011214052453637123,-0.01077259229645133,-0.07495601839348673
1761475508537386000,4.090385986328125,0.020557634860277174,-0.03823649941384792,-0.08930785741619765
1761475508547363000,4.100363037109375,-0.01064472813308239,-0.03932524449862539,-0.06561313010659069
1761475508557340200,4.110340087890625,-0.0290659354865551,-0.02818988330438733,-0.056725072915107005
1761475508567317000,4.12031689453125,-0.00622749621272087,-0.010387100110203027,-0.036159912335500116
1761475508577295000,4.130295166015625,0.021563597032427786,-0.02125328897424042,-0.014516308869421481
1761475508587272200,4.140272216796875,0.06484978105127812,-0.028325857708975673,-0.007649236111529171
1761475508597249000,4.1502490234375,0.10970131469070911,-0.017872122103348372,0.010044460684992372
1761475508607226000,4.16022607421875,0.12012860068082809,0.0007537409767508506,0.00674319064989686
1761475508617203000,4.170202880859375,0.10398001443445681,-0.004255684683099389,0.0012449220271781086
1761475508627180000,4.180179931640625,0.07145195579528808,0.03792297648526728,0.023768450132943687
1761475508637156900,4.190156982421875,0.03273322582244873,0.047352775870636105,0.054303581389226016
1761475508647134000,4.200134033203125,0.017518121033906934,0.049328167596831916,0.061457435199245805
1761475508657112000,4.210112060546875,0.029008652341365813,0.05060863586142659,0.059454205618053674
1761475508667089000,4.2200888671875,-0.0024129063606262205,0.0580880318313837,0.05666311359480023
1761475508677066000,4.23006591796875,-0.041344986823201174,0.0680462390050292,0.0521654368493706
1761475508687043000,4.24004296875,-0.06688625531494617,0.06405541580319404,0.05308090772647411
1761475508697020200,4.250020263671875,-0.06520400131642819,0.06367065426930785,0.061613429478555914
1761475508706997200,4.259997314453125,-0.05948620819151401,0.06849763603433966,0.08675356982350349
1761475508716974000,4.26997412109375,-0.07251929276585578,0.04796535481102764,0.0675932345405221
1761475508726951200,4.279951171875,-0.08938158023953437,0.03921754634045064,0.062446300106123086
1761475508736929000,4.289928955078125,-0.0983820482969284,0.04574417163021862,0.026875585835427044
1761475508746906000,4.299906005859375,-0.0824526577591896,0.022322671771422026,0.014989990795776247
1761475508756883200,4.30988330078125,-0.05531856711804867,0.013122151097282767,0.019331198337860404
1761475508766860000,4.319860107421875,-0.02308569203317165,-0.0013231383625417947,0.012104644617810845
1761475508776837000,4.329837158203125,-0.014772621718049049,-0.002284749936312437,-0.004234678427688777
1761475508786814000,4.33981396484375,-0.000022796353697776793,0.013493907019123435,-0.020151830538362264
1761475508796791000,4.349791015625,0.009779635736346244,0.01003938265107572,-0.018762385473959146
1761475508806769200,4.35976904296875,0.013203764966130255,0.024088950791582464,0.0014942936783656478
1761475508816746000,4.36974609375,0.021615034958720206,0.020969722792506217,-0.0013512684784829617
1761475508826723000,4.37972314453125,-0.019221417820453644,0.03127966601327061,0.04053520481027662
1761475508836700000,4.389699951171875,-0.051476504737138745,0.049640886807814234,0.019184373745694757
1761475508846677000,4.399677001953125,-0.03853051392436027,0.06173172209598124,0.004555544412508607
1761475508856654000,4.409654052734375,-0.002974631896615028,0.06251870775520801,-0.016834303488209842
1761475508866631000,4.419630859375,0.05858604448139667,0.03536708145737648,0.003835559574887156
1761475508876608300,4.429608154296875,0.040182957306504244,0.004908887894824147,-0.010281009387224913
1761475508886585900,4.4395859375,0.027291327029466628,-0.012034501991048455,-0.018784853034093975
1761475508896563000,4.44956298828125,-0.010232640200853347,0.009302446678653358,-0.011166925376281141
1761475508906540000,4.4595400390625,-0.01822889965176582,0.05994279285259545,0.0046027810877189036
1761475508916517000,4.46951708984375,0.006311667364835739,0.07870696842484176,0.011068433437868952
1761475508926494200,4.479494140625,0.031654198414087294,0.055990548095479604,0.039250133435800666
1761475508936471000,4.489470947265625,0.07372574594616889,0.04501205796338618,0.029800058447383343
1761475508946447000,4.499447021484375,0.09736439568698406,0.03231142021380365,0.07577350878883153
1761475508956425200,4.50942529296875,0.09824000947773456,0.020124211879074573,0.0731194871487096
1761475508966402300,4.51940234375,0.09079261608123779,0.03924932971820235,0.06771017545107752
1761475508976379100,4.529379150390625,0.06210778886675834,0.029645708135887978,0.06923015155997127
1761475508986356200,4.539356201171875,0.021413374906778335,0.02172171020358801,0.0740343369713053
1761475508996333000,4.5493330078125,0.007789923223853111,0.02146802770346403,0.0515963682571426
1761475509006310100,4.55931005859375,0.009743979901075362,0.02125241219140589,0.03483951391931623
1761475509016287000,4.569286865234375,-0.010893149936199187,0.00817336958348751,0.05287259873803705
1761475509026264000,4.57926416015625,-0.03757891228795052,0.01565605348907411,0.07016315809376537
1761475509036241400,4.589241455078125,-0.03456394838094711,0.05010331668779254,0.0425582716031
1761475509046219000,4.599218994140625,-0.045050855603814124,0.05168554437793791,0.037521994468942284
1761475509056196000,4.609196044921875,-0.035169513058662415,0.04264773998484015,0.028693741173297167
1761475509066173200,4.619173095703125,-0.06061491996049881,0.04506196151971817,0.030075916246697306
1761475509076150300,4.629150390625,-0.053066404277086254,0.0682542557325214,0.03624240298718214
1761475509086127400,4.63912744140625,-0.013402502408623694,0.101807419635728,0.02778543068934232
1761475509096104200,4.649104248046875,0.009218494722247124,0.08469510292373597,0.045304501571319995
1761475509106081300,4.659081298828125,0.027825580036640166,0.058818026606366036,0.06041249272357672
1761475509116059100,4.66905908203125,0.052344519743323326,0.032846038547158236,0.035704862044379115
1761475509126036200,4.6790361328125,0.07845043638050556,0.04099193560183048,-0.0201223852481693
1761475509136013300,4.689013427734375,0.10193068068921565,0.031046222583577036,-0.03832753869816661
1761475509145990100,4.698990234375,0.0771025289028883,0.012264657485112547,-0.030345673098787662
1761475509155967200,4.70896728515625,0.08102700887024403,-0.01002338136434555,-0.013964337542466818
1761475509165944000,4.718944091796875,0.10712941837608814,-0.018500117808580397,-0.004244542234577238
1761475509175921200,4.728921142578125,0.06648468877673148,-0.0025335370656102895,-0.02064447289351374
1761475509185898000,4.73889794921875,0.03954641296863556,-0.012265534267947078,-0.034715047289431096
1761475509195875000,4.748875,0.04257598992288113,-0.012133870712295174,-0.031286607210710644
1761475509205853200,4.758853271484375,0.039918168890476224,-0.0061808805920183655,-0.037106034079194064
1761475509215830000,4.768830078125,0.05913081888258457,-0.003001154577359557,-0.029463958360813558
1761475509225807000,4.77880712890625,0.01584697295129299,-0.017490575439855455,0.004681910738535225
1761475509235784200,4.7887841796875,-0.033763737913966176,-0.019885580817610025,0.022994360487908122
1761475509245761300,4.79876123046875,-0.05068623114228248,-0.0051766719855368135,0.026060871919058263
1761475509255738400,4.80873828125,-0.09630933367609977,0.005834259111434221,0.010066161060146987
1761475509265715200,4.818715087890625,-0.12262684723734855,0.031003333289921282,-0.009774046245776116
1761475509275692300,4.8286923828125,-0.1176011280298233,0.034848099084571,0.01042114851027727
1761475509285670400,4.83867041015625,-0.09885083485245703,0.041832405013963576,0.006817680658213794
1761475509295647200,4.848647216796875,-0.09493278462588786,0.02641710147820413,0.019877360978536308
1761475509305624300,4.858624267578125,-0.06543196485340595,0.015692659172415732,0.030228768720850348
1761475509315601200,4.86860107421875,-0.05281330629885196,0.016606339951232073,0.05439312283620238
1761475509325578200,4.878578125,-0.04101180934607982,0.052582712413370605,0.03709796037059277
1761475509335555000,4.88855517578125,0.0044458734929561615,0.05978409515954554,0.027384887064434586
1761475509345532200,4.8985322265625,0.037762452161312104,0.037150019351392984,0.06185578686706721
1761475509355509200,4.90850927734375,0.07062251923382282,0.009604206104204057,0.03493142998646945
1761475509365487000,4.918487060546875,0.05300152234733104,0.03582856148928404,0.024676833682134747
1761475509375464200,4.928464111328125,0.055602060234546655,0.027794454246014354,0.008497085112519561
1761475509385441000,4.93844091796875,0.02910977462828159,0.026466712773591278,-0.0025997341696172953
1761475509395418000,4.948418212890625,0.008535773155093192,0.009286007000505924,0.001879676266759634
1761475509405395200,4.958395263671875,0.025044424885511396,0.01745798834450543,-0.021652773153223098
1761475509415372000,4.9683720703125,0.03737374510467052,0.0034381577551364896,-0.04525017756819725
1761475509425349000,4.97834912109375,0.05457797788381576,-0.00884790784418583,-0.05609346048068255
1761475509435326200,4.988326171875,0.04260346245169639,-0.050138972523063416,-0.048470345191098746
1761475509445304000,4.998303955078125,0.04527706557512283,-0.01874262132756412,-0.03276942964699119
1761475509455281200,5.00828125,0.04079202911555767,0.0165268449742347,-0.03101670422814786
1761475509465258200,5.01825830078125,0.06719839000403881,0.009236541835591196,0.003281323225609958
1761475509475235300,5.0282353515625,0.09536416178047656,0.02295746254362166,0.03194576523918658
1761475509485212200,5.038212158203125,0.07977496298253536,0.015342384430021047,0.03624923458676785
1761475509495189200,5.048189208984375,0.03633738779425621,0.03180179019123316,0.03167418175619095
1761475509505166300,5.058166259765625,0.032656068933010096,0.04073270014375448,0.03947575888521969
1761475509515143200,5.06814306640625,-0.000831190127134323,0.047196197069436306,0.0308124138277024
1761475509525121300,5.078121337890625,-0.007941898915171624,0.029703868063911794,0.047048349563963705
1761475509535098000,5.08809814453125,-0.009991817182302474,0.01766162115782499,0.06218830675706267
1761475509545075200,5.0980751953125,0.005762216788530349,0.033725670925900335,0.07682086241729558
1761475509555052300,5.10805224609375,-0.011837152788043022,0.02900660651475191,0.07064480413086711
1761475509565029000,5.118029052734375,-0.04908054951131344,0.007072130343317985,0.06687032709345221
1761475509575006200,5.128006103515625,-0.0839256529211998,0.03827288590148091,0.09472670412715524
1761475509584983000,5.137983154296875,-0.0816027629315853,0.08788754228949547,0.042231962258182466
1761475509594960100,5.147960205078125,-0.05519289491176605,0.06711392659097909,0.05783405707031488
1761475509604938200,5.157938232421875,-0.030530747342109678,0.03509739767052233,0.08352386718727647
1761475509614915000,5.1679150390625,-0.011464812344312666,0.018694544402137397,0.059475467601791024
1761475509624892200,5.17789208984375,-0.0017716858476400374,0.013704992486536501,0.0495940519914031
1761475509634869000,5.187868896484375,-0.020165420672297478,-0.003962108564004301,0.005762472516857087
1761475509644846000,5.19784619140625,-0.0747282009869814,0.010526435515657066,0.0020489318864420057
1761475509654823200,5.2078232421875,-0.08413315819203854,0.02665960499718785,0.010168269727751611
1761475509664800300,5.21780029296875,-0.06341127268075943,0.03362907868362963,0.0030870427625253796
1761475509674777300,5.22777734375,-0.028086861321330068,0.033229265711084005,-0.000013991992734372614
1761475509684755200,5.237755126953125,0.02645955238044262,0.01342420278377831,0.018860000629536806
1761475509694732300,5.247732177734375,0.07574468455314635,0.020363135201483962,0.022707579435780643
1761475509704709400,5.25770947265625,0.09234685978591442,0.040607101002708076,0.01696242337990552
1761475509714686200,5.267686279296875,0.06425999846458434,0.06429864997453988,0.005961063828878104
1761475509724663300,5.277663330078125,0.027708675658702848,0.06377199575193226,0.006016045419126748
1761475509734640000,5.28764013671875,0.01574409709870815,0.044994449241459365,-0.01611314960680902
1761475509744617200,5.2976171875,0.025621932512521744,0.04347885704673826,-0.023536212279647587
1761475509754594000,5.307593994140625,0.03383154245316982,0.04722125844545662,-0.01907455669566989
1761475509764571100,5.317571044921875,0.07704758384525776,0.04563157810121774,-0.023778825396485626
1761475509774549200,5.32754931640625,0.07548515683412552,0.04565430138967931,0.007841215019673109
1761475509784526000,5.337526123046875,0.058444005662202834,0.025362916250154376,0.022232326606847343
1761475509794503200,5.347503173828125,0.024811785173416135,0.026283684356883167,-0.01398534379787743
1761475509804480000,5.35747998046875,-0.005257774397730827,0.02354008473716676,-0.029292547316662965
1761475509814457000,5.36745703125,-0.046646015840768815,0.008864201391860843,-0.04177961538080126
1761475509824434200,5.37743408203125,-0.08116378699243068,0.01649235818274319,-0.032950485302321614
1761475509834411300,5.387411376953125,-0.08991817133426666,0.023951368951797485,-0.03796922677978873
1761475509844388400,5.397388427734375,-0.06701718821823596,0.026540070270746945,-0.017928564998321236
1761475509854366000,5.407365966796875,-0.051799745342135425,0.033012335024774075,0.018847689137235283
1761475509864343000,5.417343017578125,-0.02820435022115707,0.006738879800960421,0.03809098999593407
1761475509874320400,5.4273203125,-0.007972294053435325,0.02771839333511889,0.0537161734227091
1761475509884297200,5.437297119140625,0.009466916525363921,0.02713080270551145,0.07033650536667554
1761475509894274300,5.4472744140625,0.005411503654718399,0.02334288166463375,0.09364135657586156
1761475509904251100,5.457251220703125,0.0022521628409624098,0.053390521664917465,0.06591821400038897
1761475509914228200,5.467228271484375,-0.010990765091776848,0.05156374462917447,0.06902472864836454
1761475509924205000,5.477205078125,-0.026257892328500745,0.0486813210606575,0.08069854410085826
1761475509934182100,5.48718212890625,-0.01821545564830303,0.048834465795755386,0.06439367131423204
1761475509944160300,5.49716015625,0.007572481080889701,0.03581197568066418,0.06486285972855985
1761475509954137300,5.507137451171875,0.04562660966515541,0.023576105898618697,0.05558898155726492
1761475509964114200,5.5171142578125,0.03531272092163563,0.023880422607436776,0.0675690134147182
1761475509974091300,5.52709130859375,0.00881517461836338,0.026537659117951987,0.09263017023932188
1761475509984068400,5.537068359375,-0.03197802354097366,0.04017082847729325,0.07034940138086676
1761475509994045200,5.547045166015625,-0.05734218190014362,0.054613414523378014,0.0633334582041949
1761475510004022300,5.557022216796875,-0.05456161127090454,0.07195223346762358,0.04239475160446018
1761475510013999000,5.5669990234375,-0.04061550350487232,0.06764912944622338,0.017866715275868774
1761475510023977200,5.576977294921875,-0.012740239107608794,0.05903714924976229,0.03827014595512301
1761475510033954300,5.586954345703125,0.015623685589432716,0.0666143795710057,0.03860255624726414
1761475510043931100,5.59693115234375,0.033577859953045845,0.06637092620395124,0.04259495035167783
1761475510053908200,5.606908203125,0.05999123510420322,0.024329846875369546,0.05206665265001356
1761475510063885300,5.61688525390625,0.05515899264216423,0.01455883283689618,0.057377508941851556
1761475510073862400,5.6268623046875,0.06034837797880172,0.006534077943861484,0.048910745902359484
1761475510083839500,5.636839599609375,0.06511398494541645,0.005429989159479737,-0.0028184184215962883
1761475510093816300,5.64681640625,0.0638438188791275,0.0011957125905901194,-0.030126806183718144
1761475510103794400,5.65679443359375,0.0657043520539999,0.0023551848240196704,-0.005571041597984731
1761475510113771300,5.666771240234375,0.04725917930305004,0.00414038774035871,0.008359320609644056
1761475510123748400,5.676748291015625,-0.010863923841714859,0.01787614069133997,0.02246167838331312
1761475510133725400,5.686725341796875,-0.05399988573491573,0.03314757877700031,0.030660218940675256
1761475510143702300,5.696702392578125,-0.07194120061695575,0.047564299729466436,0.014419460898824035
1761475510153679400,5.706679443359375,-0.05999123510420322,0.07030161671638488,-0.019214367025159298
1761475510163656200,5.71665625,-0.07966507286727428,0.04152940347939729,-0.02213507677745074
1761475510173633300,5.72663330078125,-0.10074000959992409,0.040387978359311814,-0.018865407457016408
1761475510183610000,5.736610107421875,-0.1029307976424694,0.04233275575153529,-0.012819003432244062
1761475510193588200,5.746588134765625,-0.09997487044632435,0.045158699892461296,-0.017937990413792432
1761475510203565300,5.7565654296875,-0.05967617780566215,0.016389774591103193,0.0031532033339142797
1761475510213542100,5.766542236328125,-0.01417524034678936,0.017239450222998855,0.002422368308715522
1761475510223519200,5.776519287109375,0.01208732815682888,0.011424918725341559,0.007635134520940482
1761475510233496000,5.78649609375,0.04535948316156864,-0.00007942191176116467,0.015172398157976566
1761475510243473400,5.796473388671875,0.04237257630527019,0.005860635661706328,-0.009116276456788181
1761475510253450500,5.806450439453125,0.05138122766911983,-0.005799406993761658,-0.024353191218338906
1761475510263427300,5.81642724609375,0.055711950349807735,-0.009824570856615901,-0.01322944739665836
1761475510273405400,5.826405517578125,0.07967500973939895,-0.021121406222879887,0.008595832779258489
1761475510283382500,5.836382568359375,0.14096096082925796,-0.038839726004004475,-0.011781148284487425
1761475510293359400,5.846359375,0.16952070035934447,-0.0649624476455152,-0.03063493836894631
1761475510303336400,5.85633642578125,0.1291039342969656,-0.04439823691397905,-0.03367942063137889
1761475510313313300,5.866313232421875,0.031461890712380404,-0.012046630820259452,0.00663443304579705
1761475510323290400,5.876290283203125,-0.03729658821523189,0.04428578951545059,0.032637327699922024
1761475510333267200,5.88626708984375,-0.06899521029293537,0.08824658486023544,0.03153210640437901
1761475510343244300,5.896244384765625,-0.10913432845771312,0.07998984784223138,0.05095810688622295
1761475510353221400,5.906221435546875,-0.09659516488015651,0.07595365112870932,0.00431260250210762
1761475510363199200,5.91619921875,-0.09818974059522151,0.06747538031451404,-0.022166421763785183
1761475510373176300,5.92617626953125,-0.06821954974532127,0.055387248440086835,-0.029302593786641955
1761475510383153200,5.936153076171875,-0.0325602073431015,0.0345645329028368,-0.0060381111204624175
1761475510393130200,5.946130126953125,-0.016751812836527824,0.04000840445719659,0.00652925563827157
1761475510403107300,5.956107421875,-0.02600362530648708,0.04886595691256225,0.02100932415053248
1761475510413084200,5.966084228515625,-0.036163200271129604,0.06888831585235894,0.03356982277706265
1761475510423061200,5.976061279296875,-0.016609774017333982,0.06728489924371242,0.0259362591587007
1761475510433038300,5.986038330078125,0.00850713158249855,0.04630969655849039,-0.01195946399345994
1761475510443015400,5.996015380859375,0.06042904199957847,0.016860460842773317,-0.04091335394028574
1761475510452993300,6.0059931640625,0.08033844208419323,-0.0279466491330415,-0.07739913722928612
1761475510462970400,6.015970458984375,0.042082653447985646,-0.04174282703436911,-0.064640412616916
1761475510472947500,6.025947509765625,0.016102993538975714,-0.007690116111189127,-0.04165741377323866
1761475510482924300,6.03592431640625,0.01690145044028759,0.03903517551086843,-0.01276383917890489
1761475510492901400,6.0459013671875,0.026908465191721916,0.03680500530600547,0.004138122718036175
1761475510502878200,6.055878173828125,0.05291793571710586,0.026780966354534027,-0.0034973771290853616
1761475510512855300,6.065855224609375,0.07341361125707625,0.021837956994399426,-0.003794862238317728
1761475510522832400,6.075832275390625,0.11051146202981471,0.0018474544975906608,-0.010013554090075195
1761475510532810200,6.085810302734375,0.11561609169244766,-0.01784099631272256,0.013544468162581324
1761475510542787300,6.095787353515625,0.08924830924868583,0.004038534801080823,0.036864626538753505
1761475510552764400,6.105764404296875,0.025299860951304435,0.03213051068894565,0.061167768070288
1761475510562741200,6.1157412109375,-0.008549217158555984,0.04991247029080987,0.08226941014677286
1761475510572718300,6.12571826171875,-0.0019230770170688628,0.048409299186244606,0.08137823346070945
1761475510582695200,6.135695068359375,-0.01071311719417572,0.051891953670233484,0.09360201094616204
1761475510592672300,6.14567236328125,0.017836100941896436,0.021332857016474006,0.0642637613242492
1761475510602649000,6.155649169921875,0.0012765958070755003,-0.004231353959441185,0.04685973165668547
1761475510612626400,6.16562646484375,-0.02695873407423496,-0.003924406902119517,0.05681132642645389
1761475510622604300,6.175604248046875,-0.015732991182804107,0.01840988224186003,0.04310900082103908
1761475510632581000,6.1855810546875,-0.028147651597857475,0.02831066013984382,0.06117967770379036
1761475510642558500,6.195558349609375,-0.05011866038739681,0.0016460136413574218,0.0641409386621788
1761475510652535300,6.205535400390625,-0.07709902177155017,0.007365706462413072,0.05299432542156428
1761475510662512400,6.215512451171875,-0.08275310201048851,0.02147694166228175,0.03450721322502941
1761475510672489500,6.225489501953125,-0.08430559214949607,0.028326515296101567,0.025681992136687037
1761475510682466300,6.23546630859375,-0.07021043130159378,0.05703077786341309,0.017463577835075555
1761475510692443400,6.245443359375,-0.02692132467329502,0.054069809165969485,0.024105755795910955
1761475510702420200,6.255420166015625,0.0015121581286191938,0.05175466409139335,0.0339326647400856
1761475510712398300,6.2653984375,-0.005118073666095733,0.05603621386811137,0.04309230541456491
1761475510722375400,6.27537548828125,-0.0190969146579504,0.07918897978812456,0.03631864656116813
1761475510732352300,6.285352294921875,-0.03963526029586792,0.07275923900157213,0.008892769899219274
1761475510742329300,6.295329345703125,-0.015123334851860999,0.0723135410606861,0.011661905818991363
1761475510752306200,6.30530615234375,0.01967033063173294,0.06530073968917131,-0.02096818842254579
1761475510762283300,6.315283203125,0.05734101285636425,0.01989047618843615,-0.008409078035503625
1761475510772260000,6.325260009765625,0.07769348053336143,-0.026576310627907513,-0.01679108540099114
1761475510782237200,6.3352373046875,0.0778559776186943,0.01637888787090778,-0.03309204919748008
1761475510792215300,6.34521533203125,0.08778525095880031,0.06218399590812623,-0.035032150414586065
1761475510802192100,6.355192138671875,0.1221937165170908,0.04027896502688527,-0.008092924758419395
1761475510812169200,6.365169189453125,0.1234919396340847,-0.0033844548065215347,0.03118647130448371
1761475510822146300,6.375146240234375,0.14680384163856505,-0.021857100086286663,0.028191856065765023
1761475510832123400,6.385123291015625,0.14848668015897273,-0.012033552142977714,0.01975263862032443
1761475510842100500,6.3951005859375,0.09369126013219356,0.00819463156722486,-0.003794533444754779
1761475510852077300,6.405077392578125,0.0081476506203413,0.012212781167402863,-0.009915610140934585
1761475510862054400,6.415054443359375,-0.07333879245519638,0.03215060362890362,-0.027542196517996487
1761475510872031200,6.42503125,-0.1249029754757881,0.0540294040903449,-0.022037242426164446
1761475510882009300,6.43500927734375,-0.14574001179933546,0.07427439280487597,0.04102872394826263
1761475510891986400,6.444986328125,-0.13791326369643211,0.07146737256012857,0.04700180700849742
1761475510901963300,6.45496337890625,-0.13984510854184626,0.05251490787416696,0.06227565624695271
1761475510911940400,6.4649404296875,-0.1346288351982832,0.027970249204337595,0.047639155063964427
1761475510921917200,6.474917236328125,-0.10552841292023658,0.04933306296765804,0.0447941408963874
1761475510931894300,6.484894287109375,-0.10641747071444987,0.03679024612829089,0.0059761518001556395
1761475510941871400,6.494871337890625,-0.09394903428554534,0.0253084095839411,-0.01740607549417764
1761475510951849000,6.504848876953125,-0.06926175227463245,0.02997245587222278,-0.017918701191432775
1761475510961825800,6.51482568359375,-0.005738835912942886,0.023132819110527635,-0.04019906819108873
1761475510971804000,6.524803955078125,0.010777414602041244,0.004600479532778263,-0.021282076677307485
1761475510981781000,6.534781005859375,0.034273441001772875,0.015565817922353743,0.012175006440281867
1761475510991757800,6.5447578125,0.03150280724465847,0.028199308719858526,0.017065006971545515
1761475511001735000,6.55473486328125,0.002971709287166595,0.04964454006962478,0.043401042570173735
1761475511011711700,6.564711669921875,0.002032382610440254,0.06124357325285673,0.05717632381394505
1761475511021688800,6.574688720703125,0.045505613633990284,0.07852598583474754,0.06888334741629659
1761475511031666000,6.584666015625,0.07574877620637416,0.06811923117600381,0.046967977804131804
1761475511041643000,6.59464306640625,0.08137421487271786,0.05853131861947476,0.04119070957694202
1761475511051620000,6.6046201171875,0.07641220855116844,0.06491203263252973,0.05393763415366411
1761475511061598000,6.614597900390625,0.07399228792786598,0.07501001360304653,0.04582490871623158
1761475511071575000,6.624574951171875,0.07053542547225952,0.07562690339237452,0.0781293877325952
1761475511081552100,6.63455224609375,0.09030863195657729,0.07231734045296907,0.09204005885906517
1761475511091529000,6.644529052734375,0.06866144829392433,0.07772394873686134,0.0916918664759025
1761475511101506000,6.654506103515625,0.05913549505770206,0.05347600799128413,0.0712873398181051
1761475511111483000,6.66448291015625,0.0028267478585243225,0.04579115257710218,0.035575646174140274
1761475511121460000,6.6744599609375,-0.020317980885505675,0.0788125476911664,0.0015569471184164285
1761475511131436800,6.684436767578125,-0.023720482805371285,0.07141432719863951,0.0028676643908023833
1761475511141414000,6.694413818359375,-0.046077860563993454,0.05073262756727635,0.032900289485044774
1761475511151392000,6.70439208984375,-0.021360183414816856,0.03183715376555919,0.056651203961297865
1761475511161368800,6.714368896484375,-0.009703063368797301,0.03428542370051146,0.03472556868344545
1761475511171346000,6.724345947265625,-0.006678747111558914,0.021948577762022612,0.04365516346171498
1761475511181322800,6.73432275390625,-0.057685296249389645,0.023675547685101626,0.023068046778626738
1761475511191299800,6.7442998046875,-0.10606909566819667,0.018629224080964922,-0.006864040550589561
1761475511201277000,6.75427685546875,-0.14866262124776838,0.035405732967332,-0.02859656440913677
1761475511211253800,6.764253662109375,-0.164625914055109,0.050876419952139255,-0.03226020148321986
1761475511221231000,6.774231201171875,-0.12200959212183951,0.04155256515927613,-0.0068206763328984375
1761475511231208000,6.7842080078125,-0.07218845337629318,0.0298369198590517,0.028583230003528297
1761475511241185800,6.794185791015625,-0.02303483862876892,0.00916756825260818,0.03334843511134386
1761475511251163000,6.804162841796875,-0.0018108488142490385,0.01415405142828822,0.022341413004510105
1761475511261140000,6.814139892578125,-0.04392915809750557,0.007310834470018744,-0.0017120280822739004
1761475511271117000,6.824116943359375,-0.076937109208107,0.044057022260874504,-0.023682890741340813
1761475511281094000,6.834093994140625,-0.06955693582892418,0.0775454503647983,-0.02061714649517089
1761475511291071000,6.844071044921875,-0.0339718277066946,0.0641287002351135,0.0003622209085151553
1761475511301048000,6.854048095703125,0.03861000890135765,0.06908646877296269,0.00430233683642
1761475511311025000,6.86402490234375,0.10397942991256713,0.0674832713600248,-0.0018146847391501068
1761475511321002000,6.874001953125,0.14990706835091114,0.042366584955900906,0.042953554531000554
1761475511330979800,6.883979736328125,0.1802344020754099,0.06486965479552745,0.03927618119250983
1761475511340957000,6.89395703125,0.1737806958913803,0.0725051911752671,0.037056459316425025
1761475511350934000,6.90393408203125,0.12384849798679351,0.06515628971718251,0.0449919650234282
1761475511360910800,6.913910888671875,0.06396481491029263,0.06481909365206956,0.030221864056028423
1761475511370888000,6.923887939453125,0.048183308410644526,0.08813706007115542,0.020894173338264224
1761475511380864800,6.93386474609375,0.06177811852097511,0.07958535869456827,0.00798508046977222
1761475511390841900,6.943841796875,0.05437924044132232,0.06613609453476965,0.021282734264433383
1761475511400819000,6.95381884765625,0.04150573034286499,0.05445983139686286,0.05134104178920388
1761475511410796000,6.963796142578125,0.012488310173153877,0.07616276383474468,0.06123637632708996
1761475511420774000,6.97377392578125,-0.013996961170434951,0.06558372134901583,0.06474986434075981
1761475511430750700,6.983750732421875,-0.09956219799220561,0.03836524036005139,0.025348084007203578
1761475511440728000,6.99372802734375,-0.15170447316169738,0.04057400245070457,-0.02349135022461414
1761475511450705000,7.003704833984375,-0.17637889569103718,0.055496846294403074,-0.04195983078591525
1761475511460682000,7.013681884765625,-0.162287241974473,0.027047946727648375,-0.026310901157371697
1761475511470659000,7.0236591796875,-0.12037702248394488,0.01086406997218728,-0.0033993601147085427
1761475511480636000,7.033635986328125,-0.06863514480888844,-0.01568915204107761,-0.00038932811114937067
1761475511490613000,7.043613037109375,-0.024459318473935125,-0.019803017100691794,-0.0002479103464633226
1761475511500589800,7.05358984375,-0.03444119878411293,-0.0417056368291378,-0.010797690205089748
1761475511510568000,7.06356787109375,-0.044641690281033514,-0.039305005428195,-0.028914142458327113
1761475511520545000,7.073544921875,-0.0456225180119276,-0.008215455159544945,-0.02673310862481594
1761475511530521900,7.08352197265625,-0.0192407070428133,-0.013459054901450872,-0.016524981810711322
1761475511540499000,7.0934990234375,0.03788111010491848,-0.008415873102471232,-0.0003517360471189022
1761475511550475800,7.103475830078125,0.07073942361176014,0.0008947568826377392,0.010530125310085714
1761475511560452900,7.113452880859375,0.07239303603768349,0.017143296372145414,0.061719922060333186
1761475511570430000,7.123429931640625,0.07184650807082653,0.03738024791069328,0.09272519157901406
1761475511580406800,7.13340673828125,0.07544424030184746,0.05958382334709167,0.10493033742923288
1761475511590384000,7.143384033203125,0.03648059565722942,0.056629868912324306,0.10701072389986366
1761475511600361700,7.15336181640625,-0.014340075519680976,0.08146751917935907,0.1119654967630282
1761475511610338800,7.1633388671875,-0.06288987915515899,0.08748078811950981,0.11118833837807178
1761475511620316000,7.17331591796875,-0.0828407802939415,0.10251681001409887,0.1040967361493036
1761475511630293000,7.18329296875,-0.08030687790215014,0.08504778881892562,0.08127890127208083
1761475511640270000,7.19327001953125,-0.07489478972554206,0.08911628036685287,0.07766436403673142
1761475511650247000,7.203246826171875,-0.04591185634732246,0.09642324237935244,0.07882668581437319
1761475511660224000,7.21322412109375,-0.004669745376706123,0.07365713768936694,0.06847922359481454
1761475511670200800,7.223200927734375,0.034849195063114166,0.0675399699833244,0.09142408238518983
1761475511680178000,7.233177978515625,0.052311201995611185,0.05147131710536778,0.07151990646496414
1761475511690156000,7.243156005859375,0.07567921810150147,0.04997004569694399,0.06277392462529241
1761475511700132900,7.2531328125,0.06316168183386325,0.03588387187309563,0.06428367160111666
1761475511710110000,7.26310986328125,0.07869535105228423,0.03944616746455431,0.0783035387231037
1761475511720086800,7.273086669921875,0.0693161128103733,0.018369184905290603,0.06516513061076402
1761475511730064000,7.28306396484375,0.07996142546534538,0.00791764125674963,0.04059267061855644
1761475511740041000,7.293041015625,0.09341653484404086,-0.01839643823839724,0.006060797876305877
1761475511750017800,7.303017822265625,0.029272856235504147,-0.01823759441487491,-0.021296653191931546
1761475511759995000,7.312994873046875,0.02008767926096916,-0.003095627927780151,-0.03382792572397739
1761475511769972000,7.322971923828125,-0.020405659168958663,0.01978672355301678,0.00008621697872877121
1761475511779949800,7.33294970703125,-0.07068623211979866,0.013145678103342651,0.016468100524321197
1761475511789927000,7.342927001953125,-0.08894085073471068,0.03590769114010036,-0.03681402886267751
1761475511799903700,7.35290380859375,-0.1077934352427721,0.015303221463412045,-0.05564695882219821
1761475511809881000,7.362881103515625,-0.13156009527742862,0.00884082051627338,-0.11116974327545612
1761475511819858000,7.37285791015625,-0.10996084240972995,0.024703429428115486,-0.12450809440668671
1761475511829835000,7.3828349609375,-0.06225041220784187,0.024974647584930062,-0.08987612229082732
1761475511839812000,7.39281201171875,-0.05165887556672096,0.020222192360833287,-0.07207607904300094
1761475511849789000,7.402788818359375,-0.022391864550113678,0.0198327546518296,-0.05951620147097855
1761475511859766000,7.41276611328125,0.008204349243640899,0.02644377028942108,-0.06690989191886038
1761475511869743900,7.422743896484375,0.049454058998823165,0.02238514254838228,-0.06466850620023906
1761475511879721000,7.432720947265625,0.09651391633749008,-0.010925883162021637,-0.07874865214210003
1761475511889698000,7.442697998046875,0.12117197225391864,-0.015415668861940502,-0.09704948451891542
1761475511899675000,7.4526748046875,0.1479343069732189,-0.014733239555731414,-0.06737619425635784
1761475511909652000,7.46265185546875,0.1511672975450754,0.002204597372189164,-0.06404683063793927
1761475511919628800,7.47262890625,0.1481745454698801,-0.007219722120463848,-0.04346256349906325
1761475511929606000,7.48260595703125,0.10772212357223034,0.002342617603391409,-0.024491978634521364
1761475511939582700,7.492582763671875,0.08769932624101638,0.01495652691759169,-0.02052614374347031
1761475511949559800,7.502559814453125,0.07621113302111625,0.00881334798745811,-0.018305873878113926
1761475511959537000,7.512536865234375,0.0439016855686903,0.03786189394779503,0.02232566744610667
1761475511969514500,7.522514404296875,0.02907411879301071,0.038736046433821315,0.049663135172240434
1761475511979491600,7.53249169921875,-0.004349427381157875,0.028440716260299086,0.05352346386220306
1761475511989468700,7.54246875,-0.01936754829287529,0.050800724367424846,0.05291329607460647
1761475511999445800,7.55244580078125,-0.04297521837353706,0.06940137994103134,0.06254844530634582
1761475512009422800,7.5624228515625,-0.10744389115273952,0.06835062877908349,0.043770971861109134
1761475512019399700,7.572399658203125,-0.127961778524518,0.07374686179943382,0.03897380071245134
1761475512029376800,7.582376708984375,-0.12206921335458755,0.07703070577569306,0.04825633711423725
1761475512039353600,7.592353515625,-0.08896306256651877,0.06445581329762935,0.07058741138782351
1761475512049330700,7.60233056640625,-0.042803368937969204,0.045910687303543085,0.08448146017305552
1761475512059308800,7.612308837890625,-0.01560731897652149,0.03552899402081966,0.08570241680275649
1761475512069285600,7.62228564453125,-0.02140051542520523,0.026737200278043747,0.06689286771882325
1761475512079262700,7.6322626953125,-0.020728899773955343,0.016431640971451996,0.034473603216372425
1761475512089239600,7.642239501953125,-0.04150573034286499,-0.006864040550589561,0.015086254244484006
1761475512099216600,7.652216552734375,-0.06892857479751109,-0.0007426350608468055,-0.007623407550528645
1761475512109193500,7.662193359375,-0.047019525328278536,0.0029942864451557396,-0.01875559040699154
1761475512119170600,7.672170654296875,-0.03159691526889801,-0.010752499356493353,0.00428290148358792
1761475512129147600,7.682147705078125,0.007169745498895644,-0.011230199870839714,0.0007708382420241833
1761475512139124700,7.692124755859375,0.02192600060403347,-0.005804156234115362,-0.02095489054955542
1761475512149101800,7.702101806640625,0.028667876079678533,-0.0032812136277556416,-0.016893778590485454
1761475512159079700,7.71207958984375,0.00832066909968853,-0.024914368765056132,-0.010275127635709942
1761475512169056800,7.722056884765625,0.006197685596346855,-0.00004508125074207783,-0.023471805273927747
1761475512179033900,7.732033935546875,0.009283961173892021,-0.01195420329645276,-0.0005815262150019407
1761475512189010700,7.7420107421875,0.009196282890439033,-0.0071302172061055895,0.011995558220148085
1761475512198987800,7.75198779296875,0.031233342653512953,0.03171082397215068,-0.0031707755232229825
1761475512208964600,7.761964599609375,0.04831131870448589,0.029569720290228724,-0.028234124304912983
1761475512218941700,7.771941650390625,0.06225625742673874,0.0212504394300282,-0.01887271398063749
1761475512228918800,7.781918701171875,0.06682254242897033,0.013536504051834344,-0.0010669351117685436
1761475512238895600,7.7918955078125,0.07502104645371437,0.009720452895015478,0.0019042627187445759
1761475512248873700,7.801873779296875,0.08656652281880378,0.012750687436386942,0.012434643757157027
1761475512258850600,7.8118505859375,0.058224809953570364,-0.005949190727993846,0.014165376539900899
1761475512268827600,7.82182763671875,0.012498831567168234,0.00013356325179338455,0.02219469801019877
1761475512278804700,7.8318046875,-0.0024596681118011473,0.020151830538362264,0.011464995007403195
1761475512288781600,7.841781494140625,-0.009057166680693627,0.034169980627298355,0.01980831433031708
1761475512298758700,7.851758544921875,-0.008764321213960646,0.043716026803478594,0.022383023656532167
1761475512308735500,7.861735595703125,-0.009666238489747047,0.03085238051190972,0.02514759299904108
1761475512318712800,7.871712890625,-0.0012415244936943054,0.0390673972800374,0.02936035185586661
1761475512328689700,7.881689697265625,-0.015368834045529365,0.0346232773527503,0.019065496606379746
1761475512338667500,7.89166748046875,-0.019608371311426162,0.02528334820792079,0.03151343823652714
1761475512348644600,7.90164453125,-0.045453591185808176,0.04475077667869627,0.028997656023316085
1761475512358621700,7.91162158203125,-0.07648176665604114,0.031853374247997994,0.023585933172889054
1761475512368598800,7.921598876953125,-0.06390577819943427,0.051538244861736894,0.021451003503426908
1761475512378575600,7.93157568359375,-0.05783727194070816,0.04554243851304054,0.027965536496602
1761475512388552700,7.941552734375,-0.014579729494452475,0.021952815545722842,0.022217859690077602
1761475512398529800,7.95152978515625,0.00997720413506031,0.031128640170022842,0.01333192139044404
1761475512408506600,7.961506591796875,0.061659460577368735,0.02201419034413993,-0.011096307825483381
1761475512418483700,7.971483642578125,0.08499357441365718,0.019456103359162806,0.0013792524639517068
1761475512428460500,7.98146044921875,0.08129822702705859,0.01219926409870386,0.019624043804593382
1761475512438437600,7.991437744140625,0.0826186619758606,0.03907689576074481,0.06348251128606498
1761475512448414500,8.00141455078125,0.07872574619054794,0.06250197581611573,0.060832289038226
1761475512458392600,8.011392578125,0.048937926170229906,0.06524893643669784,0.06972063849065452
1761475512468369700,8.02136962890625,0.05653963334560394,0.06307166546285152,0.06500646945033223
1761475512478346500,8.031346435546874,0.05971943242549896,0.04215491496659815,0.03382708547376096
1761475512488323600,8.041323486328125,0.07307283499538898,0.028371304285898805,-0.008990750380977987
1761475512498300700,8.05130078125,0.053933250239491456,0.012727744952216744,-0.01389083391483873
1761475512508277800,8.06127783203125,0.016278934627771375,0.0013328560389578342,-0.000011580839939415454
1761475512518254800,8.0712548828125,-0.04808978490829467,0.020170316043123603,0.030950178330577907
1761475512528231700,8.081231689453125,-0.08011515472233295,0.04527713864035904,0.01635612804982811
1761475512538208800,8.091208740234375,-0.08167524364590645,0.03481777701154351,-0.0015317030793055891
1761475512548187000,8.101186767578126,-0.10887070908546446,0.03685943890698254,0.004742006895318627
1761475512558163700,8.111163818359374,-0.09478256250023841,0.021516323824599386,-0.010402991799078882
1761475512568140800,8.121140869140625,-0.07409925543367862,0.019093553657084702,-0.030301724359206854
1761475512578117600,8.13111767578125,-0.05504559539556503,0.0027709260180592537,-0.026436427233181892
1761475512588094700,8.1410947265625,-0.046750060737133024,-0.012129559863358735,-0.03644391690865159
1761475512598071600,8.151071533203124,-0.055143795073032374,-0.023971754152700305,-0.03437094655949622
1761475512608048600,8.161048583984375,-0.08751286375820637,-0.0038539720144122836,-0.025587372655794024
1761475512618025700,8.171025634765625,-0.0868751503765583,0.005743804349005222,-0.010154423865489662
1761475512628002600,8.18100244140625,-0.0562362664848566,0.009585574468970298,-0.03257492998819798
1761475512637979600,8.190979736328124,0.0024777882903814314,0.005122092254087328,-0.02953128797598183
1761475512647957500,8.20095751953125,0.07442132699489593,-0.007356134916469454,-0.015542108253203332
1761475512657934600,8.2109345703125,0.11422902124822139,-0.009651552377268672,0.017544899442978202
1761475512667911700,8.22091162109375,0.07181611293256282,-0.01758234537653625,0.05715476956926286
1761475512677888500,8.230888427734374,0.037733810588717456,0.014205343224108219,0.04614310781992972
1761475512687865900,8.240865966796875,-0.009776713126897811,0.042953444933146234,0.010112009495869278
1761475512697842700,8.2508427734375,-0.011120528951287269,0.05013298117369413,-0.0023026509191840885
1761475512707819800,8.26081982421875,-0.008728080856800078,0.05139971317388117,0.016665413194708524
1761475512717796600,8.270796630859374,0.02714753464460373,0.05576821058169007,0.048053325355425475
1761475512727773700,8.280773681640625,0.06975859588086605,0.04680602870807051,0.0782468400998041
1761475512737751800,8.290751708984375,0.051150926044583316,0.05236212846525013,0.10381609257701783
1761475512747728600,8.300728759765626,0.011262567770481109,0.07617291990257799,0.12097086019124835
1761475512757705700,8.310705810546875,-0.02768821739256382,0.09984123412929474,0.11035254514105618
1761475512767682800,8.320682861328125,-0.07527940512895584,0.1075274777829647,0.09323690396081656
1761475512777659600,8.33065966796875,-0.09022679889202118,0.09776019007153809,0.08200341615434735
1761475512787636700,8.34063671875,-0.08060849119722843,0.06915098537653684,0.07650080015007406
1761475512797613600,8.350613525390624,-0.07231471010446548,0.04654452822767198,0.07262965780515224
1761475512807590700,8.360590576171875,-0.08628069161474704,0.03417582584619522,0.07960369806885718
1761475512817567500,8.3705673828125,0.08427344344556331,0.14330021743178367,-0.0055673883361741896
1761475512827545600,8.380545654296874,0.21736615511775015,0.0864539292898029,-0.012664506990276277
1761475512837522700,8.390522705078125,0.206620304697752,-0.05400200462676585,0.11523962306287139
1761475512847499500,8.40049951171875,0.14688158304989338,-0.03798354756608605,0.1082552075356245
1761475512857476600,8.4104765625,0.05989303542673587,0.011606631967797874,0.03787899121306836
1761475512867453700,8.42045361328125,-0.011786299383640288,0.02022876823209226,-0.03572780452854931
1761475512877430800,8.4304306640625,-0.014327800559997557,0.013007365611195563,-0.06403638230916112
1761475512887407900,8.440407958984375,0.014117372679710386,0.02470394088476896,-0.05732234468851238
1761475512897384700,8.450384765625,0.034926351952552795,0.02919124236665666,-0.016286898738518355
1761475512907361800,8.46036181640625,0.03369651789665222,0.03953486866131425,0.008164382559433579
1761475512917339600,8.470339599609375,0.017764789271354674,0.05622895996123552,0.033057562405988575
1761475512927316700,8.480316650390625,-0.02029109287858009,0.051685690508410334,-0.0017050868848338722
1761475512937293800,8.4902939453125,-0.03735036422908306,0.06832111042365431,-0.030561507806554436
1761475512947270400,8.5002705078125,-0.01747954258918762,0.05869440022669732,-0.07443787627089768
1761475512957247500,8.51024755859375,-0.008365677285194396,0.04536218657530844,-0.05481430739033967
1761475512967224300,8.520224365234375,0.0391349095582962,0.0072105889659374945,-0.005214008321240544
1761475512977201400,8.530201416015625,0.061654199880361554,0.008108706849440931,0.030739458189345894
1761475512987178200,8.54017822265625,0.042349779951572415,0.03564743276871741,0.01204034720994532
1761475512997155300,8.5501552734375,-0.0031955811709165572,0.037637437542155386,0.01430525993462652
1761475513007132400,8.56013232421875,-0.015776245802640913,0.02173098948858678,0.03316624694485217
1761475513017110300,8.5701103515625,-0.007564297774434089,-0.013893500795960426,0.023291699466668068
1761475513027087400,8.58008740234375,0.002641454419493675,-0.0024286884516477583,-0.0004522738121449947
1761475513037064200,8.590064208984375,0.02221826154887676,-0.006386193905770778,-0.006486768203414976
1761475513047041500,8.60004150390625,0.019362872117757796,-0.012932254548370837,0.03494805232770741
1761475513057018600,8.6100185546875,0.0005886135429143905,-0.005385273234918713,0.041157282231375575
1761475513066995500,8.619995361328124,-0.014072949016094207,0.009101225018128753,0.03562354043647647
1761475513076972500,8.62997265625,-0.005807224974036216,0.02949482842311263,0.035597675342857835
1761475513086949400,8.639949462890625,0.009010989451408385,0.017769392381235954,0.032966705784760415
1761475513096926500,8.649926513671875,0.014229600882530212,0.009639642743766308,0.047277920536138114
1761475513106903300,8.6599033203125,-0.016888590958714485,-0.00014715338572859763,0.0584350186381489
1761475513116881400,8.66988134765625,-0.06946282780468463,0.013280118137970566,0.07207596944514662
1761475513126858500,8.6798583984375,-0.08898878152966498,0.02938566896021366,0.047911688395030794
1761475513136835300,8.68983544921875,-0.14403729953467845,0.0677667644765228,0.03077270287182182
1761475513146812400,8.6998125,-0.12280687997937202,0.085130060274899,0.009365355847030878
1761475513156789500,8.70978955078125,-0.06255261002480983,0.07572919472306966,0.011187200979329645
1761475513166766300,8.719766357421875,0.013375614401698111,0.033499241758883,0.022450864728353916
1761475513176743400,8.729743408203126,0.07262158409655094,0.023771920731663704,0.04493449921514839
1761475513186720300,8.73972021484375,0.0711719698101282,0.012342325831204651,0.06104249772280454
1761475513196697600,8.749697509765625,0.031278935360908505,0.039914880954846736,0.055485886508971446
1761475513206674400,8.75967431640625,-0.016891513568162916,0.0705244656868279,0.051942807074636214
1761475513216652300,8.76965234375,-0.07792728928923606,0.06759352680146694,0.04255447221081703
1761475513226629400,8.77962939453125,-0.06497428421378135,0.08331577739454805,0.036016046885401005
1761475513236606500,8.7896064453125,0.0024088147073984146,0.08832892938144504,0.014534611711092292
1761475513246583600,8.79958349609375,0.09570376899838447,0.06368541344702243,0.01786434065569192
1761475513256560400,8.809560302734376,0.15125848295986652,0.021451807221025226,0.02742671691216528
1761475513266537500,8.819537353515624,0.15003390960097313,-0.018689137574657795,0.03712601742129773
1761475513276514600,8.8295146484375,0.13573358156979085,-0.013892916274070738,0.02226294094081968
1761475513286491400,8.839491455078125,0.08498539110720157,-0.007252893737703561,0.024037878191471098
1761475513296468500,8.849468505859376,0.0399105701059103,0.0061111032914370296,0.030993140689469872
1761475513306445300,8.8594453125,-0.008818681749701499,0.013483458690345286,0.045191908042319116
1761475513316423400,8.86942333984375,-0.012287234643101691,0.020698212374746797,0.026381774436496197
1761475513326400500,8.879400390625,-0.04549100058674812,0.028297143071144816,0.0018925357483327388
1761475513336377300,8.88937744140625,-0.04298866237699985,0.026870909660309552,0.015618096098862588
1761475513346354400,8.8993544921875,-0.03236556155383587,0.00825505651757121,0.0030022870885208245
1761475513356331300,8.909331298828125,-0.0642050534069538,0.008044336376339197,0.009988529246672987
1761475513366308400,8.919308349609375,-0.08740823433995247,-0.012951178444549441,0.0093425594933331
1761475513376285400,8.929285400390626,-0.1088783078700304,-0.020635887728258966,0.0025658319000154734
1761475513386262500,8.939262451171874,-0.11035071851015091,-0.005866407815366983,-0.01028221496362239
1761475513396239600,8.949239501953125,-0.09677052144706248,-0.006863236832991242,-0.025894429310970007
1761475513406216400,8.959216552734375,-0.07710428246855736,-0.021503902734443543,-0.04400854347664863
1761475513416194600,8.969194580078126,-0.07159399461448192,0.014861030653864144,-0.052214792416431004
1761475513426171600,8.979171630859375,-0.0643359863102436,0.046956323898956175,-0.04717771156467497
1761475513436148500,8.9891484375,-0.03639291737377643,0.04569397581294179,-0.016826558573171495
1761475513446125600,8.99912548828125,-0.025201076751947403,0.036108182148262856,0.003193096952885389
1761475513456102400,9.009102294921876,-0.018173370072245596,0.053863546004146334,-0.0062738561050966375
1761475513466079500,9.01907958984375,0.007024784070253372,0.06854432472027838,-0.016765950959734616
1761475513476056300,9.029056396484375,0.032577742999792096,0.03734510353207588,-0.024365685373730957
1761475513486033400,9.039033447265625,0.02881926724910736,0.029675445687025785,-0.012088825994171201
1761475513496010500,9.049010498046876,0.059652796930074685,0.01828362551368773,-0.023148674266785383
1761475513505987300,9.0589873046875,0.0446422748029232,0.02970985941328108,-0.005560995128005742
1761475513515965400,9.06896533203125,0.0420019894272089,0.05168722487837076,0.004170636748149991
1761475513525942300,9.0789423828125,0.06909691710174083,0.04882226390130818,0.02950907614417374
1761475513535919400,9.08891943359375,0.11971592822670936,0.045563481301069256,0.044000762028992176
1761475513545896400,9.098896484375,0.17487667443454263,0.042540699413791294,0.020273411091417073
1761475513555873300,9.108873291015625,0.17501345255672932,0.03518953293338418,0.02299669857546687
1761475513565850600,9.1188505859375,0.12671323976814747,0.007409399473667144,0.04244001551829278
1761475513575827500,9.128827392578126,0.09201894300580024,0.016847089904546735,0.04842318158112466
1761475513585804500,9.138804443359374,0.063486676004529,0.02892396973259747,0.012434314963594078
1761475513595781400,9.148781494140625,-0.004963175365328788,0.04567096026353538,0.009452413075976072
1761475513605758500,9.158758544921875,-0.06449906791746617,0.051347982986643906,0.030497064268216488
1761475513615735600,9.168735595703126,-0.0879080005556345,0.06930179202407598,0.05027491039503366
1761475513625713400,9.17871337890625,-0.09143617468178272,0.08130195335410535,0.06706975865568965
1761475513635690500,9.1886904296875,-0.0799818837314844,0.05493051764853298,0.08050386177897453
1761475513645667300,9.198667236328125,-0.12838964854776858,0.038587724004313345,0.06814290431253611
1761475513655644400,9.20864453125,-0.13614625402390956,0.03532090422809124,0.030284188702516257
1761475513665621500,9.21862158203125,-0.16187573856413365,0.035468861331418154,0.008883015690185129
1761475513675598300,9.228598388671875,-0.19816578008532523,0.025999752848967907,0.0009035247109830379
1761475513685575400,9.238575439453125,-0.18632219755649565,0.04200016279630363,-0.018477431052736935
1761475513695552300,9.24855224609375,-0.12455343138575553,0.04661225970163941,-0.015240969882160425
1761475513705529300,9.258529296875,-0.048456280133128166,0.027824849384278056,0.0007922828888520598
1761475513715506400,9.26850634765625,0.01626958227753639,-0.02034048497825861,0.02165273662060499
1761475513725484300,9.278484375,0.052663084173202514,-0.010346841165050864,0.0093283848375082
1761475513735461400,9.28846142578125,0.061412792339920995,-0.013574497974663972,-0.002701039119623601
1761475513745438500,9.2984384765625,0.07074702239632606,0.0034803163964301346,0.010387173175439237
1761475513755415600,9.30841552734375,0.08472527886629104,0.03097381493449211,-0.014747121950611472
1761475513765392600,9.318392578125,0.09682897363603114,0.040368469941243525,-0.007239230538532137
1761475513775369500,9.328369384765624,0.10950900698900222,0.04435045224949717,0.0067038084875792265
1761475513785346600,9.3383466796875,0.08087620222270488,0.04897686994113028,-0.010067183973453938
1761475513795323400,9.348323486328125,0.03345511035621166,0.05332081742957234,0.039421654077805575
1761475513805300500,9.358300537109375,-0.01281798051893711,0.0724180974137038,0.033314715504832566
1761475513815277300,9.36827734375,-0.05235621018111705,0.07860898794308305,0.03993910208065062
1761475513825255400,9.37825537109375,-0.06467150187492371,0.09033785805106162,0.06366097312550992
1761475513835232500,9.388232421875,-0.0495657026797533,0.10757665068693459,0.07085293045621364
1761475513845209300,9.398209228515626,-0.018964812710881233,0.10658858949765562,0.08464428605195135
1761475513855186400,9.4081865234375,-0.02802665556669235,0.09397380340062081,0.07586337902937083
1761475513865163300,9.418163330078125,-0.013364508485794067,0.0824574069995433,0.0800554604243487
1761475513875140400,9.428140380859375,0.007543839508295059,0.09212839472964406,0.09495945343710481
1761475513885117400,9.438117431640626,0.05348024577498436,0.06642484834827482,0.09462291495911776
1761475513895094300,9.44809423828125,0.09794774853289127,0.053386941468343135,0.06815196440182626
1761475513905071600,9.458071533203125,0.14564415020942686,0.01662986695729196,0.048496648676134645
1761475513915048400,9.46804833984375,0.15778408533632754,-0.005923033373430371,0.047159116462059315
1761475513925026300,9.4780263671875,0.09615151276588439,-0.004322174048051238,0.06003887363821268
1761475513935003400,9.48800341796875,0.04781973579525947,-0.006883183642476797,0.052341012611985205
1761475513944980500,9.49798046875,-0.029815292549133298,0.005052607214450836,0.0246677370602265
1761475513954957800,9.507957763671875,-0.08679799348711967,0.025708441752195357,-0.004281330581009388
1761475513964935000,9.517934814453126,-0.10849836864173412,0.010103899254649877,-0.0373810150956735
1761475513974911700,9.527911865234374,-0.1235527299106121,0.0015223872616887092,-0.041787068034894764
1761475513984888800,9.537888916015625,-0.07056465156674385,0.0005985504150390625,-0.05586407217159867
1761475513994866000,9.547865966796875,-0.06515314791202545,-0.014228285708278417,-0.030926687857136127
1761475514004842800,9.5578427734375,-0.0678214903384447,0.013497414150461554,-0.009652502225339412
1761475514014819800,9.56781982421875,-0.10844400810599326,0.047069428884610534,0.003716317109391093
1761475514024796700,9.577796630859375,-0.17985154023766517,0.07951346250213683,0.015150149793550371
1761475514034774800,9.58777490234375,-0.18437924679517745,0.09879296718537807,-0.007974632140994071
1761475514044752000,9.597751953125,-0.14331892213225364,0.10462532660067081,-0.0583162145640701
1761475514054728700,9.607728759765624,-0.07732756983041762,0.0834477332111448,-0.04128865352608263
1761475514064705800,9.617705810546875,-0.016373627173900604,0.06637976709753275,-0.02100534209515899
1761475514074682600,9.6276826171875,0.05021686006486416,0.05459967825897038,0.02398786503728479
1761475514084659700,9.63765966796875,0.10886194125711918,0.053543812530487775,0.021065986241213978
1761475514094636800,9.64763671875,0.1340098265171051,0.05758804641999304,0.05325915037021041
1761475514104614000,9.65761376953125,0.15424246720671653,0.04241575785987079,0.06675225367173553
1761475514114591000,9.667591064453125,0.1768558655530214,0.029058409767225384,0.05283339923880994
1761475514124567800,9.67756787109375,0.17725041782855985,0.03773191089257598,0.025701865880936384
1761475514134545000,9.687544921875,0.14722586644291877,0.008712737157195807,-0.0034582872277125714
1761475514144523000,9.69752294921875,0.0959726490676403,0.018616510729864238,-0.00510981729440391
1761475514154499800,9.707499755859375,0.08720540524423122,0.042863574692606925,0.011968597147986293
1761475514164477000,9.717476806640626,0.11357669481933116,0.05356485531851649,0.006568126343935728
1761475514174453800,9.727453857421875,0.10257774642109871,0.027207521203532814,0.039132388807646926
1761475514184430800,9.737430908203125,0.07773088993430137,0.031272724815830585,0.06475041233003138
1761475514194407700,9.74740771484375,0.028922143101692197,0.042869492976740003,0.06464030301906168
1761475514204384800,9.757384765625,-0.0019441198050975798,0.03864252293147147,0.057131242563202976
1761475514214361900,9.76736181640625,-0.048176878669857974,0.05245338694527745,0.05360160713233053
1761475514224338700,9.777338623046875,-0.10799041911959648,0.07407857797183096,0.04523739115186035
1761475514234315800,9.787315673828125,-0.13098843286931514,0.08491919400319456,0.035635815396159884
1761475514244292900,9.79729296875,-0.14495558342337608,0.0680057608641684,0.03503090830557048
1761475514254270700,9.807270751953125,-0.1239233167886734,0.024265622532740234,0.008017740630358457
1761475514264247800,9.817247802734375,-0.10317395874857901,-0.0029698095910251137,-0.0055540539305657145
1761475514274224600,9.827224609375,-0.08169102573692798,-0.009282572934404015,-0.01955422997139394
1761475514284202000,9.837201904296874,-0.06353577584326267,0.0069897858221083875,-0.005186426194570958
1761475514294178800,9.8471787109375,-0.012865326792001723,0.02524878835119307,0.01620901119671762
1761475514304156000,9.857156005859375,0.011104162338376045,0.0240743377443403,0.037904454447887835
1761475514314132700,9.8671328125,0.0140688573628664,0.021635639355331658,0.06891882058847695
1761475514324109800,9.87710986328125,0.0037210663497447964,0.024540859277546404,0.04544266793299466
1761475514334087000,9.8870869140625,-0.019895371559262274,0.03441124203726649,0.016663586563803255
1761475514344064800,9.897064697265625,-0.03513268817961216,0.032752076653391124,0.0057701808992773294
1761475514354041900,9.907041748046876,-0.012337503525614737,0.0284036721855402,0.0069113137584179635
1761475514364019000,9.91701904296875,0.04782148936092853,0.015754691557958722,-0.007161233398877084
1761475514373995800,9.926995849609375,0.10086217467486858,-0.005946195053309202,0.01516567615624517
1761475514383972900,9.936972900390625,0.08788403515815735,0.0040667379822582,0.04080266010742634
1761475514393949700,9.94694970703125,0.04462181653678417,0.0246259072124958,0.061047904550284145
1761475514403926800,9.9569267578125,0.021774609434604644,0.04389737471975386,0.06484265719074755
1761475514413903600,9.966903564453125,0.03401683589220047,0.03320369287841022,0.05039714853521436
1761475514423880700,9.976880615234375,0.07543488795161246,0.036615254887565965,0.04437288327701389
1761475514433857800,9.98685791015625,0.11931436168849467,0.03567958147265017,0.046633777413703496
1761475514443835000,9.9968349609375,0.07530395504832267,0.0013172931436449288,0.04311970487814396
1761475514453812700,10.006812744140625,0.053122518378496165,0.020290727552399038,0.04098291204515844
1761475514463789800,10.016789794921875,0.04516308380663395,0.040587081127986306,0.05838515161443501
1761475514473767000,10.026766845703126,0.04461012609899044,0.03334996948130429,0.0903403422690928
1761475514483744000,10.036743896484374,0.03677870182096958,0.009930077057704328,0.11876308448128402
1761475514493720800,10.046720947265625,0.012349778485298156,0.013849734719470142,0.08344006136134266
1761475514503698000,10.056697998046875,-0.02154255424439907,0.003916808117553592,0.036357626864686604
1761475514513674800,10.0666748046875,-0.07466857975423336,-0.008060337663069368,0.01314593383166939
1761475514523651800,10.07665185546875,-0.10587211179137229,-0.004401669025048613,0.04698715742863714
1761475514533628700,10.086628662109375,-0.11845569903254509,0.013485285321250557,0.015712131057865918
1761475514543605800,10.096605712890625,-0.12738485541939734,0.040569910797476766,0.030358386449888346
1761475514553582800,10.106582763671875,-0.09339724562168121,0.020982728404551742,0.014888357052206992
1761475514563559700,10.1165595703125,-0.07150164015591144,-0.0030223434958606956,-0.007201017419993877
1761475514573537800,10.126537841796875,-0.06993629053533076,-0.006768032830208539,-0.0019144187865778803
1761475514583514600,10.1365146484375,-0.07406301507651805,-0.010614917516708374,-0.02756265478413552
1761475514593491700,10.14649169921875,-0.05156301397681236,0.03254508283920586,-0.024401523872092365
1761475514603468800,10.15646875,-0.05795826797187328,0.047044878965243696,-0.0019166838089004158
1761475514613445600,10.166445556640625,-0.029218495699763296,0.031831746938079594,0.006232720377109945
1761475514623423000,10.176423095703125,-0.0054833998471498484,0.018415727460756898,-0.01999565359596163
1761475514633399800,10.18639990234375,0.0029401451051235196,0.02042838245742023,-0.06099405547119677
1761475514643377000,10.196376953125,0.020041502031683922,0.005438391661643982,-0.07158361935093999
1761475514653353700,10.206353759765625,0.03586801671683788,-0.03302753259390592,-0.06006251024212688
1761475514663330800,10.216330810546875,0.04935702836513519,-0.031988325739279386,-0.05854286292679608
1761475514673309000,10.226308837890626,0.08515081080198288,0.005289046318829059,-0.048844183472171426
1761475514683285800,10.23628564453125,0.08563830205798148,0.019645196190476416,-0.029304895341582593
1761475514693262800,10.246262939453125,0.10742577097415923,0.011643749107792973,-0.005924421612918377
1761475514703240000,10.256239990234375,0.14228607195317744,0.023367431584000585,0.023637115370854733
1761475514713216800,10.266216796875,0.1420049169242382,0.022181144408881664,0.008951112490333616
1761475514723193900,10.27619384765625,0.17411036623716353,0.019906988931819795,-0.0010455269975587725
1761475514733170700,10.286170654296875,0.173009126996994,0.007311492057144642,-0.0015152999337762593
1761475514743147800,10.296147705078125,0.17387363487184046,-0.002136500572040677,-0.00830163560565561
1761475514753124600,10.30612451171875,0.1493032572388649,0.0032528643161058423,-0.008012005009315908
1761475514763101700,10.316101806640624,0.07610767264664173,0.00589987169355154,-0.000013809329643845557
1761475514773079000,10.3260791015625,-0.009015665626525879,0.03469612339325249,0.029453217771090567
1761475514783056600,10.336056640625,-0.061281274914741515,0.06064779931679368,0.06061433543860912
1761475514793033700,10.34603369140625,-0.0980599767357111,0.08831051694191992,0.08432630614396185
1761475514803010800,10.3560107421875,-0.12534487402439118,0.09655673256590962,0.06177556123770773
1761475514812988000,10.36598779296875,-0.17228958055078983,0.07004683823771775,0.02112264833189547
1761475514822965000,10.375965087890625,-0.18481588464677332,0.035544483850896355,-0.05576189043875783
1761475514832941800,10.38594189453125,-0.1716466064721346,0.012846841287240385,-0.03505973254125565
1761475514842919000,10.3959189453125,-0.15476561429798602,-0.01253390288054943,-0.024883608300611374
1761475514852895700,10.405895751953125,-0.12231178993880748,0.003860840146616101,-0.029898623451031742
1761475514862872800,10.415872802734375,-0.08114449777007103,0.010082198879495262,0.00878554666507989
1761475514872849700,10.425849609375,-0.08622223942577839,-0.006147124452888965,0.044186822653003034
1761475514882826800,10.43582666015625,-0.08517419167757034,-0.014577683667838572,-0.00019778759442269802
1761475514892804900,10.445804931640625,-0.08066285173296928,-0.0327039997279644,-0.08356244563199579
1761475514902781700,10.45578173828125,-0.02732522929906845,-0.03909377383030951,-0.11831621749661862
1761475514912758800,10.4657587890625,0.01918459294140339,-0.04814027298651635,-0.09933982394579798
1761475514922735600,10.475735595703124,0.049048400807380675,-0.06446238916888833,0.021064159610308705
1761475514932712700,10.485712646484375,0.04821604163646698,-0.023476371851190923,0.13608352751862257
1761475514942689800,10.495689697265625,0.08353869943022728,0.05978606792092323,0.1333200541546568
1761475514952667000,10.5056669921875,0.09992518608570099,0.06717047908380627,0.12021419660504906
1761475514962643700,10.515643798828124,0.09353110113441944,0.020089213630929588,0.06543795620277523
1761475514972620800,10.525620849609375,0.12810849351882933,0.017243980267643927,-0.012025989891029893
1761475514982597600,10.53559765625,0.17346797668039798,0.03310943872369826,-0.0407632414124906
1761475514992574700,10.54557470703125,0.15738894853889943,0.03019903116971254,-0.002519398942403495
1761475515002552800,10.555552734375,0.10883680681586265,0.02767228917106986,0.03478562830761075
1761475515012529700,10.56552978515625,0.04010521589517593,0.040865971134603024,0.04796601239815354
1761475515022506800,10.5755068359375,-0.019150690671801567,0.07255816347151994,0.045564540746994314
1761475515032483600,10.585483642578126,-0.05314239212274551,0.1185064793717116,0.06749324476476758
1761475515042460700,10.595460693359374,-0.07875555680692195,0.12462101672925054,0.10690569262281059
1761475515052437800,10.605437744140625,-0.0673421823889017,0.10779928046166896,0.13330876557566224
1761475515062414600,10.61541455078125,-0.12711948248147964,0.07896898036189377,0.11897574085127562
1761475515072391700,10.6253916015625,-0.1145855796009302,0.08058379514738917,0.07531593774706125
1761475515082368500,10.635368408203124,-0.13638707704246045,0.06258168998882174,0.06760364633668213
1761475515092345600,10.645345703125,-0.1413204417914152,0.08313421028256415,0.07388656253106891
1761475515102322700,10.65532275390625,-0.08927811986505985,0.06437587992921472,0.060103317176550625
1761475515112300500,10.665300537109376,-0.014490297645330429,0.06253858149945736,0.08943221444822848
1761475515122277600,10.675277587890625,0.02508183428645134,0.04973017252646386,0.11631656811200082
1761475515132254700,10.685254638671875,0.0431739558160305,0.038081601113080975,0.1708333173278719
1761475515142231800,10.695231689453125,0.029908231529593467,0.056965603672713035,0.13185421938579528
1761475515152208600,10.705208740234376,0.03560731995403767,0.059034957292675966,0.05246533311139792
1761475515162185700,10.715185791015625,0.07382394562363624,0.015158113904297351,0.0987749931372702
1761475515172162800,10.725162841796875,-0.027019524350762367,0.011153189111873506,0.018676716484501955
1761475515182139600,10.7351396484375,-0.07060498357713223,0.00018295535147190093,-0.059981115568988025
1761475515192116700,10.74511669921875,-0.027342764955759047,-0.012568316606804728,-0.06345715764909983
1761475515202093600,10.755093505859374,0.011247954723238944,-0.018453502187877894,-0.07059785971660167
1761475515212070700,10.765070556640625,0.02694353650510311,0.004029328581318259,-0.05881893992181867
1761475515222048800,10.775048828125,0.039324294650554655,-0.001486146904528141,-0.027890242770686743
1761475515232025600,10.785025634765624,0.008818097227811813,-0.022003668950125573,-0.022168175329454243
1761475515242002700,10.795002685546875,-0.0102870007365942,0.02959711975380778,-0.027113486244529483
1761475515251979500,10.8049794921875,-0.021947627913951873,0.06845474674068391,0.013530731898173689
1761475515261956600,10.81495654296875,0.009874328282475472,0.12257358268015085,0.1836288668192923
1761475515271933700,10.82493359375,0.02002981159389019,0.22354674344882366,0.03992785003427416
1761475515281910800,10.834910888671875,-0.09917641354501247,0.1511747501991689,0.012644048724137246
1761475515291887900,10.844887939453125,-0.14732698872983455,0.05102503464259207,0.1780432487066835
1761475515301864700,10.85486474609375,-0.1208382102549076,0.02806311511956155,0.06132471219766885
1761475515311841800,10.864841796875,-0.03261924405395984,0.05395027443952858,-0.009726846103183924
1761475515321818600,10.874818603515624,0.0988309611082077,0.05545118052177131,-0.03512695255856961
1761475515331795700,10.884795654296875,0.25804303342103957,-0.0201507345598191,-0.09423311192393302
1761475515341773800,10.89477392578125,0.3771037126094103,-0.008110241219401359,-0.09740830789394676
1761475515351750700,10.904750732421874,0.3354635422319174,0.10028539770022034,0.04870521339289844
