time,seconds_elapsed,z,y,x
1761470348448035800,0.078035888671875,-0.0006806915043853223,0.01041640155017376,0.006723650731146336
1761470348458012200,0.08801220703125,0.005209688562899828,0.045169319957494736,0.02006928250193596
1761470348467989000,0.097989013671875,0.022966716438531876,0.08142170310020447,0.027018185704946518
1761470348477965000,0.107965087890625,0.03038947843015194,0.07342769205570221,0.03535201773047447
1761470348487942000,0.11794189453125,0.018684495240449905,0.04338967055082321,0.03375200182199478
1761470348497918200,0.127918212890625,-0.0028261239640414715,0.025455942377448082,0.025663180276751518
1761470348507894000,0.13789404296875,-0.006638715043663979,0.018413875252008438,0.020105501636862755
1761470348517871000,0.14787109375,-0.007547385990619659,0.008052846416831017,0.018587233498692513
1761470348527847200,0.15784716796875,-0.005571712739765644,-0.003042911645025015,0.03402319550514221
1761470348537824000,0.167823974609375,0.0011746068485081196,0.02357218787074089,0.04356610029935837
1761470348547800000,0.177800048828125,0.019035886973142624,0.055261269211769104,0.05444811284542084
1761470348557777000,0.18777685546875,0.039740364998579025,0.047623056918382645,0.03377266228199005
1761470348567753000,0.1977529296875,0.03906344249844551,0.00433765072375536,0.0032090304885059595
1761470348577729000,0.20772900390625,0.0383201539516449,0.016739990562200546,0.0029009028803557158
1761470348587706000,0.2177060546875,0.03198155760765076,0.07686178386211395,0.023158306255936623
1761470348597682000,0.227681884765625,0.02466345764696598,0.08876344561576843,0.04426119476556778
1761470348607659000,0.237658935546875,0.016156436875462532,0.033868953585624695,0.054102327674627304
1761470348617635000,0.247635009765625,0.008389594033360481,-0.030512165278196335,0.05119628831744194
1761470348627612200,0.257612060546875,0.014907153323292732,-0.046373751014471054,0.035939399152994156
1761470348637588000,0.267587890625,0.019898980855941772,-0.031510915607213974,0.032332148402929306
1761470348647564000,0.27756396484375,0.03064582124352455,-0.009290920570492744,0.03409910202026367
1761470348657541000,0.287541015625,0.049209918826818466,0.0022078105248510838,0.026464086025953293
1761470348667517000,0.297516845703125,0.06133141368627548,-0.007407171651721001,0.013344618491828442
1761470348677494000,0.307493896484375,0.058328963816165924,-0.034388452768325806,-0.004844238981604576
1761470348687470000,0.317469970703125,0.051703207194805145,-0.04578720033168793,-0.012005960568785667
1761470348697447200,0.327447265625,0.048273853957653046,-0.02860848233103752,-0.008853044360876083
1761470348707423000,0.337423095703125,0.044950179755687714,0.0016995451878756285,0.003966046497225761
1761470348717398800,0.347398681640625,0.04010828584432602,0.015400976873934269,0.022957846522331238
1761470348727376000,0.3573759765625,0.03490012139081955,0.03163212165236473,0.04036944732069969
1761470348737352000,0.36735205078125,0.028216388076543808,0.038636766374111176,0.040462393313646317
1761470348747329000,0.3773291015625,0.022996092215180397,0.023214735090732574,0.02297251857817173
1761470348757304800,0.387304931640625,0.018584832549095154,-0.0024823718704283237,0.017769766971468925
1761470348767282000,0.397281982421875,0.004660863894969225,-0.01129287388175726,0.0221038069576025
1761470348777258000,0.407258056640625,0.005172723438590765,0.013511541299521923,0.030739372596144676
1761470348787233800,0.41723388671875,0.008862100541591644,0.03976939991116524,0.034378912299871445
1761470348797211000,0.4272109375,0.014664595946669579,0.0506683848798275,0.03206435963511467
1761470348807187000,0.43718701171875,0.02301573008298874,0.0398285910487175,0.01703711599111557
1761470348817164000,0.4471640625,0.02795988880097866,-0.0001712909433990717,-0.0028396525885909796
1761470348827139800,0.457139892578125,0.04219083860516548,-0.03156055137515068,-0.02206895500421524
1761470348837117000,0.467116943359375,0.05234546959400177,-0.021168896928429604,-0.013334852643311024
1761470348847093000,0.477093017578125,0.05505727604031563,0.02234746515750885,0.013179869391024113
1761470348857069000,0.487069091796875,0.05246815085411072,0.0624043345451355,0.03335251659154892
1761470348867046000,0.4970458984375,0.045512422919273376,0.06909863650798798,0.045231498777866364
1761470348877022000,0.50702197265625,0.03301234543323517,0.05126398056745529,0.0492376908659935
1761470348886998800,0.516998779296875,0.02018623985350132,0.03383331000804901,0.04419992119073868
1761470348896975000,0.52697509765625,0.009182591922581196,0.013437226414680481,0.04589875042438507
1761470348906951000,0.536950927734375,0.004607547540217638,0.016181612387299538,0.05298249423503876
1761470348916928000,0.546927978515625,-0.00009745918214321136,0.026335980743169785,0.06323939561843872
1761470348926904000,0.556904052734375,-0.002370679983869195,0.0357460081577301,0.06668751686811447
1761470348936881000,0.566880859375,-0.005678326357156038,0.04841546341776848,0.061426181346178055
1761470348946857000,0.57685693359375,-0.014557168819010258,0.044847726821899414,0.04861548915505409
1761470348956833800,0.586833740234375,-0.026368554681539536,0.016276270151138306,0.027387699112296104
1761470348966810000,0.59681005859375,-0.02925565093755722,0.010036959312856197,0.015169492922723293
1761470348976786000,0.606785888671875,-0.025730689987540245,0.029068173840641975,0.014524474740028381
1761470348986763000,0.616762939453125,-0.017074622213840485,0.04497263580560684,0.02264462225139141
1761470348996738800,0.62673876953125,-0.0005678171291947365,0.05314241349697113,0.027612481266260147
1761470349006716000,0.6367158203125,0.013801268301904202,0.06675196439027786,0.015055944211781025
1761470349016692000,0.64669189453125,0.02406296133995056,0.07123646140098572,-0.005082613788545132
1761470349026669000,0.6566689453125,0.020499426871538162,0.039747923612594604,-0.024586068466305733
1761470349036644900,0.666644775390625,0.016727859154343605,0.002056472934782505,-0.036564964801073074
1761470349046621000,0.676620849609375,0.01788456365466118,-0.01615266688168049,-0.020145537331700325
1761470349056598000,0.686597900390625,0.016362566500902176,-0.0019486978417262435,-0.01183993648737669
1761470349066573800,0.69657373046875,0.021405726671218872,0.0059255147352814674,-0.005435432773083448
1761470349076551000,0.706551025390625,0.021011047065258026,0.013426042161881924,-0.013873925432562828
1761470349086527000,0.71652685546875,0.018172888085246086,0.01367910299450159,-0.023929167538881302
1761470349096504000,0.726504150390625,0.011189812794327736,-0.003816267242655158,-0.043623242527246475
1761470349106479900,0.73647998046875,0.009993746876716614,-0.03439142927527428,-0.06687381118535995
1761470349116456000,0.7464560546875,0.01316290907561779,-0.05141941457986832,-0.06813348829746246
1761470349126432800,0.756432861328125,0.013017499819397926,-0.03751851245760918,-0.046835917979478836
1761470349136409000,0.7664091796875,0.004581671208143234,-0.0016936683095991611,-0.01187287550419569
1761470349146386000,0.776385986328125,-0.003542601130902767,0.026500144973397255,0.021379873156547546
1761470349156362000,0.786362060546875,-0.01658330298960209,0.04664056748151779,0.039598558098077774
1761470349166338800,0.7963388671875,-0.02434026077389717,0.04531491547822952,0.03894812613725662
1761470349176315000,0.80631494140625,-0.024651318788528442,0.01810459978878498,0.027001451700925827
1761470349186291000,0.816291015625,-0.02627570740878582,-0.02549929730594158,0.017574677243828773
1761470349196267800,0.826267822265625,-0.029072824865579605,-0.03271832689642906,0.023126836866140366
1761470349206244000,0.836244140625,-0.027668356895446777,-0.0030007334426045418,0.03788549453020096
1761470349216221000,0.846220947265625,-0.025828910991549492,0.019408967345952988,0.0507512241601944
1761470349226197000,0.856197021484375,-0.019548162817955017,0.01303328201174736,0.05469426512718201
1761470349236173800,0.866173828125,-0.007982851937413216,-0.0010455191368237138,0.035795144736766815
1761470349246150100,0.876150146484375,0.008797379210591316,0.005603507626801729,-0.0022660077083855867
1761470349256126000,0.8861259765625,0.014943954534828663,0.0033643217757344246,-0.023718835785984993
1761470349266103000,0.89610302734375,0.014940889552235603,0.0022230572067201138,-0.036510709673166275
1761470349276078800,0.906078857421875,0.01359892264008522,0.02549588866531849,-0.029964927583932877
1761470349286056000,0.916055908203125,0.005634776782244444,0.049831267446279526,-0.017087632790207863
1761470349296032000,0.926031982421875,-0.0031251590698957443,0.0497489757835865,0.0025571733713150024
1761470349306009000,0.936009033203125,-0.008239177986979485,0.015319440513849258,-0.0005389816942624748
1761470349315985000,0.94598486328125,-0.005623953882604837,-0.0069674900732934475,-0.027618004009127617
1761470349325961700,0.955961669921875,-0.0032359068281948566,-0.027287812903523445,-0.051202088594436646
1761470349335938000,0.96593798828125,-0.0024899556301534176,-0.03513960912823677,-0.06344570964574814
1761470349345913900,0.975913818359375,-0.005841626785695553,-0.013041583821177483,-0.04997601360082626
1761470349355891000,0.985890869140625,-0.007971090264618397,0.009376905858516693,-0.02523791231215
1761470349365867000,0.995866943359375,-0.01008265558630228,0.008057322353124619,-0.01128255296498537
1761470349375844000,1.005843994140625,-0.009490368887782097,0.0015032824594527483,-0.003983360715210438
1761470349385820000,1.01581982421875,-0.012496154755353928,-0.00025417166762053967,-0.003024630481377244
1761470349395796000,1.0257958984375,-0.008072378113865852,-0.009774173609912395,-0.007748279720544815
1761470349405772800,1.035772705078125,-0.004304537549614906,-0.02198343724012375,-0.003877907292917371
1761470349415748900,1.045748779296875,-0.00015027238987386227,-0.007527530658990145,0.006262610666453838
1761470349425726000,1.055725830078125,0.0026548411697149277,0.01253745798021555,0.020288243889808655
1761470349435701800,1.06570166015625,0.011078686453402042,0.023911552503705025,0.029027672484517097
1761470349445678800,1.075678955078125,0.016879620030522346,0.02415331080555916,0.025551827624440193
1761470349455655000,1.085655029296875,0.025479232892394066,0.008592461235821247,0.014569748193025589
1761470349465632000,1.095632080078125,0.028355460613965988,-0.016857903450727463,-0.0020449929870665073
1761470349475607800,1.10560791015625,0.030814357101917267,-0.0417531318962574,-0.014786621555685997
1761470349485584100,1.115584228515625,0.032483167946338654,-0.04354342073202133,-0.0223697479814291
1761470349495561000,1.12556103515625,0.03359610214829445,-0.023800078779459,-0.02887185476720333
1761470349505537000,1.135537109375,0.031074894592165947,0.0005605898331850767,-0.028180403634905815
1761470349515513900,1.145513916015625,0.02555922232568264,0.0018266565166413784,-0.019625265151262283
1761470349525490000,1.155489990234375,0.02319938875734806,-0.0048165335319936275,-0.01382393017411232
1761470349535467000,1.165467041015625,0.013826926238834858,-0.0024513802491128445,-0.0037763563450425863
1761470349545443000,1.175443115234375,0.004345415625721216,-0.005850603803992271,-0.008161773905158043
1761470349555419000,1.1854189453125,-0.001387571101076901,-0.0143269132822752,-0.010412144474685192
1761470349565395700,1.195395751953125,-0.006034203805029392,-0.007899030111730099,-0.0006678723730146885
1761470349575372000,1.2053720703125,-0.010614574886858463,-0.0038640745915472507,0.0062310462817549706
1761470349585348900,1.215348876953125,-0.021924326196312904,0.004015328828245401,0.01716289110481739
1761470349595325000,1.225324951171875,-0.02363993413746357,0.020203353837132454,0.026349199935793877
1761470349605301800,1.2353017578125,-0.025867223739624023,0.02417171001434326,0.03347274288535118
1761470349615278000,1.245278076171875,-0.01833021081984043,0.007717367261648178,0.032007474452257156
1761470349625254000,1.25525390625,-0.007034727372229099,-0.012014605104923248,0.027268074452877045
1761470349635231000,1.26523095703125,-0.00027802149998024106,-0.01467483676970005,0.01989111863076687
1761470349645207000,1.27520703125,0.0024338490329682827,-0.007843369618058205,0.020670970901846886
1761470349655184000,1.285183837890625,-0.001113747712224722,-0.00477940309792757,0.020319433882832527
1761470349665160000,1.295159912109375,-0.004322950728237629,0.0010838569141924381,0.027855409309267998
1761470349675136800,1.30513671875,-0.005118170287460089,0.014099258929491043,0.03929901123046875
1761470349685112800,1.31511279296875,-0.006969698239117861,0.007101644761860371,0.04317570477724075
1761470349695089000,1.3250888671875,0.003893868066370487,-0.0064445240423083305,0.02969052456319332
1761470349705066000,1.33506591796875,0.018096866086125374,-0.01614592969417572,0.016594404354691505
1761470349715041800,1.345041748046875,0.024915622547268867,-0.026827070862054825,0.0021315759513527155
1761470349725019000,1.355018798828125,0.02802627719938755,-0.028242722153663635,-0.00928215216845274
1761470349734995000,1.364994873046875,0.020772891119122505,-0.0163519736379385,-0.011734923347830772
1761470349744972000,1.374971923828125,0.005825279746204615,-0.004071093164384365,-0.00784232560545206
1761470349754947800,1.38494775390625,-0.002119728596881032,0.00414102990180254,-0.00046510330867022276
1761470349764924000,1.394923828125,-0.007377106696367264,-0.0022673429921269417,0.008503874763846397
1761470349774901000,1.40490087890625,-0.0017040411476045847,-0.014819886535406113,0.010290323756635189
1761470349784876800,1.414876708984375,0.0007608876330778003,-0.017807111144065857,0.0077329170890152454
1761470349794854000,1.42485400390625,-0.0044354721903800964,-0.009437859989702702,0.009305247105658054
1761470349804830000,1.434829833984375,-0.016767585650086403,-0.009129554964601994,0.0036209418904036283
1761470349814807000,1.44480712890625,-0.027056442573666573,-0.00423466507345438,0.0003441883600316942
1761470349824782800,1.454782958984375,-0.03088681399822235,0.00006774766370654106,-0.0021152112167328596
1761470349834759000,1.464759033203125,-0.02606995590031147,-0.005487872287631035,-0.005155741702765226
1761470349844735700,1.47473583984375,-0.018324080854654312,0.005196620710194111,-0.005905190948396921
1761470349854712000,1.484712158203125,-0.012171912007033825,0.012372508645057678,-0.010059456340968609
1761470349864689000,1.49468896484375,-0.010924139060080051,-0.008606189861893654,-0.010383780114352703
1761470349874664700,1.504664794921875,-0.010152088478207588,-0.012694675475358963,0.000004145666025578976
1761470349884641800,1.514641845703125,-0.01408112607896328,0.000004455447196960449,0.017050817608833313
1761470349894617900,1.524617919921875,-0.011023550294339657,0.0031690895557403564,0.03237437829375267
1761470349904594000,1.534593994140625,-0.0017410654108971357,-0.003455579513683915,0.03013264387845993
1761470349914570800,1.54457080078125,0.008087330497801304,-0.0010171892354264855,0.031605105847120285
1761470349924547000,1.554547119140625,0.011906798928976059,-0.0022592314053326845,0.025115402415394783
1761470349934524000,1.56452392578125,0.012846361845731735,-0.003527695080265403,0.019122757017612457
1761470349944500000,1.5745,0.012634417973458767,-0.006100430618971586,0.007515843026340008
1761470349954476800,1.584476806640625,0.0077531104907393456,-0.00830233283340931,-0.009493767283856869
1761470349964452900,1.594452880859375,0.004102551378309727,-0.015637323260307312,-0.019398801028728485
1761470349974429000,1.604428955078125,0.004518803209066391,0.003393358550965786,-0.01672765053808689
1761470349984406000,1.614406005859375,0.007274986244738102,0.014401625841856003,-0.022443002089858055
1761470349994381800,1.6243818359375,0.007592434994876385,0.01191876083612442,-0.029784271493554115
1761470350004359000,1.63435888671875,0.008364176377654076,0.004774154629558325,-0.040114082396030426
1761470350014335000,1.6443349609375,0.0072432514280080795,-0.013870902359485626,-0.03984031081199646
1761470350024312000,1.65431201171875,0.00817473977804184,-0.013847488909959793,-0.0319385901093483
1761470350034287900,1.664287841796875,0.011079182848334312,0.004991445690393448,-0.00990892294794321
1761470350044264000,1.674263916015625,0.0056091793812811375,0.016623767092823982,0.013449219055473804
1761470350054241000,1.684240966796875,0.00003704725531861186,0.02394000254571438,0.027435608208179474
1761470350064216800,1.694216796875,-0.006810832303017378,0.016150834038853645,0.032442379742860794
1761470350074194000,1.70419384765625,-0.01020689494907856,-0.002388761145994067,0.028784526512026787
1761470350084170000,1.714169921875,-0.007961496710777283,-0.010202719829976559,0.022337159141898155
1761470350094147000,1.72414697265625,-0.003753703087568283,-0.022788286209106445,0.023890847340226173
1761470350104123000,1.734122802734375,0.006130489055067301,-0.024160513654351234,0.03292020782828331
1761470350114100000,1.744099853515625,0.010753736831247807,-0.013217851519584656,0.05138976499438286
1761470350124075800,1.75407568359375,0.01302412524819374,0.008795449510216713,0.06465224176645279
1761470350134051800,1.7640517578125,0.01814431883394718,0.02483993023633957,0.07365266233682632
1761470350144029000,1.77402880859375,0.020762033760547638,0.030859962105751038,0.07055458426475525
1761470350154004700,1.784004638671875,0.021770838648080826,0.020601997151970863,0.047230083495378494
1761470350163981800,1.79398193359375,0.022378118708729744,-0.00053622224368155,0.017116976901888847
1761470350173958000,1.8039580078125,0.025572845712304115,-0.012997418642044067,-0.0060613127425313
1761470350183935000,1.81393505859375,0.024561068043112755,-0.0016287948237732053,-0.018793292343616486
1761470350193910800,1.823910888671875,0.026796258985996246,0.013650293461978436,-0.022746754810214043
1761470350203887000,1.83388720703125,0.030390124768018723,0.0148224588483572,-0.02981395088136196
1761470350213864000,1.843864013671875,0.033232249319553375,0.008777083829045296,-0.04473856836557388
1761470350223840000,1.853840087890625,0.02323983982205391,0.01155843585729599,-0.050535090267658234
1761470350233816800,1.86381689453125,0.012302235700190067,0.006709618028253317,-0.05339985340833664
1761470350243793000,1.87379296875,0.007273482624441385,-0.0043867542408406734,-0.04560267925262451
1761470350253770000,1.88377001953125,0.010191508568823338,-0.0064714765176177025,-0.03444083780050278
1761470350263745800,1.893745849609375,0.01479958463460207,0.00540588703006506,-0.014186345040798187
1761470350273721900,1.903721923828125,0.019683822989463806,0.016054537147283554,0.008432681672275066
1761470350283698700,1.91369873046875,0.020961640402674675,0.024652231484651566,0.02070384845137596
1761470350293675000,1.923675048828125,0.02291666716337204,0.026935361325740814,0.023089773952960968
1761470350303651800,1.93365185546875,0.018738923594355583,0.0193161778151989,0.00944352988153696
1761470350313628000,1.9436279296875,0.01630452834069729,0.005385449156165123,0.0002718690666370094
1761470350323604700,1.953604736328125,0.022322876378893852,0.002609202405437827,0.007047128397971392
1761470350333581000,1.9635810546875,0.020777978003025055,0.01439688540995121,0.011224828660488129
1761470350343556900,1.973556884765625,0.024322673678398132,0.02147451601922512,0.014045407995581627
1761470350353534000,1.983533935546875,0.02587503008544445,0.015297580510377884,0.006189082283526659
1761470350363510000,1.993510009765625,0.030162794515490532,-0.0013976260088384151,-0.007960609160363674
1761470350373487000,2.003487060546875,0.02949700504541397,-0.0301981158554554,-0.021907582879066467
1761470350383463000,2.013462890625,0.023338202387094498,-0.0444076731801033,-0.024514436721801758
1761470350393440000,2.02343994140625,0.0156515222042799,-0.022038452327251434,-0.00821828842163086
1761470350403415800,2.033415771484375,0.008839673362672329,0.001022792188450694,0.014283107593655586
1761470350413392000,2.043391845703125,0.0044726221822202206,0.015111181885004044,0.03393084183335304
1761470350423369000,2.053368896484375,0.008734967559576035,0.018618687987327576,0.04217685014009476
1761470350433344800,2.0633447265625,0.014474879018962383,0.015533681027591228,0.0481410026550293
1761470350443321900,2.07332177734375,0.02484518475830555,-0.012561747804284096,0.038477249443531036
1761470350453298000,2.0832978515625,0.03074302151799202,-0.020010342821478844,0.031013472005724907
1761470350463275000,2.09327490234375,0.024611761793494225,-0.005803343839943409,0.03464620187878609
1761470350473250800,2.103250732421875,0.018831636756658554,0.012598833069205284,0.0320938304066658
1761470350483228000,2.113227783203125,0.012521903961896896,0.016783947125077248,0.02646574378013611
1761470350493204000,2.123203857421875,0.009065120480954647,0.012077340856194496,0.012320363894104958
1761470350503179800,2.1331796875,0.010153296403586864,-0.004804505500942469,-0.0015727251302450895
1761470350513156900,2.143156982421875,0.012635895051062107,-0.017281681299209595,-0.015447528101503849
1761470350523133000,2.1531328125,0.013680861331522465,-0.011096765287220478,-0.019900720566511154
1761470350533110000,2.163110107421875,0.010286928154528141,0.009104376658797264,-0.014184512197971344
1761470350543085800,2.1730859375,0.005574781447649002,0.02419072948396206,-0.010907727293670177
1761470350553063000,2.18306298828125,-0.0009310548193752766,0.024600323289632797,-0.006758521776646376
1761470350563038700,2.193038818359375,-0.008050892502069473,0.011146532371640205,-0.010848877020180225
1761470350573015000,2.20301513671875,-0.011867202818393707,-0.0115747582167387,-0.023016860708594322
1761470350582992000,2.212991943359375,-0.008132967166602612,-0.026917841285467148,-0.031366705894470215
1761470350592968000,2.222968017578125,-0.002469488885253668,-0.01633337326347828,-0.02277960814535618
1761470350602944800,2.23294482421875,0.002937891986221075,0.0030796299688518047,0.0016405832720920444
1761470350612921000,2.242921142578125,0.004993852227926254,0.017963238060474396,0.02418850176036358
1761470350622898000,2.25289794921875,0.006575477309525013,0.02866540290415287,0.029986442998051643
1761470350632874200,2.262874267578125,0.0038710369262844324,0.0337858609855175,0.025541095063090324
1761470350642850000,2.27285009765625,-0.0005309185944497585,0.014265825971961021,0.010734804905951023
1761470350652827100,2.2828271484375,0.00017455278430134058,-0.015455849468708038,0.00175542535725981
1761470350662803200,2.29280322265625,0.0032954332418739796,-0.01658831536769867,0.0036872252821922302
1761470350672780300,2.3027802734375,0.008300045505166054,-0.007702412083745003,0.010230079293251038
1761470350682756000,2.312756103515625,0.011799533851444721,0.0006058050785213709,0.008414838463068008
1761470350692733200,2.322733154296875,0.015498132444918156,0.0004438848700374365,0.0059775132685899734
1761470350702709200,2.332709228515625,0.013949624262750149,0.00336161395534873,-0.007369717117398977
1761470350712685300,2.342685302734375,0.0018673947779461741,0.0018396172672510147,-0.014055317267775536
1761470350722662100,2.352662109375,-0.009669066406786442,-0.0024054390378296375,-0.019590284675359726
1761470350732638500,2.362638427734375,-0.013218527659773827,-0.013855965808033943,-0.020547956228256226
1761470350742615300,2.372615234375,-0.014235098846256733,-0.02130390703678131,-0.008408143185079098
1761470350752591400,2.38259130859375,-0.0081409877166152,-0.006123356055468321,0.009838772006332874
1761470350762568200,2.392568115234375,-0.0069918339140713215,0.0023417677730321884,0.019313765689730644
1761470350772544500,2.40254443359375,-0.009513581171631813,0.0011979399714618921,0.021425651386380196
1761470350782520300,2.412520263671875,-0.011930889450013638,0.007877025753259659,0.017720336094498634
1761470350792497400,2.422497314453125,-0.01637197658419609,0.013807885348796844,0.012161520309746265
1761470350802473200,2.43247314453125,-0.017315423116087914,0.00029615405946969986,0.00387071305885911
1761470350812450000,2.442449951171875,-0.01831490732729435,-0.013853752985596657,-0.0012092667166143656
1761470350822426400,2.45242626953125,-0.010603828355669975,-0.011811258271336555,-0.0019195870263502002
1761470350832403200,2.4624033203125,-0.003202370833605528,0.0018467623740434647,-0.0031672779005020857
1761470350842379300,2.472379150390625,-0.0015686501283198595,0.012196438387036324,-0.003020893083885312
1761470350852356000,2.482356201171875,-0.00418147724121809,0.02168714441359043,-0.010413295589387417
1761470350862332400,2.49233251953125,-0.011382355354726315,0.01614178903400898,-0.01735062338411808
1761470350872308200,2.50230810546875,-0.007454725913703442,-0.0013261507265269756,-0.02517179399728775
1761470350882285300,2.512285400390625,-0.011818899773061275,-0.013878237456083298,-0.03434987738728523
1761470350892261400,2.522261474609375,-0.01680540293455124,-0.02374950982630253,-0.04178169369697571
1761470350902238500,2.532238525390625,-0.016886139288544655,-0.008613312616944313,-0.039872948080301285
1761470350912214300,2.54221435546875,-0.016520753502845764,0.019314192235469818,-0.026506541296839714
1761470350922191400,2.55219140625,-0.011052303947508335,0.030192648991942406,-0.018328653648495674
1761470350932167200,2.562167236328125,-0.010592110455036163,0.03218682482838631,-0.008705055341124535
1761470350942143200,2.572143310546875,-0.012706650421023369,0.02458023466169834,-0.0029200492426753044
1761470350952120300,2.582120361328125,-0.007583261467516422,0.010590916499495506,-0.010889559052884579
1761470350962096000,2.59209619140625,-0.001241269987076521,-0.00598540436476469,-0.006444860715419054
1761470350972073200,2.6020732421875,0.008466750383377075,-0.005720686167478561,-0.0028224291745573282
1761470350982049300,2.61204931640625,0.016113795340061188,-0.010061761364340782,-0.0031236924696713686
1761470350992026400,2.6220263671875,0.016592098399996758,-0.011178424581885338,-0.008007664233446121
1761470351002002200,2.632002197265625,0.014286170713603497,0.0021713559981435537,-0.002777953865006566
1761470351011978500,2.641978515625,0.013554866425693035,0.017136191949248314,-0.002185666933655739
1761470351021955300,2.651955322265625,0.016231652349233627,0.026758868247270584,0.0025821314193308353
1761470351031931100,2.66193115234375,0.015975456684827805,0.03432251513004303,0.012635830789804459
1761470351041908200,2.671908203125,0.01787068322300911,0.027939418330788612,0.005813609808683395
1761470351051884300,2.68188427734375,0.02183453179895878,0.001043620752170682,-0.013883129693567753
1761470351061861400,2.691861328125,0.024300996214151382,-0.022935930639505386,-0.030186057090759277
1761470351071837200,2.701837158203125,0.024609923362731934,-0.022020336240530014,-0.03941790387034416
1761470351081814300,2.711814208984375,0.014952312223613262,-0.006039413157850504,-0.03797414153814316
1761470351091790000,2.7217900390625,0.009494164027273655,0.0002784037496894598,-0.03208083286881447
1761470351101766400,2.731766357421875,0.0076986090280115604,0.012895852327346802,-0.012922082096338272
1761470351111743200,2.7417431640625,0.0022196879144757986,0.027278520166873932,0.009015972726047039
1761470351121719300,2.75171923828125,-0.00891193002462387,0.037758491933345795,0.024700215086340904
1761470351131696000,2.761696044921875,-0.008168907836079597,0.036499880254268646,0.03402074798941612
1761470351141672400,2.77167236328125,0.0007665812154300511,0.021527932956814766,0.027619604021310806
1761470351151649300,2.781649169921875,0.006253757979720831,0.0007645983714610338,0.014237485826015472
1761470351161625300,2.791625244140625,0.011257442645728588,-0.015363672748208046,0.013471737504005432
1761470351171601400,2.801601318359375,0.008886963129043579,-0.0130744194611907,0.008449815213680267
1761470351181578200,2.811578125,0.0061883823946118355,-0.005837013013660908,-0.00242546945810318
1761470351191554300,2.82155419921875,0.007355645298957825,0.0004616293590515852,-0.005479315761476755
1761470351201531100,2.83153125,0.011401021853089333,-0.0017906595021486282,0.0018500868463888764
1761470351211507200,2.841507080078125,0.01310278195887804,-0.0008058225503191352,0.008854201063513756
1761470351221484300,2.851484375,0.015110238455235958,0.011974474415183067,0.023099863901734352
1761470351231460400,2.86146044921875,0.009205477312207222,0.018110930919647217,0.031162317842245102
1761470351241436200,2.871436279296875,0.008667646907269955,0.009918948635458946,0.029947472736239433
1761470351251413200,2.881413330078125,0.013384904712438583,-0.009969805367290974,0.018330231308937073
1761470351261389300,2.891389404296875,0.017555415630340576,-0.015796268358826637,0.011809482239186764
1761470351271366400,2.901366455078125,0.013655215501785278,-0.009925063699483871,0.011537040583789349
1761470351281342200,2.91134228515625,0.008650921285152435,0.00030900747515261173,0.015412767417728901
1761470351291319300,2.9213193359375,-0.003157002152875066,0.00865641888231039,0.011566896922886372
1761470351301295400,2.93129541015625,-0.006357165984809399,0.006880271248519421,0.0023945504799485207
1761470351311271200,2.941271240234375,-0.006554506253451109,-0.0033111136872321367,-0.008324939757585526
1761470351321248300,2.951248291015625,-0.0034874053671956062,-0.00689595565199852,-0.013532096520066261
1761470351331224300,2.961224365234375,-0.0037246928550302982,0.0037060885224491358,-0.01165643148124218
1761470351341201400,2.971201416015625,-0.006135172210633755,0.007513802032917738,-0.007261444814503193
1761470351351177200,2.98117724609375,-0.013579506427049637,0.006043203640729189,-0.004782041534781456
1761470351361154300,2.991154296875,-0.019088048487901688,0.009778544306755066,-0.0022710675839334726
1761470351371130000,3.001130126953125,-0.02385217696428299,0.011528775095939636,-0.005432772915810347
1761470351381107500,3.011107421875,-0.023974675685167313,0.00699201226234436,-0.013944943435490131
1761470351391083300,3.021083251953125,-0.01799747720360756,-0.003639326663687825,-0.020268086344003677
1761470351401059300,3.031059326171875,-0.016439225524663925,-0.0018007350154221058,-0.02656101994216442
1761470351411036200,3.0410361328125,-0.011872968636453152,0.000528199365362525,-0.018353691324591637
1761470351421012200,3.05101220703125,-0.01398563850671053,0.011940773576498032,-0.0011212604586035013
1761470351430989300,3.0609892578125,-0.012891878373920918,0.03390705958008766,0.027786288410425186
1761470351440965000,3.070965087890625,-0.011671841144561768,0.04119441285729408,0.03277832642197609
1761470351450942200,3.080942138671875,-0.011703799478709698,0.026882318779826164,0.023642616346478462
1761470351460918300,3.090918212890625,-0.001028774888254702,0.007799367420375347,0.010997748002409935
1761470351470894300,3.100894287109375,0.007620905991643667,-0.019065003842115402,-0.002780648646876216
1761470351480871200,3.11087109375,0.01075005903840065,-0.03553852438926697,-0.018703272566199303
1761470351490847200,3.12084716796875,0.012754620052874088,-0.026638774201273918,-0.016594048589468002
1761470351500824300,3.13082421875,0.009571000933647156,0.007180084474384785,0.0017060692189261317
1761470351510800400,3.14080029296875,0.007214635610580444,0.03143402561545372,0.0160013847053051
1761470351520777200,3.150777099609375,0.007573853712528944,0.024707000702619553,0.0161505825817585
1761470351530753300,3.160753173828125,0.005827086046338081,-0.010016890242695808,0.0018158500315621495
1761470351540730000,3.170730224609375,0.0081505561247468,-0.03584645316004753,-0.009928067214787006
1761470351550706400,3.18070654296875,0.010483219288289547,-0.03372551128268242,0.00023322334163822234
1761470351560682200,3.19068212890625,0.01118091493844986,-0.007386127952486277,0.021979501470923424
1761470351570659000,3.2006591796875,0.0035648075863718987,0.015343419276177883,0.047437459230422974
1761470351580635400,3.210635498046875,0.000755078683141619,0.017062801867723465,0.05192997306585312
1761470351590612200,3.2206123046875,-0.00242287153378129,-0.0014589516213163733,0.04057398810982704
1761470351600588300,3.23058837890625,0.0012465445324778557,-0.01808311976492405,0.02550809644162655
1761470351610565000,3.240565185546875,0.006766478531062603,-0.020148400217294693,0.016996102407574654
1761470351620541400,3.25054150390625,0.007853719405829906,-0.015466999262571335,0.02101551927626133
1761470351630517200,3.260517333984375,0.009695028886198997,-0.003251611487939954,0.028020165860652924
1761470351640493300,3.270493408203125,0.01162964478135109,0.017649849876761436,0.03870449960231781
1761470351650469600,3.2804697265625,0.008787784725427628,0.019039753824472427,0.04162998124957085
1761470351660446500,3.290446533203125,0.014066502451896667,0.011806551367044449,0.02979031763970852
1761470351670422500,3.300422607421875,0.021318290382623672,0.003115324769169092,0.0062956428155303
1761470351680399400,3.3103994140625,0.026476789265871048,-0.013814002275466919,-0.02457086741924286
1761470351690375400,3.32037548828125,0.024527622386813164,-0.02867071144282818,-0.04354988411068916
1761470351700351500,3.3303515625,0.018187297508120537,-0.03408661484718323,-0.057962555438280106
1761470351710328300,3.340328369140625,0.010533638298511505,-0.030818384140729904,-0.055986225605010986
1761470351720304400,3.350304443359375,0.008541199378669262,-0.009147078730165958,-0.038511984050273895
1761470351730281500,3.360281494140625,0.008710309863090515,0.018212640658020973,-0.015272174030542374
1761470351740257500,3.370257568359375,0.004809492267668247,0.016364915296435356,0.011812823824584484
1761470351750234400,3.380234375,0.006998077966272831,0.01274567935615778,0.021793020889163017
1761470351760210400,3.39021044921875,0.005154448561370373,0.003962666727602482,0.020801052451133728
1761470351770187300,3.400187255859375,0.006366453133523464,-0.010979264974594116,0.013466707430779934
1761470351780163600,3.41016357421875,0.002667735330760479,-0.014729497954249382,0.02202077955007553
1761470351790139400,3.420139404296875,0.003030724124982953,0.00006942101754248142,0.02459925226867199
1761470351800116500,3.430116455078125,0.007504507899284363,0.012615831568837166,0.03652210533618927
1761470351810092500,3.440092529296875,0.008674434386193752,0.01125575602054596,0.03730081394314766
1761470351820069600,3.450069580078125,0.009556086733937263,0.008699684403836727,0.027348315343260765
1761470351830045400,3.46004541015625,0.006306231953203678,0.0062168193981051445,0.013847952708601952
1761470351840022300,3.470022216796875,-0.0017346167005598545,0.003956008702516556,-0.0045580994337797165
1761470351849998600,3.47999853515625,-0.004773017019033432,-0.007228202652186155,-0.017724500969052315
1761470351859974400,3.489974365234375,-0.00580414105206728,-0.011277196928858757,-0.027658328413963318
1761470351869951500,3.499951416015625,-0.00782228447496891,-0.006609474308788776,-0.033238451927900314
1761470351879927300,3.50992724609375,-0.008801278658211231,0.003655283013358712,-0.044642817229032516
1761470351889904400,3.519904296875,-0.004178564064204693,0.010464453138411045,-0.05196358263492584
1761470351899880400,3.52988037109375,-0.005748300813138485,0.01584840752184391,-0.051233842968940735
1761470351909857500,3.539857421875,-0.013251224532723427,0.008034426718950272,-0.04891236871480942
1761470351919833300,3.549833251953125,-0.01530536264181137,0.005877920426428318,-0.03397969529032707
1761470351929810400,3.559810546875,-0.01709980145096779,0.023127481341362,-0.016844652593135834
1761470351939786500,3.569786376953125,-0.014078505337238312,0.038493379950523376,0.003205635817721486
1761470351949762300,3.57976220703125,-0.00772020872682333,0.03483952209353447,0.010299231857061386
1761470351959739400,3.589739501953125,0.0010438085300847888,0.01546265184879303,0.01014411635696888
1761470351969715500,3.599715576171875,0.005417784675955772,-0.009752689860761166,-0.004338419530540705
1761470351979692500,3.609692626953125,0.007980689406394958,-0.027506088837981224,-0.008844752795994282
1761470351989668400,3.61966845703125,0.005638705566525459,-0.019560014829039574,0.0065706889145076275
1761470351999645400,3.6296455078125,0.006443170830607414,0.007820915430784225,0.031021373346447945
1761470352009621500,3.63962158203125,0.0013951489236205816,0.023890696465969086,0.05261588469147682
1761470352019597600,3.64959765625,0.0012267754646018147,0.023880571126937866,0.06527456641197205
1761470352029574400,3.659574462890625,0.002067002933472395,0.009984994307160378,0.05942120775580406
1761470352039550500,3.669550537109375,0.007119148038327694,-0.01828349381685257,0.03008524514734745
1761470352049527300,3.67952734375,0.01455948781222105,-0.032689064741134644,0.009857205674052238
1761470352059503600,3.689503662109375,0.0138388117775321,-0.023658301681280136,-0.006358280777931213
1761470352069480400,3.69948046875,0.012248371727764606,0.0002800535876303911,0.003662661649286747
1761470352079456300,3.709456298828125,0.011646092869341373,0.018041376024484634,0.005525100510567427
1761470352089433300,3.719433349609375,0.012540648691356182,0.012875375337898731,-0.004260951187461615
1761470352099409400,3.729409423828125,0.01760117895901203,0.003930686041712761,-0.020326822996139526
1761470352109385500,3.739385498046875,0.021396715193986893,0.003037195187062025,-0.035850122570991516
1761470352119362300,3.7493623046875,0.01745430938899517,0.0008609588257968426,-0.04896548390388489
1761470352129338600,3.759338623046875,0.01549715269356966,-0.007807097863405943,-0.05650515854358673
1761470352139315500,3.7693154296875,0.010291600599884987,-0.0033866153098642826,-0.04670436680316925
1761470352149291500,3.77929150390625,0.006324023008346558,0.013045353814959526,-0.02979675680398941
1761470352159268400,3.789268310546875,0.00394962215796113,0.018722347915172577,-0.013273779302835464
1761470352169244400,3.799244384765625,0.0005996317486278713,0.012276167050004005,-0.008468104526400566
1761470352179220500,3.809220458984375,-0.0008218997390940785,0.0030024065636098385,-0.010972293093800545
1761470352189197600,3.819197509765625,-0.005671249702572823,-0.0019018043531104922,-0.009782126173377037
1761470352199173400,3.82917333984375,-0.012978430837392807,-0.01423729956150055,0.00021032014046795666
1761470352209150500,3.839150390625,-0.018559351563453674,-0.026295561343431473,0.008107125759124756
1761470352219126500,3.84912646484375,-0.019106268882751465,-0.015754016116261482,0.023804564028978348
1761470352229103400,3.859103271484375,-0.01643245667219162,-0.003867530031129718,0.042150549590587616
1761470352239079400,3.869079345703125,-0.013766013085842133,-0.0047599319368600845,0.04758061468601227
1761470352249056300,3.87905615234375,-0.0055219316855072975,-0.0024062301963567734,0.054121606051921844
1761470352259032600,3.889032470703125,0.003246121574193239,0.0021990754175931215,0.05378054827451706
1761470352269008400,3.89900830078125,0.0053332410752773285,0.004715496674180031,0.04819163680076599
1761470352278985500,3.9089853515625,0.007572521921247244,0.0006448086351156235,0.043451178818941116
1761470352288961500,3.91896142578125,0.009528613649308681,-0.010932219214737415,0.025452204048633575
1761470352298938600,3.928938720703125,0.012454628944396973,-0.01785270869731903,0.0086572440341115
1761470352308914400,3.93891455078125,0.016939925029873848,-0.01234529260545969,-0.0006145506631582975
1761470352318891500,3.9488916015625,0.01719667948782444,-0.0015711926389485598,-0.006670549977570772
1761470352328867300,3.958867431640625,0.008090532384812832,0.003711453638970852,-0.017984190955758095
1761470352338843400,3.968843505859375,0.0009453739039599895,-0.0015515987761318684,-0.02887166477739811
1761470352348820500,3.978820556640625,-0.006322125904262066,-0.006939706392586231,-0.03287200257182121
1761470352358796300,3.98879638671875,-0.014092070050537586,-0.008965352550148964,-0.02907116711139679
1761470352368773400,3.9987734375,-0.013429741375148296,-0.005305104423314333,-0.02166278474032879
1761470352378749400,4.00874951171875,-0.011433403007686138,0.0019540879875421524,-0.008337006904184818
1761470352388726500,4.0187265625,-0.014525332488119602,0.00317195151001215,0.0014090980403125286
1761470352398702300,4.028702392578125,-0.012649349868297577,0.0014673375990241766,0.010172258131206036
1761470352408679400,4.038679443359375,-0.014980148524045944,0.009054151363670826,0.022404422983527184
1761470352418655500,4.048655517578125,-0.01652522012591362,0.021976560354232788,0.02815309166908264
1761470352428631600,4.058631591796875,-0.01765812747180462,0.018769316375255585,0.02777252532541752
1761470352438608400,4.0686083984375,-0.013149470090866089,0.002875475212931633,0.02063731662929058
1761470352448584400,4.07858447265625,-0.00638450775295496,-0.008746826089918613,0.014413242228329182
1761470352458561500,4.0885615234375,0.002738980110734701,-0.007082666270434856,-0.0014196563279256225
1761470352468537300,4.098537353515625,0.007176605518907309,-0.0006439418066293001,-0.004837823566049337
1761470352478514400,4.108514404296875,0.011008094996213913,-0.002586451591923833,-0.014403631910681725
1761470352488490200,4.118490234375,0.012863785028457642,-0.005920995492488146,-0.01979653351008892
1761470352498467300,4.12846728515625,0.013568363152444363,-0.013653703033924103,-0.025329217314720154
1761470352508443400,4.138443359375,0.009352046065032482,-0.005719347391277552,-0.023052213713526726
1761470352518419500,4.14841943359375,0.003590863663703203,0.016535039991140366,-0.008207103237509727
1761470352528396300,4.158396240234375,-0.000008132308721542358,0.019737491384148598,0.004026127513498068
1761470352538372600,4.16837255859375,-0.0003237169003114104,0.00632954016327858,0.017969906330108643
1761470352548349400,4.178349365234375,0.005530177149921656,0.00201894692145288,0.01764926128089428
1761470352558325500,4.188325439453125,0.008296869695186615,-0.005549919791519642,0.016425827518105507
1761470352568302300,4.19830224609375,0.0049205138348042965,-0.010694080963730812,0.010983391664922237
1761470352578278700,4.208278564453125,-0.0001297441776841879,0.00005668425001204014,0.016122175380587578
1761470352588254500,4.21825439453125,-0.004000915214419365,0.014676107093691826,0.023075688630342484
1761470352598231600,4.2282314453125,-0.0004286689218133688,0.010845709592103958,0.020495079457759857
1761470352608207400,4.238207275390625,0.0002440455136820674,-0.0012437093537300825,0.01227416843175888
1761470352618184400,4.248184326171875,0.011917565017938614,-0.00662247184664011,0.011358190327882767
1761470352628160500,4.258160400390625,0.012102121487259865,-0.0036911307834088802,0.002339129103347659
1761470352638137300,4.268137451171875,0.012266652658581734,0.0005056702066212893,-0.00385088287293911
1761470352648113400,4.278113525390625,0.013424062170088291,0.00781791191548109,-0.0052751414477825165
1761470352658090200,4.28809033203125,0.011163733899593353,0.0025353794917464256,-0.008921599946916103
1761470352668066600,4.298066650390625,0.009197521954774857,-0.0044168028980493546,-0.024181781336665154
1761470352678042400,4.30804248046875,0.0061049493961036205,0.0024234869051724672,-0.023654654622077942
1761470352688019500,4.31801953125,0.0024332492612302303,0.014510776847600937,-0.02479475364089012
1761470352697995500,4.32799560546875,-0.00396272586658597,0.013829370960593224,-0.021674685180187225
1761470352707972400,4.337972412109375,-0.004561671055853367,0.010535307228565216,-0.026959994807839394
1761470352717948400,4.347948486328125,-0.0037845605984330177,-0.007125978358089924,-0.035509537905454636
1761470352727925200,4.35792529296875,-0.0009570826077833772,-0.02116323448717594,-0.03446931019425392
1761470352737901600,4.367901611328125,-0.0003671601880341768,-0.016446027904748917,-0.021314235404133797
1761470352747877400,4.37787744140625,0.002015569945797324,0.0069799358025193214,0.00880771316587925
1761470352757854500,4.3878544921875,0.0013417901936918497,0.03053506277501583,0.032795872539281845
1761470352767830300,4.397830322265625,-0.000024944019969552755,0.03306293487548828,0.04176859185099602
1761470352777807400,4.407807373046875,-0.005523710511624813,0.03148411586880684,0.03383991867303848
1761470352787783400,4.417783447265625,-0.0027622790075838566,0.008114609867334366,0.021635450422763824
1761470352797760500,4.427760498046875,0.0036641093902289867,-0.00927052740007639,0.005031558219343424
1761470352807736300,4.437736328125,0.005325389094650745,0.0004462816286832094,-0.007984641008079052
1761470352817713400,4.44771337890625,0.0008715828298591077,0.0201781764626503,-0.011902840808033943
1761470352827689500,4.457689453125,-0.007546136621385813,0.024534309282898903,-0.020283542573451996
1761470352837665300,4.467665283203125,-0.0188140869140625,0.011662108823657036,-0.03258455544710159
1761470352847642400,4.477642333984375,-0.017958680167794228,-0.009385120123624802,-0.04913556948304176
1761470352857618400,4.487618408203125,-0.018128931522369385,-0.01575229875743389,-0.050801970064640045
1761470352867595500,4.497595458984375,-0.013535778038203716,-0.006649613380432129,-0.03831920400261879
1761470352877571300,4.5075712890625,-0.011311942711472511,0.00517024751752615,-0.01805497519671917
1761470352887548400,4.51754833984375,-0.007532385177910328,0.013678248971700668,-0.00013669517647940665
1761470352897524500,4.5275244140625,-0.001613975502550602,0.006811716593801975,0.013028085231781006
1761470352907501600,4.53750146484375,0.003809818299487233,-0.005869723856449127,0.015442772768437862
1761470352917477400,4.547477294921875,0.00016493932344019413,-0.03241487592458725,0.002687769243493676
1761470352927453400,4.557453369140625,0.005330406595021486,-0.0510902926325798,0.0034496996086090803
1761470352937430300,4.56743017578125,0.004447802901268005,-0.03895687684416771,0.018705759197473526
1761470352947406300,4.57740625,0.004791350569576025,-0.013681614771485329,0.03156882897019386
1761470352957383400,4.587383544921875,0.009274110198020935,-0.0008862895192578435,0.03846890479326248
1761470352967359200,4.597359130859375,0.01297031156718731,-0.009687237441539764,0.033023539930582047
1761470352977336300,4.60733642578125,0.013255475088953972,-0.02099316194653511,0.016706235706806183
1761470352987312400,4.6173125,0.01333297323435545,-0.022542588412761688,0.004260219167917967
1761470352997289500,4.62728955078125,0.01048009842634201,-0.011710827238857746,0.0033863307908177376
1761470353007265300,4.637265380859375,0.006749010179191828,-0.01164744421839714,-0.0011881808750331402
1761470353017241600,4.64724169921875,0.006379649508744478,-0.017929820343852043,-0.0006626952672377229
1761470353027218400,4.657218505859375,0.010650294832885265,-0.01230735331773758,-0.006204467266798019
1761470353037194500,4.667194580078125,0.003840272780507803,-0.003945636097341776,-0.0019951025024056435
1761470353047171300,4.67717138671875,-0.002038122620433569,0.0026821729261428118,0.0028840748127549887
1761470353057147400,4.6871474609375,-0.010801520198583603,0.012345985509455204,0.007009311579167843
1761470353067124500,4.69712451171875,-0.01818912848830223,0.011686054058372974,0.011435484513640404
1761470353077100500,4.7071005859375,-0.01708541065454483,0.003704177448526025,0.014543980360031128
1761470353087077400,4.717077392578125,-0.009748401120305061,-0.0009438374545425177,0.026673879474401474
1761470353097053200,4.72705322265625,-0.006735353730618954,-0.003097876440733671,0.03332430124282837
1761470353107029500,4.737029541015625,-0.003662864677608013,0.0030849180184304714,0.04001203179359436
1761470353117006300,4.74700634765625,0.0030671143904328346,0.010720780119299889,0.04186002537608147
1761470353126982400,4.756982421875,0.0005147408228367567,0.0046370550990104675,0.03832068666815758
1761470353136959200,4.766959228515625,-0.0021112540271133184,0.002595503581687808,0.030412159860134125
1761470353146935600,4.776935546875,-0.00324043445289135,-0.010562376119196415,0.0176865104585886
1761470353156912400,4.786912353515625,-0.005849543493241072,-0.013734929263591766,0.006107267923653126
1761470353166888400,4.796888427734375,-0.0035219406709074974,0.004645409062504768,0.01347623486071825
1761470353176864500,4.806864501953125,-0.002612152136862278,0.015743941068649292,0.012385962530970573
1761470353186841600,4.816841552734375,0.002288596937432885,0.009613344445824623,0.009881791658699512
1761470353196817400,4.8268173828125,0.004914260935038328,-0.001632578787393868,-0.00007920505595393479
1761470353206794500,4.83679443359375,0.0008548048790544271,-0.015265299938619137,-0.01401978824287653
1761470353216770300,4.846770263671875,0.00010103377280756831,-0.025389526039361954,-0.01926032267510891
1761470353226747400,4.856747314453125,-0.008646384812891483,-0.008066994138062,-0.013507095165550709
1761470353236723500,4.866723388671875,-0.013414539396762848,0.004588129930198193,-0.004785103723406792
1761470353246700300,4.8767001953125,-0.01378924585878849,-0.0008151575457304716,0.008398874662816525
1761470353256676400,4.88667626953125,-0.01196069922298193,0.0022323187440633774,0.010001608170568943
1761470353266652400,4.89665234375,-0.005332091357558966,0.004592412151396275,0.009944883175194263
1761470353276629500,4.90662939453125,0.0011240504682064056,0.00015626638196408749,0.007192822638899088
1761470353286605300,4.916605224609375,0.006000298075377941,-0.0052808430045843124,0.004846843890845776
1761470353296582400,4.92658251953125,0.00602505449205637,-0.00870293378829956,-0.006529463455080986
1761470353306558500,4.936558349609375,0.004383482038974762,-0.012671043165028095,-0.010487186722457409
1761470353316535600,4.94653564453125,0.0010089906863868237,-0.021073583513498306,-0.010480262339115143
1761470353326511400,4.956511474609375,-0.003095473162829876,-0.019378747791051865,-0.008620576933026314
1761470353336488400,4.966488525390625,-0.0027420478872954845,-0.003862250130623579,0.003750500036403537
1761470353346464500,4.976464599609375,-0.005894964095205069,0.005256413482129574,0.010482171550393105
1761470353356440300,4.9864404296875,-0.009700612165033817,0.005656779278069735,0.010392118245363235
1761470353366417400,4.99641748046875,-0.011951781809329987,0.0018465947359800339,0.009136703796684742
1761470353376393200,5.006393310546875,-0.014180450700223446,0.0006883896421641111,0.010129207745194435
1761470353386370300,5.016370361328125,-0.016796475276350975,-0.013048994354903698,0.0040896921418607235
1761470353396346400,5.026346435546875,-0.018884290009737015,-0.020349735394120216,0.005667014978826046
1761470353406323500,5.036323486328125,-0.01927098073065281,-0.007310632616281509,0.010002109222114086
1761470353416299300,5.04629931640625,-0.01914137974381447,0.013468993827700615,0.017436355352401733
1761470353426276400,5.0562763671875,-0.012607580982148647,0.01782272942364216,0.015633927658200264
1761470353436252400,5.06625244140625,-0.012798839248716831,0.012892276048660278,0.012532735243439674
1761470353446228500,5.076228515625,-0.011823588982224464,0.013025965541601181,0.007097223307937384
1761470353456205300,5.086205322265625,-0.009488091804087162,-0.000815234612673521,-0.0013268564362078905
1761470353466181600,5.096181640625,-0.00514580775052309,-0.012226879596710205,-0.008933642879128456
1761470353476158500,5.106158447265625,0.01273515447974205,-0.01026514358818531,-0.0056663332507014275
1761470353486134300,5.11613427734375,0.022213345393538475,-0.0027784653939306736,0.004165258724242449
1761470353496111400,5.126111328125,0.024171024560928345,0.007488889619708061,0.021528717130422592
1761470353506087400,5.13608740234375,0.02799958549439907,0.01304637361317873,0.02253619022667408
1761470353516063500,5.1460634765625,0.028545672073960304,-0.004543440416455269,0.013249924406409264
1761470353526040300,5.156040283203125,0.024757858365774155,-0.023185567930340767,0.0013051144778728485
1761470353536016400,5.166016357421875,0.018403703346848488,-0.019628090783953667,-0.00487289484590292
1761470353545993200,5.1759931640625,0.018105963245034218,-0.009272655472159386,-0.00758132990449667
1761470353555969500,5.185969482421875,0.01105479709804058,-0.00450157793238759,-0.00478565925732255
1761470353565946400,5.1959462890625,0.009067279286682606,0.005630418658256531,0.00706514110788703
1761470353575922400,5.20592236328125,0.012601954862475395,0.020500347018241882,0.013039235956966877
1761470353585899300,5.215899169921875,0.01779858022928238,0.008621050976216793,0.019187144935131073
1761470353595875600,5.22587548828125,0.017673762515187263,-0.014730853959918022,-0.0012910841032862663
1761470353605851400,5.235851318359375,0.025374826043844223,-0.026963816955685616,-0.005582501646131277
1761470353615828500,5.245828369140625,0.023011185228824615,-0.01260647363960743,-0.002814561827108264
1761470353625804500,5.255804443359375,0.02611110545694828,0.00417676754295826,0.005976266227662563
1761470353635782100,5.2657822265625,0.03010593168437481,0.01856798119843006,0.018492475152015686
1761470353645758200,5.27575830078125,0.005542266182601452,0.05226682126522064,0.009222276508808136
1761470353655735300,5.2857353515625,-0.004717005882412195,0.0707697868347168,0.00364205171354115
1761470353665711000,5.295711181640625,-0.01213044673204422,0.03968936949968338,-0.004430522210896015
1761470353675688200,5.305688232421875,-0.015495054423809052,-0.020235534757375717,-0.021464237943291664
1761470353685664300,5.315664306640625,-0.00534867774695158,-0.03985317796468735,-0.016231926158070564
1761470353695640000,5.32564013671875,0.007328139152377844,-0.017801890149712563,-0.00031524355290457606
1761470353705617200,5.3356171875,0.008966516703367233,-0.002518807305023074,0.02473125234246254
1761470353715593200,5.34559326171875,0.013439741916954517,0.005016050301492214,0.03879339247941971
1761470353725570300,5.3555703125,0.01739666610956192,0.0018447584006935358,0.03976944088935852
1761470353735546000,5.365546142578125,0.01634378172457218,-0.008259106427431107,0.03597719222307205
1761470353745523200,5.375523193359375,0.016868956387043,-0.008602919988334179,0.024785790592432022
1761470353755499000,5.3854990234375,0.015339812263846397,-0.004474609158933163,0.01945834420621395
1761470353765476400,5.395476318359375,0.011931498534977436,-0.005008573178201914,0.012327197939157486
1761470353775452200,5.4054521484375,0.014935554936528206,-0.0089722266420722,0.002243488095700741
1761470353785428200,5.41542822265625,0.019092483446002007,-0.010989570990204811,-0.007975326851010323
1761470353795405000,5.425405029296875,0.015125789679586887,-0.012146424502134323,-0.015193941071629524
1761470353805381400,5.43538134765625,0.004902979359030724,-0.019013386219739914,-0.026448993012309074
1761470353815358200,5.445358154296875,-0.0009340188698843122,-0.027511561289429665,-0.03610347956418991
1761470353825334300,5.455334228515625,-0.005394280888140202,-0.024093393236398697,-0.030840540304780006
1761470353835311000,5.46531103515625,-0.013795468024909496,-0.012064834125339985,-0.016134928911924362
1761470353845287200,5.475287109375,-0.019291168078780174,0.009075071662664413,0.005755989346653223
1761470353855264300,5.48526416015625,-0.02006770297884941,0.017922503873705864,0.026429783552885056
1761470353865240000,5.495239990234375,-0.018344370648264885,0.013182343915104866,0.033472780138254166
1761470353875216100,5.505216064453125,-0.014425721019506454,0.003171083051711321,0.030512476339936256
1761470353885193200,5.515193115234375,-0.011315681971609592,0.0003689050208777189,0.03041394054889679
1761470353895169300,5.525169189453125,-0.0052458904683589935,-0.006763596087694168,0.028877679258584976
1761470353905146000,5.53514599609375,0.0033007259480655193,-0.009558849968016148,0.02686299756169319
1761470353915122200,5.5451220703125,0.008375965058803558,-0.008349434472620487,0.02794692851603031
1761470353925099000,5.55509912109375,0.01024976558983326,-0.006464981473982334,0.027792731299996376
1761470353935075300,5.565075439453125,0.012477862648665905,-0.013262481428682804,0.015775449573993683
1761470353945052200,5.57505224609375,0.009355572052299976,-0.015000993385910988,0.0038868323899805546
1761470353955028200,5.5850283203125,0.002976182382553816,-0.010083273984491825,-0.00956881232559681
1761470353965004300,5.59500439453125,0.0002858571824617684,-0.005654969252645969,-0.0058877915143966675
1761470353974981400,5.6049814453125,-0.010928532108664513,0.006689025089144707,0.004888539668172598
1761470353984957200,5.614957275390625,-0.01482793316245079,0.02060270868241787,0.021984701976180077
1761470353994934000,5.62493408203125,-0.01856057718396187,0.02692546509206295,0.028558123856782913
1761470354004910300,5.634910400390625,-0.013351168483495712,0.016887212172150612,0.03089078702032566
1761470354014887200,5.64488720703125,-0.0058124614879488945,0.007716302759945393,0.016993047669529915
1761470354024863200,5.65486328125,-0.0012821578420698643,-0.00433476734906435,-0.00015398203686345369
1761470354034839000,5.664839111328125,-0.0001947051496244967,-0.014828232116997242,-0.017540792003273964
1761470354044816100,5.674816162109375,-0.007902692072093487,-0.016564613208174706,-0.031987909227609634
1761470354054792200,5.684792236328125,-0.015346311964094639,-0.009246967732906342,-0.023578613996505737
1761470354064769300,5.694769287109375,-0.019207095727324486,-0.0006718552904203534,-0.01402319222688675
1761470354074745000,5.7047451171875,-0.01445122342556715,0.00043016066774725914,-0.0018884987803176045
1761470354084722200,5.71472216796875,-0.007003426551818848,-0.005351295694708824,0.004586976952850819
1761470354094698200,5.7246982421875,0.004926980473101139,-0.0079842209815979,0.008740808814764023
1761470354104675300,5.73467529296875,0.008560864254832268,-0.0074625080451369286,0.010659882798790932
1761470354114651100,5.744651123046875,0.006744493264704943,-0.011667060665786266,0.014782752841711044
1761470354124627200,5.754627197265625,0.0017137816175818443,0.006719402968883514,0.023623382672667503
1761470354134604300,5.764604248046875,0.0010318937711417675,0.005945251323282719,0.030947070568799973
1761470354144580000,5.774580078125,-0.003585760947316885,-0.0015661944635212421,0.023725643754005432
1761470354154557200,5.78455712890625,-0.005164429545402527,-0.0031903828494250774,0.016467489302158356
1761470354164533200,5.794533203125,-0.000918817997444421,-0.005892159417271614,0.0016030557453632355
1761470354174510300,5.80451025390625,0.00016244739526882768,-0.01820686273276806,-0.01433965377509594
1761470354184486100,5.814486083984375,0.0030836688820272684,-0.01762469671666622,-0.01854771375656128
1761470354194463200,5.824463134765625,-0.0009755009086802602,0.00043539004400372505,-0.02245413511991501
1761470354204439000,5.83443896484375,-0.002126519102603197,0.012772217392921448,-0.024223539978265762
1761470354214416400,5.84441650390625,-0.00801126379519701,0.011680467054247856,-0.01730683632194996
1761470354224392200,5.85439208984375,-0.006303378380835056,0.008109167218208313,-0.021371085196733475
1761470354234368000,5.864367919921875,-0.008372388780117035,0.01826353371143341,-0.024616945534944534
1761470354244345000,5.874344970703125,-0.018794668838381767,0.015330860391259193,-0.028059348464012146
1761470354254321200,5.884321044921875,-0.016412906348705292,0.010398905724287033,-0.030311884358525276
1761470354264298200,5.89429833984375,-0.020997006446123123,0.0004474713932722807,-0.031754251569509506
1761470354274274000,5.904274169921875,-0.01804937794804573,-0.013065795414149761,-0.02819313108921051
1761470354284251100,5.914251220703125,-0.01882275938987732,-0.01808931678533554,-0.018393496051430702
1761470354294227200,5.924227294921875,-0.019052928313612938,-0.013770032674074173,-0.013974586501717567
1761470354304203300,5.934203369140625,-0.02158878929913044,-0.008643980138003826,-0.005362989380955696
1761470354314180000,5.94418017578125,-0.023658176884055138,-0.0037409793585538864,0.000801386428065598
1761470354324156200,5.95415625,-0.022676268592476845,-0.004085858352482319,0.007420406676828861
1761470354334133200,5.96413330078125,-0.021462762728333473,-0.006254157051444054,0.012865539640188217
1761470354344109300,5.974109375,-0.01722993515431881,-0.006901837885379791,0.024934185668826103
1761470354354086100,5.984086181640625,-0.00853362400084734,-0.0029892658349126577,0.04282280057668686
1761470354364062200,5.994062255859375,-0.001532173715531826,0.001309076091274619,0.05466774106025696
1761470354374039300,6.004039306640625,0.011752896010875702,-0.003577969968318939,0.05410630255937576
1761470354384015000,6.01401513671875,0.01550076249986887,-0.013987201265990734,0.04181448370218277
1761470354393991200,6.0239912109375,0.021819420158863068,-0.025347568094730377,0.022444723173975945
1761470354403968000,6.033968017578125,0.016765806823968887,-0.026124412193894386,0.000386291416361928
1761470354413944300,6.0439443359375,0.01205751858651638,-0.018602872267365456,-0.01487164106220007
1761470354423921200,6.053921142578125,0.002339910715818405,-0.003764003748074174,-0.018023759126663208
1761470354433897200,6.063897216796875,-0.004832544829696417,0.007643163204193115,-0.010130276903510094
1761470354443874000,6.0738740234375,-0.007832596078515053,0.020764291286468506,0.00014686177019029856
1761470354453850400,6.083850341796875,-0.006759215146303177,0.02674458920955658,0.008405683562159538
1761470354463827200,6.0938271484375,0.0012808684259653091,0.009179710410535336,0.006664242595434189
1761470354473803300,6.10380322265625,0.0008772921864874661,-0.00524465087801218,-0.004144778475165367
1761470354483779000,6.113779052734375,-0.002315039047971368,-0.007313127629458904,-0.005709651857614517
1761470354493756400,6.12375634765625,-0.006104723550379276,-0.009802745655179024,-0.004618521314114332
1761470354503732200,6.133732177734375,-0.00328310439363122,-0.00794199574738741,-0.0010677287355065346
1761470354513709300,6.143709228515625,-0.0003098919987678528,-0.004986782558262348,0.008413383737206459
1761470354523685000,6.15368505859375,0.006907540839165449,-0.0005081442650407553,0.023545997217297554
1761470354533662200,6.163662109375,0.01614832878112793,0.0052075572311878204,0.02463468536734581
1761470354543638300,6.17363818359375,0.02173723839223385,0.006905588321387768,0.02667493186891079
1761470354553615000,6.183614990234375,0.026253625750541687,0.002488468075171113,0.021990593522787094
1761470354563591200,6.193591064453125,0.02765178680419922,-0.012994350865483284,0.011449803598225117
1761470354573568000,6.203568115234375,0.02546367235481739,-0.001972865080460906,0.011670731008052826
1761470354583544300,6.21354443359375,0.017846764996647835,0.010143453255295753,0.012510159984230995
1761470354593520000,6.22352001953125,0.011655904352664948,0.013060852885246277,0.015652362257242203
1761470354603497200,6.233497314453125,0.010560812428593636,0.01837439090013504,0.011445899493992329
1761470354613473300,6.243473388671875,0.016397982835769653,0.0073343319818377495,0.005126243457198143
1761470354623450400,6.253450439453125,0.019418273121118546,0.0032684842590242624,-0.003395871724933386
1761470354633426200,6.26342626953125,0.01758681610226631,0.01043691486120224,-0.013558760285377502
1761470354643402500,6.273402587890625,0.011755293235182762,0.0032897896599024534,-0.03567072004079819
1761470354653378800,6.28337890625,0.011454089544713497,-0.002287135925143957,-0.04454197734594345
1761470354663354600,6.293354736328125,0.0073240590281784534,-0.0028471986297518015,-0.04989119991660118
1761470354673331700,6.303331787109375,0.008670639246702194,-0.006192371249198914,-0.04271409660577774
1761470354683307500,6.3133076171875,0.01134897954761982,0.005932734347879887,-0.015058502554893494
1761470354693284900,6.323284912109375,0.014717048034071922,0.028400011360645294,0.01178390346467495
1761470354703260700,6.3332607421875,0.014096265658736229,0.040740832686424255,0.022764118388295174
1761470354713237800,6.34323779296875,0.00807447824627161,0.04375502094626427,0.022927885875105858
1761470354723213600,6.353213623046875,0.01087239570915699,0.025215158239006996,0.020381104201078415
1761470354733190700,6.363190673828125,0.01297023892402649,-0.014176890254020691,0.0013776595005765557
1761470354743166700,6.373166748046875,0.022920874878764153,-0.033945534378290176,-0.010292844846844673
1761470354753142500,6.383142578125,0.03146808594465256,-0.01905616745352745,-0.01664077304303646
1761470354763119600,6.39311962890625,0.022303350269794464,-0.002299825195223093,-0.017641589045524597
1761470354773095700,6.403095703125,0.011914084665477276,0.0009147827513515949,-0.020247986540198326
1761470354783072800,6.41307275390625,0.010208063758909702,-0.01140766404569149,-0.02659057080745697
1761470354793048600,6.423048583984375,0.014210769906640053,-0.026177410036325455,-0.0275337565690279
1761470354803025700,6.433025634765625,0.015045405365526676,-0.022314760833978653,-0.015564179979264736
1761470354813001700,6.443001708984375,0.01459877472370863,-0.0035320427268743515,-0.01254287175834179
1761470354822978800,6.452978759765625,0.021270792931318283,-0.011685576289892197,0.011197611689567566
1761470354832954600,6.46295458984375,0.01498961728066206,-0.0012096446007490158,0.03475802019238472
1761470354842931700,6.472931640625,0.008842775598168373,0.014627109281718731,0.04848874732851982
1761470354852907800,6.48290771484375,0.004206562880426645,0.02156386896967888,0.05536944046616554
1761470354862883600,6.492883544921875,-0.002059855032712221,0.021342825144529343,0.04589764028787613
1761470354872860700,6.502860595703125,0.0007553724572062492,0.009306402876973152,0.031066231429576874
1761470354882836500,6.51283642578125,0.0029612688813358545,-0.015130496583878994,0.0030676203314214945
1761470354892813600,6.5228134765625,0.007324453443288803,-0.033096812665462494,-0.017730245366692543
1761470354902789600,6.53278955078125,0.00859797652810812,-0.023343782871961594,-0.01897154375910759
1761470354912766700,6.5427666015625,0.0007370508392341435,0.010145639069378376,0.0006942347390577197
1761470354922742500,6.552742431640625,-0.008756586350500584,0.0325380302965641,0.013252903707325459
1761470354932719600,6.5627197265625,-0.011195732280611992,0.03231686353683472,0.016624141484498978
1761470354942695700,6.57269580078125,-0.010492125526070595,0.02571595460176468,0.012589718215167522
1761470354952671700,6.582671630859375,-0.009613143280148506,0.01263939868658781,-0.005190969444811344
1761470354962648600,6.592648681640625,-0.0072272163815796375,-0.004029859323054552,-0.024727387353777885
1761470354972624600,6.602624755859375,-0.006005120929330587,-0.025327909737825394,-0.039917390793561935
1761470354982601700,6.612601806640625,-0.004821878857910633,-0.02482510544359684,-0.042319029569625854
1761470354992577500,6.62257763671875,-0.004931647330522537,-0.004080391954630613,-0.03101690113544464
1761470355002554600,6.6325546875,-0.010476081632077694,0.018883246928453445,-0.010173936374485493
1761470355012530700,6.64253076171875,-0.017985079437494278,0.029427841305732727,0.008090849034488201
1761470355022507800,6.6525078125,-0.024746311828494072,0.02198510617017746,0.01989610865712166
1761470355032483600,6.662483642578125,-0.021051527932286263,0.010072230361402035,0.01108009833842516
1761470355042459600,6.672459716796875,-0.012262564152479172,-0.005787692964076996,0.005424875766038895
1761470355052436500,6.6824365234375,-0.009305856190621853,-0.020357578992843628,-0.005807700101286173
1761470355062412800,6.692412841796875,-0.0119314668700099,-0.018974067643284798,-0.003159719053655863
1761470355072389600,6.7023896484375,-0.010848872363567352,0.007881537079811096,0.007446629926562309
1761470355082365700,6.71236572265625,-0.012052088044583797,0.026944443583488464,0.018201006576418877
1761470355092342500,6.722342529296875,-0.01097981445491314,0.019001856446266174,0.019398247823119164
1761470355102318800,6.73231884765625,-0.008219714276492596,-0.0052518174052238464,0.005221708212047815
1761470355112295700,6.742295654296875,0.0018639614572748542,-0.03029509261250496,-0.003087361343204975
1761470355122271500,6.752271484375,0.012667607516050339,-0.04100233316421509,-0.015620197169482708
1761470355132247800,6.762247802734375,0.015351306647062302,-0.026020502671599388,-0.01306450366973877
1761470355142224600,6.772224609375,0.006731985602527857,-0.010109446942806244,-0.010581105947494507
1761470355152200700,6.78220068359375,0.006759760435670614,-0.006202394142746925,0.005389257334172726
1761470355162177500,6.792177490234375,0.00041211588541045785,0.01951655186712742,0.026495343074202538
1761470355172153600,6.802153564453125,0.0013458621688187122,0.023210501298308372,0.03882358968257904
1761470355182130700,6.812130615234375,0.0011501199332997203,0.007313559763133526,0.03214331343770027
1761470355192106800,6.822106689453125,0.004080003593116999,-0.002954960335046053,0.0245010145008564
1761470355202083600,6.83208349609375,-0.002922778483480215,-0.002619668375700712,0.016607139259576797
1761470355212059600,6.8420595703125,-0.013890468515455723,0.006898831110447645,0.012423811480402946
1761470355222035700,6.85203564453125,-0.020084181800484657,0.015233991667628288,0.014650480821728706
1761470355232012800,6.8620126953125,-0.01793409138917923,0.02078462764620781,0.015634646639227867
1761470355241988600,6.871988525390625,-0.020128805190324783,0.02572532370686531,0.01140900980681181
1761470355251965700,6.881965576171875,-0.017655998468399048,0.019564801827073097,-0.003674080828204751
1761470355261941800,6.891941650390625,-0.014024244621396065,-0.004824161063879728,-0.020767048001289368
1761470355271918600,6.901918701171875,-0.008636239916086197,-0.023544633761048317,-0.03702078387141228
1761470355281894700,6.911894775390625,-0.014380412176251411,-0.018842022866010666,-0.034963492304086685
1761470355291871500,6.92187158203125,-0.015268334187567234,0.00772688165307045,-0.0204683318734169
1761470355301847800,6.931847900390625,-0.013749800622463226,0.02185947820544243,0.002252959180623293
1761470355311823600,6.94182373046875,-0.00859409011900425,0.02548212930560112,0.024500440806150436
1761470355321800700,6.95180078125,0.002066276967525482,0.022605381906032562,0.036463357508182526
1761470355331776500,6.961776611328125,0.013681484386324883,0.01638978160917759,0.03952515870332718
1761470355341753600,6.971753662109375,0.019965479150414467,0.009995533153414726,0.03231704607605934
1761470355351729700,6.981729736328125,0.01842677593231201,0.008051521144807339,0.026629138737916946
1761470355361706800,6.991706787109375,0.014145745895802975,0.006442706100642681,0.021136103197932243
1761470355371682600,7.0016826171875,0.01717735081911087,-0.0027857774402946234,0.011616192758083344
1761470355381659600,7.01165966796875,0.01639731042087078,-0.004872630350291729,0.00628667464479804
1761470355391635700,7.0216357421875,0.017275843769311905,0.0037180494982749224,0.005354093853384256
1761470355401612800,7.03161279296875,0.012686418369412422,0.011682765558362007,0.007386351935565472
1761470355411588600,7.041588623046875,0.009102209471166134,0.021589554846286774,0.010204151272773743
1761470355421564700,7.051564697265625,0.00944069679826498,0.021914994344115257,0.011120811104774475
1761470355431541800,7.061541748046875,0.011205585673451424,0.015005084685981274,0.00007596411160193384
1761470355441517600,7.071517578125,0.012188025750219822,-0.0011973211076110601,-0.013549034483730793
1761470355451494700,7.08149462890625,0.0139163201674819,-0.013228368945419788,-0.02442002296447754
1761470355461470700,7.091470703125,0.010458205826580524,-0.011582002975046635,-0.0252155102789402
1761470355471447800,7.10144775390625,0.013053040951490402,-0.001936060842126608,-0.013828623108565807
1761470355481423600,7.111423583984375,0.009525151923298836,0.014204293489456177,-0.0032942232210189104
1761470355491400700,7.121400634765625,0.01783507876098156,0.019015029072761536,0.007278367877006531
1761470355501376500,7.13137646484375,0.01975841261446476,0.012717985548079014,0.0073095266707241535
1761470355511352600,7.1413525390625,0.021967463195323944,-0.0006810552440583706,0.011322169564664364
1761470355521329700,7.15132958984375,0.023667624220252037,-0.003074438078328967,0.005107949022203684
1761470355531305500,7.161305419921875,0.018167344853281975,-0.004734725691378117,0.004138002637773752
1761470355541282600,7.171282470703125,0.016238415613770485,-0.006200529634952545,-0.0012098909355700016
1761470355551258600,7.181258544921875,0.014044003561139107,0.0001832826528698206,0.0017764352960512042
1761470355561235700,7.191235595703125,0.013890339061617851,0.009716067463159561,0.006729115732014179
1761470355571211500,7.20121142578125,0.007891996763646603,0.011393814347684383,0.01669660024344921
1761470355581188600,7.211188720703125,0.0010354220867156982,0.014126484282314777,0.01552268024533987
1761470355591164700,7.22116455078125,0.001930790487676859,0.015438548289239407,0.011916037648916245
1761470355601140700,7.231140625,0.00020905688870698214,0.012430774047970772,0.013376781716942787
1761470355611117600,7.24111767578125,-0.003182739485055208,0.0066041406244039536,0.009714903309941292
1761470355621093600,7.25109375,-0.007379082962870598,0.003173190401867032,0.006789687089622021
1761470355631070700,7.26107080078125,-0.010449611581861973,-0.00013343757018446922,0.00586180854588747
1761470355641046300,7.27104638671875,-0.007788847200572491,-0.004667469300329685,0.004066571593284607
1761470355651023400,7.2810234375,-0.004475330002605915,-0.008466273546218872,0.013328861445188522
1761470355660999400,7.29099951171875,0.009026097133755684,0.003182658925652504,0.01675315387547016
1761470355670976500,7.3009765625,0.013138124719262123,0.01854035258293152,0.011561778374016285
1761470355680952300,7.310952392578125,0.009649383835494518,0.013871831819415092,0.01108240894973278
1761470355690928400,7.320928466796875,-0.003042464843019843,-0.00421557854861021,0.016386322677135468
1761470355700905200,7.3309052734375,-0.004446750041097403,-0.004926376510411501,0.01766836829483509
1761470355710881500,7.340881591796875,-0.002394475508481264,0.0055735474452376366,0.01549543533474207
1761470355720858400,7.3508583984375,-0.0014083068817853928,0.008998372592031956,0.01104875560849905
1761470355730834400,7.36083447265625,-0.0031826745253056288,0.007133313454687595,0.003220092039555311
1761470355740811300,7.370811279296875,-0.0023056953214108944,0.007096295244991779,-0.011348730884492397
1761470355750787600,7.38078759765625,-0.002477396046742797,-0.0020544969011098146,-0.02547513321042061
1761470355760764400,7.390764404296875,-0.008856997825205326,-0.0198244396597147,-0.03522230312228203
1761470355770740500,7.400740478515625,-0.013503458350896835,-0.01772654615342617,-0.03148742765188217
1761470355780716500,7.410716552734375,-0.023569408804178238,0.012322166934609413,-0.01571592129766941
1761470355790693600,7.420693603515625,-0.02882199175655842,0.03143279626965523,0.006015345919877291
1761470355800669400,7.43066943359375,-0.025852033868432045,0.027969617396593094,0.018063751980662346
1761470355810646300,7.440646240234375,-0.01899174228310585,0.00953822024166584,0.013536830432713032
1761470355820622300,7.450622314453125,-0.01641167141497135,-0.00800881627947092,0.0009334210189990699
1761470355830599400,7.460599365234375,-0.008933345787227154,-0.013428834266960621,-0.011950918473303318
1761470355840575500,7.470575439453125,0.001736608799546957,-0.003632662817835808,-0.019178472459316254
1761470355850552300,7.48055224609375,0.0020065924618393183,0.018217340111732483,-0.018093489110469818
1761470355860528400,7.4905283203125,-0.009781889617443085,0.01718616485595703,-0.00438273698091507
1761470355870505200,7.500505126953125,-0.016417307779192924,0.010116246528923512,0.012749392539262772
1761470355880481500,7.5104814453125,-0.010954897850751877,0.010070174001157284,0.005249397829174995
1761470355890457300,7.520457275390625,-0.004757498390972614,-0.001097138156183064,-0.011208612471818924
1761470355900434400,7.530434326171875,-0.0039079501293599606,-0.016973573714494705,-0.02762167528271675
1761470355910410500,7.540410400390625,0.0005197369027882814,-0.009620608761906624,-0.035480279475450516
1761470355920387600,7.5503876953125,-0.0016187813598662615,0.005967139266431332,-0.023908846080303192
1761470355930363400,7.56036328125,-0.005113435443490744,0.013794096186757088,-0.008349883370101452
1761470355940340500,7.570340576171875,-0.004023137502372265,0.019746260717511177,0.009785444475710392
1761470355950316500,7.580316650390625,-0.0029055471532046795,0.0207938514649868,0.026376230642199516
1761470355960293400,7.59029345703125,-0.0011960641713812947,0.011236297897994518,0.026738420128822327
1761470355970269400,7.60026953125,0.006239099428057671,-0.0028091873973608017,0.01637844741344452
1761470355980245200,7.610245361328125,0.013828042894601822,-0.025317959487438202,0.005691714119166136
1761470355990222300,7.620222412109375,0.019218184053897858,-0.034420862793922424,-0.00121009920258075
1761470356000198400,7.630198486328125,0.019558802247047424,-0.011671073734760284,0.010285702534019947
1761470356010175500,7.640175537109375,0.012521999888122082,0.013605253770947456,0.027324706315994263
1761470356020151300,7.6501513671875,0.006017761304974556,0.01790386252105236,0.02983660064637661
1761470356030128400,7.66012841796875,0.00032766879303380847,0.016648204997181892,0.023008039221167564
1761470356040104400,7.6701044921875,-0.0025165872648358345,0.009666196070611477,0.011919967830181122
1761470356050081500,7.68008154296875,-0.0021409536711871624,-0.001925043878145516,0.007934638299047947
1761470356060057300,7.690057373046875,0.00012912478996440768,-0.008153645321726799,0.005656837020069361
1761470356070033400,7.700033447265625,-0.0032090942841023207,-0.002364923944696784,0.00493035139515996
1761470356080010500,7.710010498046875,-0.0028716716915369034,0.00041088880971074104,0.004291991703212261
1761470356089986300,7.719986328125,-0.0035973007325083017,-0.0032726051285862923,0.0004345780471339822
1761470356099963400,7.72996337890625,-0.0005338664632290602,-0.0016033356077969074,0.004280715249478817
1761470356109939500,7.739939453125,-0.0009175583254545927,0.003711634548380971,0.0006556977168656886
1761470356119916500,7.74991650390625,-0.0017644434701651335,-0.02826227806508541,-0.012020948342978954
1761470356129892400,7.759892333984375,0.005858981516212225,-0.05624740198254585,-0.029460299760103226
1761470356139869400,7.769869384765625,0.018750810995697975,-0.048800405114889145,-0.03326995298266411
1761470356149845200,7.77984521484375,0.019725725054740906,-0.02416733093559742,-0.01732541434466839
1761470356159821600,7.789821533203125,0.018588555976748466,-0.011614520102739334,-0.0057662297040224075
1761470356169798400,7.79979833984375,0.014123290777206421,-0.0066840387880802155,0.013505464419722557
1761470356179774200,7.809774169921875,0.006007040850818157,0.014574644155800343,0.0317973867058754
1761470356189751300,7.819751220703125,-0.002546067116782069,0.03486495092511177,0.03851953148841858
1761470356199727400,7.829727294921875,-0.005635334178805351,0.029423579573631287,0.029230957850813866
1761470356209704400,7.839704345703125,-0.0034896668512374163,0.009601794183254242,0.016436390578746796
1761470356219680300,7.84968017578125,-0.002427864819765091,-0.002325172768905759,0.0008188156643882394
1761470356229657300,7.8596572265625,0.0005284608341753483,-0.005324134603142738,-0.011446159332990646
1761470356239633400,7.86963330078125,-0.004833015147596598,-0.010501319542527199,-0.022825047373771667
1761470356249609500,7.879609375,-0.007980135269463062,-0.026850899681448936,-0.032274194061756134
1761470356259586300,7.88958642578125,-0.009269370697438717,-0.008446590974926949,-0.029273346066474915
1761470356269562400,7.899562255859375,-0.012988445349037647,0.01945503242313862,-0.011723784729838371
1761470356279539500,7.90953955078125,-0.010421158745884895,0.036589011549949646,0.007637662813067436
1761470356289515500,7.919515625,-0.008003891445696354,0.03549043461680412,0.021234814077615738
1761470356299492400,7.929492431640625,-0.00003145274240523577,0.01130653452128172,0.015746837481856346
1761470356309468400,7.939468505859375,0.01403588056564331,-0.02487919293344021,-0.0005922405980527401
1761470356319445200,7.9494453125,0.015049213543534279,-0.04036653786897659,-0.010790282860398293
1761470356329421600,7.959421630859375,0.008099699392914772,-0.04243918135762215,-0.015057495795190334
1761470356339398400,7.9693984375,0.0028921545017510653,-0.02439786121249199,-0.0021065440960228443
1761470356349374200,7.979374267578125,0.001500312821008265,-0.00038902764208614826,0.0228061955422163
1761470356359350500,7.9893505859375,-0.003003625199198723,0.009237500838935375,0.03960594907402992
1761470356369327400,7.999327392578125,-0.007362281903624535,-0.006532843224704266,0.04649092257022858
1761470356379303400,8.009303466796876,-0.003050623694434762,-0.02337014675140381,0.0417635478079319
1761470356389280300,8.0192802734375,-0.0051704575307667255,-0.04830384626984596,0.033536188304424286
1761470356399256600,8.029256591796875,-0.006647180300205946,-0.06985840946435928,0.03783213347196579
1761470356409233400,8.0392333984375,-0.00537039153277874,-0.04859653115272522,0.0520271398127079
1761470356419209500,8.04920947265625,-0.006689189001917839,-0.009474961087107658,0.0792611613869667
1761470356429185300,8.059185302734376,-0.008772395551204681,0.00881783477962017,0.0905836820602417
1761470356439162400,8.069162353515624,-0.02764834836125374,0.0026856395415961742,0.09533902257680893
1761470356449138400,8.079138427734375,-0.034733060747385025,-0.01880904659628868,0.09922107309103012
1761470356459115500,8.089115478515625,-0.024802928790450096,-0.014733346179127693,0.10450106114149094
1761470356469091300,8.09909130859375,-0.012393536977469921,-0.004956445656716824,0.1023423969745636
1761470356479068400,8.109068359375,-0.00026949692983180285,-0.0032022218219935894,0.08623266965150833
1761470356489044500,8.11904443359375,-0.0019358667777851224,-0.005248812027275562,0.06665483862161636
1761470356499021300,8.129021240234374,-0.007137553300708532,-0.004618708044290543,0.04912324994802475
1761470356508997400,8.138997314453125,-0.011124122887849808,-0.02103392593562603,0.026695555076003075
1761470356518973400,8.148973388671875,-0.0048228176310658455,-0.019447747617959976,0.0251032505184412
1761470356528950500,8.158950439453125,0.012519687414169312,0.005301008932292461,0.018410194665193558
1761470356538926300,8.16892626953125,0.024822957813739777,0.012557590380311012,0.004751106724143028
1761470356548903400,8.1789033203125,0.019698461517691612,0.016923431307077408,0.0035732476972043514
1761470356558879500,8.18887939453125,0.009569128975272179,0.009179491549730301,0.0010427122469991446
1761470356568856600,8.198856689453125,-0.0007637371309101582,-0.004891053773462772,-0.004385177977383137
1761470356578832400,8.208832275390625,0.0014972866047173738,-0.006981368642300367,-0.006232346408069134
1761470356588809500,8.2188095703125,0.0034946694504469633,-0.00007346714846789837,-0.0008931602351367474
1761470356598785300,8.228785400390626,0.007544538471847773,0.004078134428709745,0.0038976003415882587
1761470356608762600,8.2387626953125,0.005156621802598238,-0.01122216135263443,0.00918973982334137
1761470356618738400,8.248738525390625,0.0023248824290931225,-0.018098710104823112,0.013309117406606674
1761470356628714200,8.25871435546875,-0.00477091409265995,-0.00900358147919178,0.016901113092899323
1761470356638691600,8.268691650390625,-0.008335288614034653,0.005093595013022423,0.03931507468223572
1761470356648668000,8.27866796875,-0.011704396456480026,0.014237198047339916,0.051209814846515656
1761470356658644700,8.288644775390624,-0.009228987619280815,0.004642893560230732,0.055236779153347015
1761470356668620800,8.298620849609375,-0.0042603155598044395,-0.005811950191855431,0.05617828667163849
1761470356678597600,8.30859765625,0.0021416570525616407,-0.002275005914270878,0.04908442497253418
1761470356688574000,8.318573974609375,0.00850512832403183,0.007004221435636282,0.04002676159143448
1761470356698550800,8.32855078125,0.013883115723729134,0.004567962139844894,0.018288442865014076
1761470356708526800,8.33852685546875,0.012343217618763447,-0.0034176968038082123,-0.0003720540553331375
1761470356718503700,8.348503662109374,0.010487526655197144,-0.0028909235261380672,-0.016001347452402115
1761470356728479700,8.358479736328125,0.004792259074747562,-0.009825212880969048,-0.031381066888570786
1761470356738455800,8.368455810546875,0.00088167330250144,-0.011364786885678768,-0.03849303722381592
1761470356748433000,8.378432861328125,-0.0038631237111985683,-0.005135531537234783,-0.03415185958147049
1761470356758408700,8.38840869140625,-0.008096219040453434,0.01032252050936222,-0.020423799753189087
1761470356768385800,8.3983857421875,-0.019816087558865547,0.020513687282800674,-0.007106628734618425
1761470356778361900,8.40836181640625,-0.02362733706831932,0.023779787123203278,0.00007325325714191422
1761470356788338700,8.418338623046875,-0.025566456839442253,0.002095967996865511,0.003626108868047595
1761470356798314800,8.428314697265625,-0.025743024423718452,-0.016609277576208115,-0.0012227086117491126
1761470356808291600,8.43829150390625,-0.02041465789079666,-0.014936302788555622,0.005178846884518862
1761470356818268000,8.448267822265626,-0.010034987702965736,-0.0011627000058069825,0.00819248054176569
1761470356828244700,8.45824462890625,0.0031524663791060448,0.01855926588177681,0.014500787481665611
1761470356838220800,8.468220703125,0.00832858681678772,0.021251188591122627,0.013334855437278748
1761470356848196900,8.47819677734375,0.01224198006093502,0.015869133174419403,0.011661998927593231
1761470356858174000,8.488174072265625,0.014667853713035583,0.007801619358360767,0.003222707426175475
1761470356868149800,8.498149658203126,0.012110905721783638,-0.0051794033497571945,-0.01470267679542303
1761470356878126800,8.508126953125,0.016236143186688423,-0.01718946173787117,-0.03837045654654503
1761470356888102700,8.5181025390625,0.01689133793115616,-0.012638745829463005,-0.050146158784627914
1761470356898080000,8.528080078125,0.020062895491719246,-0.00448201596736908,-0.04909314215183258
1761470356908055800,8.538055908203125,0.030769377946853638,0.007551788352429867,-0.03810045123100281
1761470356918033000,8.548032958984376,0.03831198439002037,0.021242832764983177,-0.022685540840029716
1761470356928008700,8.5580087890625,0.034602582454681396,0.02523072436451912,-0.0163581520318985
1761470356937984800,8.56798486328125,0.028261331841349602,0.019728099927306175,-0.021508706733584404
1761470356947961900,8.5779619140625,0.021555950865149498,0.022815408185124397,-0.02489711157977581
1761470356957937700,8.587937744140625,0.014727604575455189,0.022965876385569572,-0.023166323080658913
1761470356967914800,8.597914794921875,0.007965471595525742,0.012002125382423401,-0.03244471177458763
1761470356977890800,8.607890869140626,0.00906509067863226,-0.010235268622636795,-0.039448294788599014
1761470356987868000,8.617867919921874,0.021211419254541397,-0.01671050302684307,-0.03166243061423302
1761470356997843700,8.62784375,0.026569964364171028,-0.01318634208291769,-0.02361968159675598
1761470357007820800,8.63782080078125,0.028794698417186737,-0.0015509889926761389,-0.007912454195320606
1761470357017796900,8.647796875,0.019327694550156593,0.004624881781637669,0.0025971787981688976
1761470357027772700,8.657772705078125,0.013270012103021145,0.008121171966195107,0.012983505614101887
1761470357037749800,8.667749755859376,0.006378551013767719,0.010796849615871906,0.017054414376616478
1761470357047725600,8.6777255859375,0.008304085582494736,0.008350037969648838,0.018906719982624054
1761470357057702700,8.68770263671875,0.007710200268775225,0.004334789700806141,0.012211534194648266
1761470357067678700,8.6976787109375,0.009894628077745438,-0.015544327907264233,-0.0009943495970219374
1761470357077655800,8.70765576171875,0.00984642468392849,-0.012534156441688538,-0.007736408617347479
1761470357087631600,8.717631591796875,0.010445448569953442,0.0023802712094038725,-0.010214031673967838
1761470357097608700,8.727608642578126,0.011701395735144615,0.007059178315103054,-0.009070470929145813
1761470357107584800,8.737584716796874,0.014710880815982819,0.010577724315226078,-0.010433992370963097
1761470357117561900,8.747561767578125,0.006605284288525581,0.007837331853806973,-0.015096921473741531
1761470357127537700,8.75753759765625,0.007859249599277973,-0.008982472121715546,-0.01789763569831848
1761470357137514000,8.767513916015625,0.007288001477718353,-0.019632719457149506,-0.02131447196006775
1761470357147490800,8.77749072265625,0.009900692850351334,-0.010121768340468407,-0.009169445373117924
1761470357157467000,8.787466796875,0.019038796424865723,0.006872927770018578,0.005279801320284605
1761470357167443700,8.797443603515624,0.022152187302708626,0.010224802419543266,0.0183979794383049
1761470357177419800,8.807419677734375,0.02796213887631893,0.0015365059953182936,0.014774215407669544
1761470357187396900,8.81739697265625,0.028403975069522858,0.0026799903716892004,0.014187059365212917
1761470357197372700,8.82737255859375,0.019168397411704063,0.014653029851615429,0.007335278205573559
1761470357207349800,8.837349853515626,0.010270283557474613,0.01760166510939598,-0.0013733281521126628
1761470357217325600,8.84732568359375,0.005881394725292921,0.009534153155982494,-0.014901920221745968
1761470357227302000,8.857302001953125,0.007519462611526251,-0.004277945030480623,-0.021992528811097145
1761470357237278700,8.86727880859375,0.007655283901840448,-0.0038118918891996145,-0.030056314542889595
1761470357247254800,8.8772548828125,0.006336795166134834,-0.005477287340909243,-0.03484127297997475
1761470357257231600,8.887231689453126,-0.0029877310153096914,-0.007248555775731802,-0.029715487733483315
1761470357267208000,8.8972080078125,-0.013485996052622795,0.010369562543928623,-0.017114359885454178
1761470357277184800,8.907184814453124,-0.02223740890622139,0.014936084859073162,-0.009968831203877926
1761470357287160800,8.917160888671875,-0.01818671263754368,0.004658631049096584,-0.0020066506695002317
1761470357297137700,8.9271376953125,-0.011305902153253555,0.0069574713706970215,0.011469211429357529
1761470357307114000,8.937114013671875,-0.00692564994096756,0.006830195896327496,0.013208241201937199
1761470357317090800,8.9470908203125,-0.004882472567260265,-0.0038639933336526155,0.004453897941857576
1761470357327066600,8.957066650390624,-0.0006788547616451979,-0.02217373251914978,-0.005056897643953562
1761470357337042700,8.967042724609374,-0.003202732652425766,-0.021112196147441864,-0.013881813734769821
1761470357347019800,8.977019775390625,0.0029960712417960167,-0.006310929544270039,-0.003045017132535577
1761470357356995800,8.986995849609375,0.0069593871012330055,0.006870918907225132,0.005885094404220581
1761470357366972700,8.99697265625,0.005642690695822239,0.008072585798799992,0.013525575399398804
1761470357376948700,9.00694873046875,0.005562529433518648,0.007138349115848541,0.010666672140359879
1761470357386925800,9.01692578125,0.005411963909864426,0.0010030067060142756,-0.0006293563055805862
1761470357396902000,9.02690185546875,-0.002691502682864666,-0.016489699482917786,-0.01667223684489727
1761470357406878700,9.036878662109375,-0.008653774857521057,-0.021434998139739037,-0.026320260018110275
1761470357416854800,9.046854736328125,-0.011115601286292076,-0.0058754789642989635,-0.013459588401019573
1761470357426831600,9.05683154296875,-0.005118441767990589,0.012552071362733841,0.00429296400398016
1761470357436808000,9.066807861328124,0.0027599879540503025,0.010690521448850632,0.015265188179910183
1761470357446783700,9.07678369140625,0.012693689204752445,-0.0005494724027812481,0.017103075981140137
1761470357456760800,9.0867607421875,0.017108144238591194,-0.005928258877247572,0.014845781028270721
1761470357466737000,9.09673681640625,0.01588086411356926,-0.017617356032133102,0.006127161905169487
1761470357476714000,9.1067138671875,0.009873836301267147,-0.027505407109856606,0.0009177527972497046
1761470357486689800,9.116689697265626,-0.000500549387652427,-0.01845266856253147,0.0036664584185928106
1761470357496666600,9.12666650390625,-0.014581747353076935,-0.011700224131345749,0.007223908789455891
1761470357506643000,9.136642822265625,-0.01865847036242485,-0.006390800699591637,0.019407814368605614
1761470357516619800,9.146619873046875,-0.01601075753569603,0.008534086868166924,0.033014699816703796
1761470357526595800,9.156595947265625,-0.013104462996125221,0.012847947888076305,0.03379413112998009
1761470357536571600,9.166571533203125,-0.008473492227494717,-0.002728348132222891,0.028593776747584343
1761470357546548700,9.176548828125,-0.00788242556154728,-0.021000418812036514,0.011080071330070496
1761470357556524800,9.18652490234375,-0.010905379429459572,-0.0259040966629982,-0.0040634614415466785
1761470357566502000,9.196501953125,-0.018230067566037178,-0.022686365991830826,-0.005736385006457567
1761470357576477700,9.206477783203125,-0.018707571551203728,-0.004088981542736292,0.008548811078071594
1761470357586454800,9.216454833984375,-0.01743272878229618,0.007414348889142275,0.028878236189484596
1761470357596430800,9.226430908203126,-0.013090977445244789,0.019444646313786507,0.03791221231222153
1761470357606408000,9.236407958984374,-0.0019435056019574404,0.014371518976986408,0.032861609011888504
1761470357616383700,9.2463837890625,0.0065453206188976765,-0.00487594585865736,0.009161338210105896
1761470357626359800,9.25635986328125,0.011591997928917408,-0.031007343903183937,-0.015616793185472488
1761470357636336600,9.266336669921875,0.004086678382009268,-0.02639554627239704,-0.029257770627737045
1761470357646312700,9.276312744140625,-0.007593498565256596,-0.011727144941687584,-0.035294774919748306
1761470357656289500,9.28628955078125,-0.014438088983297348,0.0008312568534165621,-0.036313965916633606
1761470357666265600,9.296265625,-0.01302790455520153,0.005325651727616787,-0.02877778932452202
1761470357676242700,9.30624267578125,-0.01058551948517561,0.004663056693971157,-0.028163664042949677
1761470357686218800,9.31621875,-0.003831084119156003,-0.0044027045369148254,-0.028143860399723053
1761470357696195600,9.326195556640625,0.0030361427925527096,-0.017570970579981804,-0.03478631749749184
1761470357706171600,9.336171630859376,0.0030547999776899815,-0.03131125867366791,-0.038550905883312225
1761470357716148700,9.346148681640624,0.003317653900012374,-0.024867739528417587,-0.03002266399562359
1761470357726124800,9.356124755859375,-0.0011685395147651434,-0.00816897302865982,-0.014891059137880802
1761470357736100600,9.3661005859375,-0.00909650418907404,0.002181669697165489,-0.001912409090436995
1761470357746077400,9.376077392578125,-0.011154326610267162,0.007378129754215479,0.010942112654447556
1761470357756053800,9.3860537109375,-0.008944702334702015,-0.0008643539622426033,0.007481068838387728
1761470357766030600,9.396030517578126,-0.00471099279820919,-0.016571486368775368,-0.0006954577402211726
1761470357776006700,9.406006591796874,-0.0034233543556183577,-0.021206185221672058,-0.01395560335367918
1761470357785983500,9.4159833984375,-0.004834378603845835,-0.015657946467399597,-0.02381160669028759
1761470357795959800,9.425959716796875,-0.010494395159184933,0.0020861621014773846,-0.025888605043292046
1761470357805936600,9.4359365234375,-0.012403209693729877,-0.0005138871492817998,-0.028492452576756477
1761470357815912700,9.44591259765625,-0.008413794450461864,-0.012302102521061897,-0.028916161507368088
1761470357825888500,9.455888427734376,0.000875547993928194,-0.007380697876214981,-0.02345336601138115
1761470357835865900,9.465865966796875,0.0015197666361927986,0.0015049392823129892,-0.0116318603977561
1761470357845841700,9.475841552734375,-0.0008772045257501304,0.012334514409303665,-0.0009124664356932044
1761470357855818800,9.48581884765625,-0.0013451220002025366,0.01284557394683361,0.00011844325490528718
1761470357865794600,9.495794677734375,-0.009291433729231358,-0.007425922434777021,-0.007666377816349268
1761470357875771600,9.505771728515626,-0.005767538212239742,-0.02765875682234764,-0.02204878069460392
1761470357885747700,9.515747802734374,-0.005573926493525505,-0.036696724593639374,-0.038010433316230774
1761470357895724500,9.525724609375,-0.013903762213885784,-0.050245556980371475,-0.049338456243276596
1761470357905700600,9.53570068359375,-0.023187778890132904,-0.04251844435930252,-0.039450280368328094
1761470357915677400,9.545677490234375,-0.02972397208213806,-0.0018802048871293664,-0.010659909807145596
1761470357925653800,9.55565380859375,-0.03910110518336296,0.03758951276540756,0.023009758442640305
1761470357935629600,9.565629638671876,-0.04067450016736984,0.03643316775560379,0.0406542643904686
1761470357945606700,9.575606689453124,-0.02976129949092865,0.0064612035639584064,0.03432946279644966
1761470357955582700,9.585582763671875,-0.007256789598613977,-0.022085487842559814,0.025137826800346375
1761470357965559800,9.595559814453125,-0.0015146094374358654,-0.03154200688004494,0.021607715636491776
1761470357975535600,9.60553564453125,-0.00509389815852046,-0.02228912152349949,0.009002440609037876
1761470357985512700,9.6155126953125,0.003523600986227393,-0.021022111177444458,-0.000005493435310199857
1761470357995488800,9.62548876953125,-0.0001768613001331687,-0.012856326065957546,0.010499345138669014
1761470358005465900,9.6354658203125,0.004094637464731932,-0.0020829676650464535,0.012355324812233448
1761470358015441700,9.645441650390625,0.013500656001269817,-0.003578332718461752,0.012905800715088844
1761470358025417500,9.65541748046875,0.01580975577235222,-0.0028045878279954195,0.008111483417451382
1761470358035394600,9.66539453125,0.01509523019194603,-0.0037617278285324574,0.004243507981300354
1761470358045370600,9.67537060546875,0.01894153654575348,-0.0016870764084160328,0.003852859139442444
1761470358055347700,9.68534765625,0.016866134479641914,-0.002454865723848343,0.0008850324666127563
1761470358065323500,9.695323486328125,0.022397618740797043,-0.01049979217350483,-0.010043018497526646
1761470358075300600,9.705300537109375,0.028901323676109314,-0.02459057793021202,-0.016491064801812172
1761470358085276700,9.715276611328125,0.01913866586983204,-0.024425873532891273,-0.030070198699831963
1761470358095253800,9.725253662109376,0.013227779418230057,-0.012921016663312912,-0.03987888619303703
1761470358105229600,9.7352294921875,0.0046771010383963585,-0.005306772887706757,-0.04276425763964653
1761470358115206700,9.74520654296875,-0.00007690786151215434,0.0003034421242773533,-0.034487951546907425
1761470358125182700,9.7551826171875,-0.00301553588360548,0.0026049932930618525,-0.019709771499037743
1761470358135158500,9.765158447265625,-0.0009329437743872404,0.004748838022351265,0.0002849745796993375
1761470358145135600,9.775135498046875,-0.0006189335836097598,0.013373341411352158,0.014456083998084068
1761470358155111400,9.785111328125,0.004999803379178047,0.010125882923603058,0.02535986341536045
1761470358165088800,9.7950888671875,0.006917083635926247,0.0013550242874771357,0.02144244872033596
1761470358175064600,9.805064697265625,0.004887755028903484,-0.009382841177284718,0.01539174560457468
1761470358185041700,9.815041748046875,0.0033581466414034367,-0.015903877094388008,0.016224270686507225
1761470358195017500,9.825017578125,-0.0008909266907721758,-0.01748712733387947,0.020621683448553085
1761470358204994600,9.83499462890625,-0.002608847338706255,0.0011299911420792341,0.03987036645412445
1761470358214970600,9.844970703125,-0.003485560417175293,0.022019028663635254,0.0518985316157341
1761470358224947700,9.85494775390625,0.0023019127547740936,0.027135079726576805,0.05230221897363663
1761470358234923500,9.864923583984375,0.001701902598142624,0.024135828018188477,0.03725642338395119
1761470358244899800,9.87489990234375,0.0041309683583676815,-0.0003397860564291477,0.007591766770929098
1761470358254876700,9.884876708984375,0.0023242798633873463,-0.03261516988277435,-0.019565818831324577
1761470358264852700,9.894852783203126,-0.004734933376312256,-0.042398601770401,-0.030156543478369713
1761470358274829600,9.90482958984375,-0.00196817540563643,-0.016909487545490265,-0.01877419278025627
1761470358284805600,9.9148056640625,-0.001766544533893466,0.019913991913199425,-0.002579913241788745
1761470358294782700,9.92478271484375,-0.0024142253678292036,0.03391715884208679,0.012868551537394524
1761470358304758500,9.934758544921875,0.0023669181391596794,0.03938574343919754,0.0156498271971941
1761470358314735600,9.944735595703126,0.005147258285433054,0.02439187839627266,0.006076295394450426
1761470358324711700,9.954711669921876,0.009305336512625217,-0.0010141198290511966,-0.007046279031783342
1761470358334687700,9.964687744140624,0.00914288405328989,-0.018965691328048706,-0.01887098141014576
1761470358344664600,9.97466455078125,0.01104993000626564,-0.019814053550362587,-0.02246725559234619
1761470358354640600,9.984640625,0.014848663471639156,-0.011572368443012238,-0.014895089901983738
1761470358364617500,9.994617431640625,0.018042707815766335,-0.003638302441686392,-0.01024359930306673
1761470358374593800,10.00459375,0.018528468906879425,0.0020872275345027447,-0.01397761795669794
1761470358384570600,10.014570556640624,0.017069024965167046,-0.005453997291624546,-0.014549792744219303
1761470358394546700,10.024546630859374,0.009912579320371151,-0.009108919650316238,-0.01016516424715519
1761470358404523500,10.0345234375,0.004118551034480333,0.002179881324991584,0.002887231996282935
1761470358414499800,10.044499755859375,0.0015286270063370466,0.009578409604728222,0.016035256907343864
1761470358424476700,10.0544765625,-0.0035857795737683773,0.01035222690552473,0.029459649696946144
1761470358434452500,10.064452392578126,-0.0064545366913080215,0.007290123961865902,0.031274858862161636
1761470358444428800,10.0744287109375,-0.008810647763311863,0.004931968171149492,0.026034746319055557
1761470358454405600,10.084405517578125,-0.013203798793256283,0.0091418931260705,0.02671411819756031
1761470358464381700,10.094381591796875,-0.0115569569170475,-0.0005774860037490726,0.024879733100533485
1761470358474358500,10.104358642578125,-0.010182232595980167,-0.0063906339928507805,0.02070656046271324
1761470358484334600,10.11433447265625,-0.007779585663229227,-0.007132661063224077,0.011912784539163113
1761470358494311700,10.124311767578124,-0.00111715542152524,-0.011895725503563881,0.00858409982174635
1761470358504287700,10.134287841796874,0.00439218245446682,-0.016610248014330864,-0.0005292199784889817
1761470358514264600,10.1442646484375,0.0063405511900782585,-0.015278401784598827,-0.008001516573131084
1761470358524240600,10.15424072265625,0.005474560894072056,-0.018721502274274826,-0.010058199055492878
1761470358534216700,10.164216796875,0.006878313142806292,-0.007874447852373123,-0.0009616399765945971
1761470358544193800,10.17419384765625,0.010478080250322819,0.004538591951131821,0.003757613943889737
1761470358554169600,10.184169677734374,0.008778183721005917,0.003589175408706069,0.002058250829577446
1761470358564146700,10.194146728515625,0.00997135043144226,0.0008017439395189285,-0.006112250965088606
1761470358574122800,10.204122802734375,0.005862625781446695,-0.0016499620396643877,-0.010912599042057991
1761470358584099800,10.214099853515625,0.00849855225533247,0.0034466960933059454,-0.006999958772212267
1761470358594075600,10.22407568359375,0.010867699980735779,0.0008911269251257181,-0.003769810777157545
1761470358604052500,10.234052490234374,0.019362539052963257,-0.007629266940057278,-0.004329645540565252
1761470358614028800,10.24402880859375,0.02456475794315338,-0.01037631742656231,-0.0011210693046450615
1761470358624005600,10.254005615234375,0.022336771711707115,-0.007515890058130026,0.003807453904300928
1761470358633981700,10.263981689453125,0.015714023262262344,-0.006715077441185713,0.01051355991512537
1761470358643958300,10.273958251953125,0.010694188065826893,0.004703080281615257,0.023605715483427048
1761470358653935400,10.283935302734376,0.010419882833957672,0.023834165185689926,0.04485667869448662
1761470358663911400,10.293911376953124,0.010613160207867622,0.02168659120798111,0.05224525183439255
1761470358673888500,10.303888427734375,0.0067614298313856125,0.00830447394400835,0.045306652784347534
1761470358683864300,10.3138642578125,0.008609423413872719,-0.0037752389907836914,0.033302344381809235
1761470358693841400,10.32384130859375,0.009021680802106857,-0.016017790883779526,0.007819886319339275
1761470358703817500,10.3338173828125,0.010303950868546963,-0.010995480231940746,-0.004424738697707653
1761470358713794600,10.343794677734374,0.009531102143228054,0.013474175706505775,-0.003657482098788023
1761470358723770400,10.353770263671874,0.0025376142002642155,0.029988586902618408,-0.0030773337930440903
1761470358733746200,10.36374609375,-0.008708915673196316,0.012413320131599903,-0.015422949567437172
1761470358743723500,10.3737236328125,-0.013499957509338856,-0.01905834674835205,-0.03161103278398514
1761470358753699300,10.38369921875,-0.010947316884994507,-0.024143386632204056,-0.0380481593310833
1761470358763676400,10.393676513671876,-0.016324151307344437,-0.004572225734591484,-0.02962099201977253
1761470358773652200,10.40365234375,-0.019978806376457214,0.018595412373542786,-0.0103437015786767
1761470358783629300,10.41362939453125,-0.02215084433555603,0.023780101910233498,0.011478213593363762
1761470358793605400,10.42360546875,-0.026252111420035362,0.04244166985154152,0.03096935525536537
1761470358803582500,10.43358251953125,-0.016594352200627327,0.020671388134360313,0.02836194448173046
1761470358813558300,10.443558349609376,-0.007144923787564039,-0.01311187632381916,0.021954910829663277
1761470358823535400,10.453535400390624,-0.004044543951749802,-0.016791293397545815,0.027879556640982628
1761470358833511400,10.463511474609374,0.0039199055172502995,-0.010121139697730541,0.03591245040297508
1761470358843487500,10.473487548828125,0.005401100032031536,0.010568087920546532,0.05141895264387131
1761470358853464300,10.48346435546875,-0.00003094982821494341,0.0176590196788311,0.05276890844106674
1761470358863440600,10.493440673828125,-0.002510674064978957,0.024532034993171692,0.04926283657550812
1761470358873417500,10.50341748046875,-0.0063722580671310425,0.01062074676156044,0.04101529344916344
1761470358883393300,10.513393310546874,-0.008547762408852577,-0.00047163525596261024,0.025961633771657944
1761470358893370400,10.523370361328125,-0.012352354824543,-0.010074993595480919,0.013458359986543655
1761470358903346200,10.53334619140625,-0.011864747852087021,-0.015377904288470745,0.012447376735508442
1761470358913323500,10.543323486328125,-0.0042513031512498856,0.00027296110056340694,0.02022673562169075
1761470358923299300,10.55329931640625,0.001034594839438796,0.014797113835811615,0.027703845873475075
1761470358933276400,10.5632763671875,0.004724671132862568,0.01380135677754879,0.030582722276449203
1761470358943252200,10.573252197265624,0.0016122246161103249,-0.003424266818910837,0.024127153679728508
1761470358953228500,10.583228515625,-0.012239675037562847,-0.01169870886951685,0.01472060102969408
1761470358963205400,10.593205322265625,-0.02100924402475357,0.005154535174369812,0.016344379633665085
1761470358973181400,10.603181396484375,-0.027944114059209824,0.025927990674972534,0.022186290472745895
1761470358983158300,10.613158203125,-0.030038226395845413,0.026459291577339172,0.03213735669851303
1761470358993134600,10.623134521484374,-0.028300512582063675,0.030210617929697037,0.0430576466023922
1761470359003111400,10.633111328125,-0.01818176731467247,0.03154832869768143,0.0424172580242157
1761470359013087500,10.64308740234375,-0.01414867490530014,0.031146453693509102,0.02437727339565754
1761470359023064300,10.653064208984375,-0.007860938087105751,0.03363563492894173,0.020280873402953148
1761470359033040400,10.663040283203125,-0.013501512818038464,0.029496818780899048,0.01769627444446087
1761470359043017500,10.673017578125,-0.0034938708413392305,0.01836845651268959,0.016239065676927567
1761470359052993300,10.6829931640625,0.006519881077110767,0.006235361564904451,0.025314319878816605
1761470359062969300,10.69296923828125,0.011763755232095718,-0.005888432264328003,0.03664476051926613
1761470359072946400,10.702946533203125,0.005624370649456978,0.016480790451169014,0.040355607867240906
1761470359082922500,10.712922607421875,0.008478887379169464,0.03635578975081444,0.035299770534038544
1761470359092899300,10.7228994140625,-0.003922655247151852,0.07172337174415588,0.06700443476438522
1761470359102875400,10.73287548828125,0.004078840371221304,0.00172799127176404,0.03138931840658188
1761470359112852200,10.742852294921875,0.049005039036273956,-0.06381719559431076,-0.015281247906386852
1761470359122828500,10.75282861328125,0.05498085916042328,-0.08318758010864258,-0.036979030817747116
1761470359132805400,10.762805419921875,0.026626452803611755,-0.009527205489575863,-0.052262380719184875
1761470359142781400,10.772781494140625,0.005926232784986496,-0.0123416343703866,-0.040711984038352966
1761470359152757500,10.782757568359376,0.010806209407746792,-0.034179817885160446,-0.04806949943304062
1761470359162734600,10.792734619140624,0.007641182281076908,-0.0019173927139490843,-0.055618323385715485
1761470359172710400,10.80271044921875,-0.03101379983127117,-0.014132779091596603,-0.04283861443400383
1761470359182687500,10.8126875,-0.027971291914582253,-0.03753719478845596,-0.0369359627366066
