time,seconds_elapsed,z,y,x
1761475491845639400,0.075639404296875,0.172957181930542,0.04597815126180649,0.189824178814888
1761475491855616300,0.0856162109375,0.17821453511714935,0.08779829740524292,0.26480308175086975
1761475491865593300,0.09559326171875,0.18095612525939941,0.10727998614311218,0.28060194849967957
1761475491875571200,0.1055712890625,0.18092788755893707,0.11089709401130676,0.2532656788825989
1761475491885548300,0.11554833984375,0.17761985957622528,0.09844497591257095,0.1710384488105774
1761475491895525400,0.125525390625,0.17318862676620483,0.09553706645965576,0.053556304425001144
1761475491905502200,0.135502197265625,0.17223714292049408,0.09958937764167786,-0.07244573533535004
1761475491915480300,0.145480224609375,0.17379163205623627,0.11679179966449738,-0.18878565728664398
1761475491925457000,0.155456787109375,0.17619800567626953,0.16392065584659576,-0.27635034918785095
1761475491935434000,0.16543408203125,0.17427708208560944,0.1927104890346527,-0.32814162969589233
1761475491945411800,0.175411865234375,0.17098906636238098,0.2093697041273117,-0.34300824999809265
1761475491955389000,0.185388916015625,0.15438851714134216,0.20996996760368347,-0.3250090181827545
1761475491965365800,0.19536572265625,0.13878591358661652,0.1621338278055191,-0.27990999817848206
1761475491975343000,0.205343017578125,0.12929494678974152,0.11821085214614868,-0.20890668034553528
1761475491985321000,0.215321044921875,0.11936938017606735,0.10446029901504517,-0.12164647877216339
1761475491995297800,0.2252978515625,0.11677359789609909,0.12792621552944183,-0.0259013120085001
1761475492005275100,0.235275146484375,0.12574762105941772,0.1541970819234848,0.053105395287275314
1761475492015252000,0.245251953125,0.1450936198234558,0.15983419120311737,0.11639807373285294
1761475492025229800,0.255229736328125,0.15745575726032257,0.12612709403038025,0.14751259982585907
1761475492035207000,0.26520703125,0.15649807453155518,0.06497478485107422,0.15207938849925995
1761475492045184000,0.27518408203125,0.14030560851097107,-0.009394585154950619,0.1421557068824768
1761475492055161000,0.2851611328125,0.11533181369304657,-0.07066326588392258,0.1283474862575531
1761475492065139000,0.295138916015625,0.09910672158002853,-0.13039055466651917,0.10242390632629395
1761475492075116000,0.305115966796875,0.10038450360298157,-0.20330657064914703,0.08643002808094025
1761475492085093000,0.315093017578125,0.11031532287597656,-0.2571293115615845,0.07732086628675461
1761475492095070000,0.325070068359375,0.12131763994693756,-0.2884262502193451,0.073313869535923
1761475492105048000,0.335048095703125,0.1317143738269806,-0.2986944317817688,0.06758643686771393
1761475492115025200,0.345025146484375,0.14167992770671844,-0.29197555780410767,0.06219806522130966
1761475492125002000,0.355001953125,0.15335430204868317,-0.26001572608947754,0.05664166063070297
1761475492134979800,0.364979736328125,0.16875644028186798,-0.22843170166015625,0.05359553545713425
1761475492144957000,0.37495703125,0.17666785418987274,-0.1934916079044342,0.049386654049158096
1761475492154934000,0.38493408203125,0.17159399390220642,-0.13750211894512177,0.04825747385621071
1761475492164911000,0.3949111328125,0.16609854996204376,-0.07831457257270813,0.042250752449035645
1761475492174889000,0.404888916015625,0.1635001003742218,-0.046569693833589554,0.03078318014740944
1761475492184866000,0.414865966796875,0.1537056416273117,-0.03826635703444481,0.01778709515929222
1761475492194843100,0.424843017578125,0.13813839852809906,-0.03522209823131561,0.01260964386165142
1761475492204820000,0.434820068359375,0.11717667430639267,-0.022620396688580513,0.010184000246226788
1761475492214798000,0.444798095703125,0.10078172385692596,-0.008998860605061054,0.017589986324310303
1761475492224775000,0.45477490234375,0.08634643256664276,0.020903466269373894,0.027462521567940712
1761475492234752000,0.464751953125,0.07585544139146805,0.053409215062856674,0.0408283956348896
1761475492244729000,0.47472900390625,0.06926772743463516,0.07074561715126038,0.05015116184949875
1761475492254707000,0.48470703125,0.06046011671423912,0.0661359503865242,0.05305693671107292
1761475492264684000,0.49468408203125,0.049385033547878265,0.057838935405015945,0.055566009134054184
1761475492274660900,0.504660888671875,0.033799681812524796,0.04067619517445564,0.06132989004254341
1761475492284638000,0.514637939453125,0.02270728535950184,0.029602304100990295,0.06835435330867767
1761475492294616000,0.524615966796875,0.014158273115754128,0.02120455726981163,0.07231287658214569
1761475492304593000,0.534593017578125,0.013830522075295448,0.013697728514671326,0.06495095044374466
1761475492314570000,0.544570068359375,0.0163610577583313,0.004846447147428989,0.05798838287591934
1761475492324547000,0.554547119140625,0.012673315592110157,-0.0008057794766500592,0.049126289784908295
1761475492334525000,0.56452490234375,0.013070393353700638,-0.017623642459511757,0.036367353051900864
1761475492344502000,0.574501953125,0.020955746993422508,-0.049262795597314835,0.028874283656477928
1761475492354478800,0.584478759765625,0.026764100417494774,-0.08465433865785599,0.028835933655500412
1761475492364456000,0.5944560546875,0.029539721086621284,-0.11260321736335754,0.03933044895529747
1761475492374434000,0.60443408203125,0.025441117584705353,-0.12562447786331177,0.05956195294857025
1761475492384411000,0.614410888671875,0.01833239383995533,-0.136234313249588,0.08413545042276382
1761475492394388000,0.624387939453125,0.006089841481298208,-0.14598041772842407,0.10200313478708267
1761475492404366000,0.634365966796875,-0.006143431179225445,-0.15202078223228455,0.11841866374015808
1761475492414343000,0.644343017578125,-0.032642148435115814,-0.1530705988407135,0.12771469354629517
1761475492424320000,0.654320068359375,-0.051477644592523575,-0.13665874302387238,0.12638449668884277
1761475492434296800,0.664296875,-0.058651402592659,-0.11287112534046173,0.11538083851337433
1761475492444275000,0.67427490234375,-0.05351058393716812,-0.07648597657680511,0.10400805622339249
1761475492454252000,0.684251953125,-0.043307479470968246,-0.061089180409908295,0.0787341296672821
1761475492464228900,0.694228759765625,-0.03557664528489113,-0.041340820491313934,0.054859060794115067
1761475492474206000,0.7042060546875,-0.03671088442206383,-0.007416410371661186,0.03143469616770744
1761475492484184000,0.71418408203125,-0.03587551414966583,0.02209520898759365,0.019967764616012573
1761475492494161000,0.724160888671875,-0.03044905886054039,0.04822055250406265,0.00759791349992156
1761475492504138000,0.734137939453125,-0.02470148727297783,0.05310485512018204,0.0031486793886870146
1761475492514114800,0.74411474609375,-0.015052588656544685,0.03758475184440613,0.003304474288597703
1761475492524093000,0.754093017578125,-0.01574050448834896,0.021361950784921646,0.013155276887118816
1761475492534070000,0.764070068359375,-0.030154597014188766,-0.00019127735868096352,0.02235729806125164
1761475492544046800,0.774046875,-0.037306755781173706,-0.035082101821899414,0.028996583074331284
1761475492554024000,0.78402392578125,-0.040487367659807205,-0.06599634140729904,0.03770911693572998
1761475492564002000,0.794001953125,-0.03954850137233734,-0.06624643504619598,0.047402042895555496
1761475492573979000,0.803978759765625,-0.037644606083631516,-0.0428103506565094,0.05084178224205971
1761475492583956000,0.8139560546875,-0.029284030199050903,-0.01606626994907856,0.04500538855791092
1761475492593932800,0.823932861328125,-0.021642090752720833,-0.010357517749071121,0.028268486261367798
1761475492603911000,0.833910888671875,-0.005725042428821325,-0.026608899235725403,0.010021685622632504
1761475492613888000,0.843887939453125,0.009732477366924286,-0.033351488411426544,-0.00012522457109298557
1761475492623864800,0.85386474609375,0.016433950513601303,-0.030248355120420456,0.0026457072235643864
1761475492633842000,0.863842041015625,0.024524901062250137,-0.030251551419496536,0.003256902564316988
1761475492643820000,0.873820068359375,0.030933097004890442,-0.024065738543868065,0.002966107800602913
1761475492653796900,0.883796875,0.04319935292005539,-0.005931743420660496,0.011443748138844967
1761475492663774000,0.89377392578125,0.061564575880765915,0.0025223959237337112,0.0121006416156888
1761475492673750800,0.903750732421875,0.07430726289749146,-0.009067414328455925,0.007478192914277315
1761475492683729000,0.91372900390625,0.07788926362991333,-0.024678021669387817,0.0005576304392889142
1761475492693706000,0.9237060546875,0.07620853930711746,-0.03842179477214813,0.003080176655203104
1761475492703682800,0.933682861328125,0.07917745411396027,-0.04182223230600357,-0.004419054836034775
1761475492713661000,0.943660888671875,0.081923708319664,-0.0367417186498642,-0.0018736054189503193
1761475492723638000,0.953637939453125,0.08472239971160889,-0.034762345254421234,0.0030937588308006525
1761475492733614800,0.96361474609375,0.08095402270555496,-0.005821775645017624,0.008478670381009579
1761475492743592000,0.973592041015625,0.077076256275177,0.04626373201608658,0.015806250274181366
1761475492753569800,0.98356982421875,0.08147073537111282,0.09627203643321991,0.02155495062470436
1761475492763547000,0.993546875,0.08656829595565796,0.1149747222661972,0.017196357250213623
1761475492773524000,1.00352392578125,0.09141577780246735,0.089361771941185,0.005904288496822119
1761475492783500800,1.013500732421875,0.09266974031925201,0.040731679648160934,-0.0026921166572719812
1761475492793479000,1.02347900390625,0.09026224166154861,-0.004838470369577408,-0.012316781096160412
1761475492803455700,1.033455810546875,0.08704794943332672,-0.020366540178656578,-0.005859666038304567
1761475492813432800,1.043432861328125,0.08237384259700775,-0.016739580780267715,0.00033617799635976553
1761475492823410000,1.053409912109375,0.0760461688041687,-0.00963559839874506,0.0097501864656806
1761475492833387800,1.0633876953125,0.06812246888875961,0.0110960453748703,0.01621607318520546
1761475492843364900,1.07336474609375,0.06290426850318909,0.024287747219204903,0.017377745360136032
1761475492853342000,1.083342041015625,0.05858222395181656,0.01969273015856743,0.013991270214319229
1761475492863319000,1.093319091796875,0.05884208530187607,0.008171693421900272,0.011301585473120213
1761475492873297000,1.103296875,0.06911390274763107,0.003732203971594572,0.011821967549622059
1761475492883273700,1.113273681640625,0.06658336520195007,0.01667649857699871,0.013016395270824432
1761475492893250800,1.123250732421875,0.06252523511648178,0.03232549875974655,0.017620200291275978
1761475492903228200,1.133228271484375,0.059211365878582,0.02661932446062565,0.0148712657392025
1761475492913205800,1.143205810546875,0.04607399180531502,0.009707186371088028,0.008787807077169418
1761475492923182800,1.153182861328125,0.02421748824417591,-0.015729956328868866,-0.0037952703423798084
1761475492933160400,1.163160400390625,0.011024987325072289,-0.04048936441540718,-0.025898974388837814
1761475492943137300,1.17313720703125,0.007465531583875418,-0.05148009583353996,-0.041174281388521194
1761475492953115400,1.183115478515625,0.006639685481786728,-0.04681343957781792,-0.049959249794483185
1761475492963092500,1.193092529296875,0.011629321612417698,-0.021731190383434296,-0.048620909452438354
1761475492973069300,1.2030693359375,0.016082126647233963,0.012221718207001686,-0.04252679646015167
1761475492983046700,1.213046630859375,0.01658085361123085,0.038582395762205124,-0.032082799822092056
1761475492993024500,1.2230244140625,0.01579548791050911,0.05247850343585014,-0.01886633038520813
1761475493003001300,1.23300146484375,-0.0005431680474430323,0.042205601930618286,-0.012982787564396858
1761475493012978400,1.242978515625,-0.015300807543098927,0.027654092758893967,-0.0030470658093690872
1761475493022955500,1.25295556640625,-0.027443591505289078,0.03196699544787407,0.010855413973331451
1761475493032933400,1.262933349609375,-0.032058052718639374,0.05688592791557312,0.022895565256476402
1761475493042910500,1.272910400390625,-0.030879518017172813,0.06965667754411697,0.03607354313135147
1761475493052887600,1.282887451171875,-0.028954852372407913,0.06985828280448914,0.04176951199769974
1761475493062864600,1.29286474609375,-0.03026888146996498,0.07386921346187592,0.05004924535751343
1761475493072842500,1.302842529296875,-0.029816942289471626,0.06945556402206421,0.04694399982690811
1761475493082819600,1.312819580078125,-0.032484304159879684,0.047598663717508316,0.04299122840166092
1761475493092796700,1.322796630859375,-0.030793728306889534,0.023717299103736877,0.0392066091299057
1761475493102773500,1.3327734375,-0.027271941304206848,0.018006570637226105,0.039021220058202744
1761475493112751400,1.34275146484375,-0.020322423428297043,0.036912884563207626,0.03996105119585991
1761475493122728700,1.352728759765625,-0.014533509500324726,0.05181460082530975,0.037405215203762054
1761475493132705500,1.36270556640625,-0.014915140345692635,0.04253667965531349,0.025661205872893333
1761475493142682600,1.3726826171875,-0.020819082856178284,0.02557995729148388,0.016616275534033775
1761475493152660500,1.382660400390625,-0.02199327014386654,0.015630921348929405,0.01297174021601677
1761475493162637600,1.392637451171875,-0.02948717772960663,0.014129012823104858,0.01964203454554081
1761475493172614700,1.40261474609375,-0.02612174116075039,-0.004204453434795141,0.01808834634721279
1761475493182591500,1.412591552734375,-0.02292770706117153,-0.03186752647161484,0.016187472268939018
1761475493192569600,1.422569580078125,-0.01666741445660591,-0.031375374644994736,0.010808953084051609
1761475493202546700,1.432546630859375,-0.009221119806170464,-0.01606493629515171,0.009770800359547138
1761475493212523500,1.4425234375,-0.0050665889866650105,0.009841229766607285,0.011775362305343151
1761475493222500600,1.45250048828125,-0.0035031051374971867,0.022359909489750862,0.0018472718074917793
1761475493232478500,1.462478515625,-0.007180131506174803,0.011840423569083214,-0.008901513181626797
1761475493242455600,1.47245556640625,-0.013107221573591232,-0.0049773938953876495,-0.01797843538224697
1761475493252432600,1.4824326171875,-0.019438887014985085,-0.03253525123000145,-0.025716783478856087
1761475493262409500,1.492409423828125,-0.021918822079896927,-0.05030705779790878,-0.02761188894510269
1761475493272387600,1.5023876953125,-0.021265549585223198,-0.04943273961544037,-0.02206079475581646
1761475493282364400,1.512364501953125,-0.024171510711312294,-0.03579529747366905,-0.0167008638381958
1761475493292341500,1.522341552734375,-0.02595582790672779,-0.02771952748298645,-0.014004677534103394
1761475493302318600,1.532318603515625,-0.027355236932635307,-0.02514069899916649,-0.016280490905046463
1761475493312296400,1.54229638671875,-0.02171279862523079,-0.025969740003347397,-0.015310835093259811
1761475493322273500,1.5522734375,-0.02039361372590065,-0.03662800043821335,-0.010005034506320953
1761475493332250600,1.562250732421875,-0.019927559420466423,-0.028590582311153412,0.003565901191905141
1761475493342227500,1.5722275390625,-0.019024090841412544,-0.0013444449286907911,0.01385347731411457
1761475493352205600,1.58220556640625,-0.01767040602862835,0.02524615451693535,0.019656771793961525
1761475493362182400,1.592182373046875,-0.019748512655496597,0.04058485105633736,0.020208649337291718
1761475493372159500,1.602159423828125,-0.01934477686882019,0.03548835963010788,0.02052822895348072
1761475493382136600,1.612136474609375,-0.020368022844195366,0.025668712332844734,0.016064681112766266
1761475493392114400,1.622114501953125,-0.016219083219766617,0.021994348615407944,0.015603954903781414
1761475493402091500,1.632091552734375,-0.007442656438797712,0.015827909111976624,0.015557651408016682
1761475493412068400,1.642068359375,0.004162067547440529,0.005315347574651241,0.0189430620521307
1761475493422045400,1.65204541015625,0.013867096975445747,0.0006860396824777126,0.02697978913784027
1761475493432023600,1.6620234375,0.019109264016151428,0.007918119430541992,0.03624412789940834
1761475493442000400,1.67200048828125,0.02368023246526718,0.016284776851534843,0.03550824522972107
1761475493451977500,1.6819775390625,0.016558673232793808,0.03041524440050125,0.02534349076449871
1761475493461954600,1.69195458984375,0.014104529283940792,0.02643510513007641,0.004426561761647463
1761475493471932400,1.701932373046875,0.013384676538407803,0.014382969588041306,-0.012235239148139954
1761475493481909500,1.711909423828125,0.02001301571726799,0.0037804972380399704,-0.021153170615434647
1761475493491886300,1.72188623046875,0.025213636457920074,-0.007759512402117252,-0.02039576880633831
1761475493501863400,1.731863525390625,0.029938392341136932,-0.01946325972676277,-0.013919031247496605
1761475493511841500,1.741841552734375,0.03093681111931801,-0.02861388400197029,-0.011824188753962517
1761475493521818400,1.751818359375,0.025425627827644348,-0.032566431909799576,-0.009373938664793968
1761475493531795500,1.76179541015625,0.018067046999931335,-0.02614767849445343,-0.009748113341629505
1761475493541772500,1.7717724609375,0.013280014507472515,-0.01826046220958233,-0.003162648295983672
1761475493551750400,1.78175048828125,0.010644550435245037,-0.022023241966962814,-0.008144090883433819
1761475493561727500,1.7917275390625,0.013025679625570774,-0.04533218964934349,-0.006392866838723421
1761475493571704300,1.801704345703125,0.014818253926932812,-0.07019838690757751,-0.0014223430771380663
1761475493581681400,1.811681396484375,0.017481479793787003,-0.07559305429458618,0.002162502845749259
1761475493591659500,1.821659423828125,0.02167808823287487,-0.061049532145261765,0.0061167641542851925
1761475493601636400,1.83163623046875,0.02567116916179657,-0.03933938220143318,0.011548919603228569
1761475493611613400,1.841613525390625,0.02562350034713745,-0.019622402265667915,0.01666405238211155
1761475493621590300,1.85159033203125,0.02564113959670067,0.005135876126587391,0.009841994382441044
1761475493631568400,1.861568359375,0.022540420293807983,0.02153828553855419,0.011950152926146984
1761475493641545500,1.87154541015625,0.02523668482899666,0.023663150146603584,0.005757289472967386
1761475493651522300,1.881522216796875,0.024018023163080215,0.016248909756541252,0.006076602730900049
1761475493661499400,1.89149951171875,0.021339334547519684,0.009661918506026268,0.004544434137642384
1761475493671477500,1.9014775390625,0.02149060182273388,0.003612547880038619,0.00797937996685505
1761475493681454300,1.911454345703125,0.014140297658741474,0.000555927399545908,0.005248805042356253
1761475493691431400,1.921431396484375,0.008952992036938667,-0.01000244077295065,0.002742237877100706
1761475493701408500,1.931408447265625,-0.0032536680810153484,-0.031397249549627304,-0.0018890821374952793
1761475493711386400,1.941386474609375,-0.016735654324293137,-0.0327589251101017,0.00007819492748240009
1761475493721363500,1.951363525390625,-0.018854813650250435,-0.030813472345471382,0.0032050758600234985
1761475493731340300,1.96134033203125,-0.016522685065865517,-0.026241622865200043,0.011103479191660881
1761475493741317600,1.971317626953125,-0.010007730685174465,-0.022066384553909302,0.01848512329161167
1761475493751295500,1.98129541015625,-0.00475837429985404,-0.016852714121341705,0.0228580329567194
1761475493761272300,1.991272216796875,0.006494628731161356,-0.008526250720024109,0.023759637027978897
1761475493771249400,2.00124951171875,0.010280045680701733,0.004490215331315994,0.02342834137380123
1761475493781226500,2.0112265625,0.011067419312894344,0.016178855672478676,0.020002206787467003
1761475493791204400,2.021204345703125,0.006530458107590675,0.00811613630503416,0.014048975892364979
1761475493801181400,2.031181396484375,-0.001538574229925871,-0.0034896209836006165,0.008633681572973728
1761475493811158500,2.041158447265625,-0.005082176066935062,-0.018960721790790558,0.014072122983634472
1761475493821135600,2.051135498046875,-0.0071428860537707806,-0.021311553195118904,0.020457584410905838
1761475493831113500,2.061113525390625,-0.008815085515379906,-0.026503119617700577,0.02691388502717018
1761475493841090600,2.071090576171875,-0.011107781901955605,-0.036438312381505966,0.022041790187358856
1761475493851067600,2.081067626953125,-0.013902237638831139,-0.0266682431101799,0.01863401010632515
1761475493861044500,2.09104443359375,-0.008797979913651943,-0.007600600365549326,0.020063066855072975
1761475493871022300,2.101022216796875,-0.004919351544231176,0.011493731290102005,0.017544249072670937
1761475493880999700,2.110999755859375,0.000269284937530756,0.01904272846877575,0.021912097930908203
1761475493890976500,2.1209765625,-0.0011685558129101992,0.012872183695435524,0.017877142876386642
1761475493900953600,2.13095361328125,-0.003745123976841569,0.003320906078442931,0.015019159764051437
1761475493910931700,2.140931640625,-0.0008518659160472453,0.005415482446551323,0.012449742294847965
1761475493920908500,2.150908447265625,-0.004201733041554689,0.011812962591648102,0.00420233141630888
1761475493930885000,2.160885009765625,-0.005599093623459339,-0.0013347978238016367,0.00010159600788028911
1761475493940862200,2.1708623046875,-0.011083710938692093,-0.007789912633597851,-0.000786203658208251
1761475493950839300,2.18083935546875,-0.01226428896188736,-0.0019253656500950456,0.0017171676736325026
1761475493960817200,2.190817138671875,-0.010361890308558941,-0.002399161458015442,0.0020155315287411213
1761475493970794200,2.200794189453125,-0.00379054038785398,-0.01906495727598667,0.0018821072299033403
1761475493980771300,2.210771240234375,0.0016621167305856943,-0.029882365837693214,0.0025143581442534924
1761475493990748200,2.220748046875,0.00477455323562026,-0.02769324742257595,0.004360994324088097
1761475494000726300,2.230726318359375,0.005674395710229874,-0.024239011108875275,-0.0003025892947334796
1761475494010703000,2.240703125,0.003020821837708354,-0.022417141124606133,0.0033043960575014353
1761475494020680200,2.25068017578125,0.003493184456601739,-0.02624579519033432,-0.0004782172618433833
1761475494030657300,2.2606572265625,0.00008194148540496826,-0.02371951937675476,-0.012318897992372513
1761475494040635100,2.27063525390625,-0.0007256107637658715,-0.02847558632493019,-0.017567770555615425
1761475494050612200,2.2806123046875,-0.0005666200304403901,-0.031265780329704285,-0.029348796233534813
1761475494060589000,2.290589111328125,-0.0004284646129235625,-0.01879109814763069,-0.034310232847929
1761475494070566100,2.300566162109375,0.0019585266709327698,-0.0017894792836159468,-0.035543810576200485
1761475494080544300,2.310544189453125,0.0010694818338379264,0.0037639799993485212,-0.037046872079372406
1761475494090521000,2.32052099609375,0.0030277040787041187,0.003316835267469287,-0.02978016994893551
1761475494100498200,2.330498291015625,-0.0006021834560669959,-0.001132406061515212,-0.022389711812138557
1761475494110475300,2.340475341796875,0.0004074209136888385,-0.0029090007301419973,-0.017042085528373718
1761475494120453000,2.350453125,0.0037099658511579037,0.0005927437450736761,-0.006341166328638792
1761475494130430200,2.36043017578125,0.009621917270123959,0.002848174888640642,0.0031553995795547962
1761475494140407000,2.370406982421875,0.011389476247131824,0.0024231886491179466,0.006060685031116009
1761475494150384000,2.380384033203125,0.009841381572186947,-0.0024586517829447985,-0.0006595354061573744
1761475494160362200,2.3903623046875,0.002002449706196785,-0.021204451099038124,-0.009607442654669285
1761475494170339000,2.400339111328125,-0.0024266536347568035,-0.025061773136258125,-0.01593564637005329
1761475494180316200,2.410316162109375,0.000782639835961163,-0.005221845582127571,-0.017241254448890686
1761475494190293200,2.420293212890625,0.008546287193894386,0.011815727688372135,-0.014617240987718105
1761475494200271000,2.43027099609375,0.016927314922213554,0.0058740489184856415,-0.012135466560721397
1761475494210248200,2.440248291015625,0.019444534555077553,-0.0016661591362208128,-0.001900405972264707
1761475494220225000,2.45022509765625,0.01734139770269394,0.004276207648217678,0.006362307816743851
1761475494230202000,2.4602021484375,0.012369541451334953,0.0057713063433766365,0.019276507198810577
1761475494240179200,2.47017919921875,0.002802770584821701,-0.010294497944414616,0.023226067423820496
1761475494250157000,2.480156982421875,-0.0012375111691653728,-0.04085453599691391,0.02198316901922226
1761475494260134100,2.490134033203125,-0.007868721149861813,-0.04859321564435959,0.016037026420235634
1761475494270111000,2.500111083984375,-0.010434410534799099,-0.041651152074337006,0.010917364619672298
1761475494280088000,2.510088134765625,-0.02098945900797844,-0.03392881155014038,-0.0016599673544988036
1761475494290066200,2.520066162109375,-0.03050599806010723,-0.03226247429847717,-0.023970866575837135
1761475494300043000,2.53004296875,-0.03304141014814377,-0.02549477480351925,-0.04180131107568741
1761475494310020000,2.54002001953125,-0.02354404702782631,-0.014394452795386314,-0.06030229106545448
1761475494319997200,2.5499970703125,-0.015489908866584301,-0.004050404764711857,-0.06159142404794693
1761475494329975000,2.55997509765625,-0.011135907843708992,0.0032149648759514093,-0.0668727308511734
1761475494339952000,2.5699521484375,-0.004738708026707172,0.0032303009647876024,-0.0612468421459198
1761475494349929200,2.57992919921875,-0.002657447475939989,0.006302257068455219,-0.05113508552312851
1761475494359906300,2.58990625,-0.003081526607275009,0.011960593983530998,-0.03263731300830841
1761475494369884200,2.59988427734375,-0.01051733922213316,0.01485944353044033,-0.016104942187666893
1761475494379861000,2.609861083984375,-0.014349319040775299,0.003907341044396162,0.0012693695025518537
1761475494389838300,2.61983837890625,-0.015392745845019817,-0.007229465991258621,0.012290595099329948
1761475494399815200,2.629815185546875,-0.00895219761878252,-0.01440859492868185,0.016955459490418434
1761475494409793000,2.63979296875,0.0004370435781311244,-0.021087270230054855,0.02312680147588253
1761475494419770400,2.649770263671875,0.009584571234881878,-0.028009910136461258,0.018160363659262657
1761475494429747200,2.659747314453125,0.00893609132617712,-0.02556113339960575,0.013956298120319843
1761475494439724300,2.669724365234375,0.005312307737767696,-0.014188792556524277,0.006803880911320448
1761475494449702100,2.6797021484375,0.006831641308963299,0.00805392861366272,0.0004644924483727664
1761475494459679200,2.68967919921875,0.013802341185510159,0.03681689500808716,-0.0013565539848059416
1761475494469656300,2.69965625,0.021877313032746315,0.04317865148186684,-0.0031557856127619743
1761475494479633200,2.709633056640625,0.02206762321293354,0.028478190302848816,-0.012776996940374374
1761475494489610200,2.7196103515625,0.015506393276154995,0.010037662461400032,-0.016817012801766396
1761475494499588400,2.72958837890625,0.008028483018279076,0.0007127148564904928,-0.021556338295340538
1761475494509565200,2.739565185546875,0.0032494408078491688,0.0028419119771569967,-0.023274876177310944
1761475494519542300,2.749542236328125,0.0033408107701689005,-0.001325678895227611,-0.025876104831695557
1761475494529519000,2.75951904296875,0.007549670524895191,-0.014420708641409874,-0.02811768837273121
1761475494539497200,2.769497314453125,0.014548376202583313,-0.02274397760629654,-0.02717185951769352
1761475494549474300,2.779474365234375,0.023090731352567673,-0.028856730088591576,-0.019672663882374763
1761475494559451100,2.789451171875,0.02739480882883072,-0.019106870517134666,-0.012908478267490864
1761475494569428200,2.79942822265625,0.023411517962813377,0.004304978530853987,-0.006513696163892746
1761475494579406300,2.80940625,0.017519395798444748,0.01570078358054161,-0.0047365096397697926
1761475494589383200,2.819383056640625,0.014643448404967785,0.011895392090082169,-0.011258058249950409
1761475494599360300,2.8293603515625,0.014139804057776928,-0.0074213603511452675,-0.020517533645033836
1761475494609337000,2.839337158203125,0.011095810681581497,-0.031874239444732666,-0.0325654074549675
1761475494619315200,2.849315185546875,0.008302628062665462,-0.050755083560943604,-0.03678436577320099
1761475494629292300,2.859292236328125,0.013714437372982502,-0.057437486946582794,-0.031089460477232933
1761475494639269000,2.86926904296875,0.01047525554895401,-0.038587212562561035,-0.019821129739284515
1761475494649246200,2.87924609375,0.008963379077613354,-0.016395358368754387,-0.013781344518065453
1761475494659224300,2.889224365234375,0.007138906978070736,0.000351231312379241,-0.015392848290503025
1761475494669201200,2.899201171875,0.0018341564573347569,0.00959000363945961,-0.012330478988587856
1761475494679178200,2.90917822265625,0.007563394494354725,0.013082848861813545,-0.01746395416557789
1761475494689155000,2.919155029296875,0.007926116697490215,0.004607871640473604,-0.016345160081982613
1761475494699132200,2.929132080078125,0.009239649400115013,0.00017843861132860184,-0.01837885193526745
1761475494709110300,2.9391103515625,0.011123569682240486,0.0035302932374179363,-0.015374008566141129
1761475494719087000,2.949087158203125,0.0074228402227163315,0.02337324060499668,-0.010467134416103363
1761475494729064200,2.959064208984375,0.005826275330036879,0.04049470275640488,-0.0018619282636791468
1761475494739041000,2.969041015625,0.0047508729621768,0.0463181808590889,0.0023980173282325268
1761475494749019100,2.97901904296875,0.004250731319189072,0.03284258395433426,0.0026859049685299397
1761475494758996200,2.988996337890625,0.0018478832207620144,0.008159481920301914,0.0008678222075104713
1761475494768973000,2.99897314453125,-0.002241134410724044,-0.004428481683135033,0.005519832018762827
1761475494778950100,3.0089501953125,-0.0015259520150721073,-0.0011933010537177324,0.004296353552490473
1761475494788928300,3.01892822265625,0.00004637835081666708,0.009484909474849701,0.009087380021810532
1761475494798905000,3.028905029296875,0.0064649819396436214,0.006859869696199894,0.018942816182971
1761475494808882200,3.038882080078125,-0.0016957425978034735,0.0009159606415778399,0.018916184082627296
1761475494818859000,3.04885888671875,-0.006589176133275032,-0.011689076200127602,0.017760345712304115
1761475494828837000,3.058837158203125,-0.009617723524570465,-0.00905840564519167,0.016303330659866333
1761475494838814200,3.068814208984375,-0.008672631345689297,-0.0009909262880682945,0.009831239469349384
1761475494848791000,3.078791015625,-0.012818108312785625,-0.002895885379984975,-0.003021175740286708
1761475494858768100,3.08876806640625,-0.014559667557477951,-0.01547430083155632,-0.018270045518875122
1761475494868745200,3.0987451171875,-0.020542724058032036,-0.02479216828942299,-0.03136587515473366
1761475494878723000,3.10872314453125,-0.02759236842393875,-0.02766549400985241,-0.04088360816240311
1761475494888700200,3.1187001953125,-0.03059588000178337,-0.01762777380645275,-0.042025838047266006
1761475494898677000,3.128677001953125,-0.028081785887479782,0.005056366324424744,-0.03344833850860596
1761475494908654300,3.138654296875,-0.0247027687728405,0.023193025961518288,-0.022908613085746765
1761475494918632200,3.148632080078125,-0.023958494886755943,0.029694775119423866,-0.014190883375704288
1761475494928609500,3.158609619140625,-0.018250541761517525,0.006586792878806591,-0.006189148873090744
1761475494938586600,3.168586669921875,-0.015835057944059372,-0.02595500461757183,0.00280229770578444
1761475494948563500,3.1785634765625,-0.015423599630594254,-0.040596529841423035,0.014129520393908024
1761475494958541600,3.18854150390625,-0.018618980422616005,-0.039433933794498444,0.019188402220606804
1761475494968518400,3.198518310546875,-0.021090660244226456,-0.033607203513383865,0.019032340496778488
1761475494978495500,3.20849560546875,-0.02259756252169609,-0.03174398094415665,0.009993262588977814
1761475494988472600,3.21847265625,-0.02692360244691372,-0.027268005535006523,0.005099969916045666
1761475494998450400,3.228450439453125,-0.024753164499998093,-0.009395845234394073,-0.005329699255526066
1761475495008427500,3.238427490234375,-0.01818607561290264,0.012969913892447948,-0.012321828864514828
1761475495018404600,3.248404541015625,-0.011161582544445992,0.028857829049229622,-0.01614104025065899
1761475495028381700,3.258381591796875,0.0006615212187170982,0.029300712049007416,-0.02012246660888195
1761475495038358800,3.26835888671875,0.006334058940410614,0.018662547692656517,-0.02129088155925274
1761475495048336400,3.27833642578125,0.0024056301917880774,0.014098157174885273,-0.025824911892414093
1761475495058313700,3.288313720703125,-0.005644327029585838,0.006180955097079277,-0.02397904172539711
1761475495068290800,3.298290771484375,-0.01631161943078041,0.007839305326342583,-0.017319541424512863
1761475495078267600,3.308267578125,-0.017344212159514427,0.0020533965434879065,-0.007262423634529114
1761475495088245500,3.31824560546875,-0.015840591862797737,-0.01395193487405777,-0.0019384983461350203
1761475495098222600,3.32822265625,-0.012748802080750465,-0.02372283674776554,0.005217656493186951
1761475495108199700,3.33819970703125,-0.005016046576201916,-0.011997470632195473,0.014156023971736431
1761475495118176800,3.3481767578125,-0.0023028634022921324,0.003800256410613656,0.019361326470971107
1761475495128154600,3.358154541015625,0.001450329669751227,0.013976461254060268,0.016077382490038872
1761475495138131700,3.368131591796875,0.000025145418476313353,0.017616234719753265,0.011526336893439293
1761475495148108800,3.37810888671875,0.001556196715682745,0.020512953400611877,0.008898328989744186
1761475495158085600,3.388085693359375,-0.00020898622460663319,0.014584178104996681,0.002247684169560671
1761475495168062700,3.398062744140625,-0.0006814309163019061,0.0014073897618800402,-0.004814486484974623
1761475495178040600,3.40804052734375,-0.0022087537217885256,-0.0028901533223688602,-0.01480613462626934
1761475495188017700,3.418017578125,-0.000856666942127049,-0.00394183536991477,-0.029273489490151405
1761475495197994800,3.427994873046875,-0.005527072120457888,0.0007233335636556149,-0.0350533127784729
1761475495207971600,3.4379716796875,-0.006036002188920975,0.0055702864192426205,-0.03854525089263916
1761475495217949700,3.44794970703125,-0.0067583718337118626,0.012022187002003193,-0.03419503942131996
1761475495227926500,3.457926513671875,-0.009082246571779251,0.021399443969130516,-0.029326781630516052
1761475495237903600,3.467903564453125,-0.0076310895383358,0.025081263855099678,-0.018765216693282127
1761475495247880700,3.477880615234375,-0.0005510760238394141,0.013725544326007366,-0.008777298033237457
1761475495257858600,3.487858642578125,0.004963058978319168,0.0017761443741619587,-0.007121979724615812
1761475495267835600,3.497835693359375,0.00691382447257638,-0.008081546053290367,0.003846515668556094
1761475495277812700,3.507812744140625,0.005977974273264408,-0.005120967514812946,0.00652666948735714
1761475495287789600,3.51778955078125,0.007041907403618097,0.005559905432164669,0.017200352624058723
1761475495297766700,3.5277666015625,0.002650922629982233,0.012457441538572311,0.02161855436861515
1761475495307744500,3.53774462890625,0.0015505044721066952,0.01588253304362297,0.026781093329191208
1761475495317721600,3.5477216796875,0.001563840196467936,0.010112151503562927,0.02388780005276203
1761475495327698700,3.55769873046875,-0.0010055776219815016,-0.0001050662249326706,0.01925176940858364
1761475495337675500,3.567675537109375,0.0021836671512573957,0.0036698784679174423,0.011808424256742
1761475495347653600,3.577653564453125,0.002428678097203374,0.010190095752477646,0.0025137250777333975
1761475495357630700,3.587630615234375,0.004835925996303558,0.01992320828139782,-0.00333559256978333
1761475495367607600,3.597607666015625,0.0009623583173379302,0.027277261018753052,-0.009112787432968616
1761475495377584600,3.607584716796875,-0.004687804263085127,0.022318720817565918,-0.012760785408318043
1761475495387562500,3.6175625,-0.012188064865767956,0.0054494598880410194,-0.02240249328315258
1761475495397539600,3.62753955078125,-0.013666058890521526,-0.005652523599565029,-0.02391154319047928
1761475495407516700,3.6375166015625,-0.012140067294239998,-0.003197088837623596,-0.01754818670451641
1761475495417493500,3.647493408203125,-0.007574018090963364,-0.0020895437337458134,-0.012814253568649292
1761475495427471600,3.6574716796875,-0.008981765247881413,-0.016837863251566887,-0.008830697275698185
1761475495437448400,3.667448486328125,-0.015520218759775162,-0.02875707671046257,-0.010760927572846413
1761475495447425500,3.677425537109375,-0.018897905945777893,-0.034747857600450516,-0.010333490557968616
1761475495457402600,3.687402587890625,-0.01749175600707531,-0.02658100798726082,-0.008288715034723282
1761475495467379500,3.69737939453125,-0.011907107196748257,-0.012233760207891464,-0.005276679992675781
1761475495477357600,3.707357666015625,-0.006069784983992577,0.008416453376412392,-0.0027308629360049963
1761475495487334700,3.717334716796875,-0.003019933123141527,0.015975303947925568,0.0023733514826744795
1761475495497311500,3.7273115234375,-0.0012243231758475304,0.02075469307601452,0.00505862245336175
1761475495507288600,3.73728857421875,-0.0038443407975137234,0.00199432042427361,0.0051574259996414185
1761475495517266400,3.747266357421875,-0.011524631641805172,-0.009463929571211338,0.01076018437743187
1761475495527243500,3.757243408203125,-0.014427476562559605,0.016402289271354675,0.011059789918363094
1761475495537220600,3.767220703125,-0.010907377116382122,0.020391937345266342,0.006637271028012037
1761475495547197700,3.77719775390625,-0.015293870121240616,0.005869719199836254,-0.002282454166561365
1761475495557175600,3.787175537109375,-0.02095934748649597,-0.008463345468044281,0.00020695329294539988
1761475495567152400,3.79715234375,-0.026203110814094543,-0.026056719943881035,0.0030256430618464947
1761475495577129700,3.807129638671875,-0.0346829928457737,-0.02478683553636074,0.010304143652319908
1761475495587106800,3.81710693359375,-0.04090333729982376,-0.0026724794879555702,0.011288980953395367
1761475495597083600,3.827083740234375,-0.0398065447807312,0.013493787497282028,0.00801383052021265
1761475495607061500,3.8370615234375,-0.034118831157684326,0.017997724935412407,0.0014725739601999521
1761475495617038800,3.847038818359375,-0.02960263565182686,0.014953830279409885,-0.003922278061509132
1761475495627015700,3.857015625,-0.026281140744686127,0.002418331103399396,-0.003271933877840638
1761475495636992800,3.86699267578125,-0.027060355991125107,-0.003152616322040558,-0.004748011939227581
1761475495646970600,3.876970703125,-0.028908323496580124,0.003787048626691103,-0.0046279034577310085
1761475495656947700,3.88694775390625,-0.034369658678770065,0.020192749798297882,-0.005227740854024887
1761475495666924800,3.8969248046875,-0.036297522485256195,0.02426019497215748,-0.010248332284390926
1761475495676901600,3.906901611328125,-0.039988335222005844,0.019817713648080826,-0.011187996715307236
1761475495686878700,3.916878662109375,-0.03441300988197327,0.0007127274293452501,-0.01633855141699314
1761475495696856600,3.926856689453125,-0.024983949959278107,-0.027217144146561623,-0.018020307645201683
1761475495706833700,3.936833740234375,-0.016306305304169655,-0.04310636222362518,-0.013193061575293541
1761475495716810800,3.946810791015625,-0.012129442766308784,-0.032211415469646454,-0.0034375684335827827
1761475495726787600,3.95678759765625,-0.00698581337928772,-0.011486164294183254,0.0014312226558104157
1761475495736765700,3.966765625,-0.00884117092937231,0.004115465097129345,0.004900061991065741
1761475495746742800,3.97674267578125,-0.012184502556920052,0.008401822298765182,0.001936230342835188
1761475495756719600,3.9867197265625,-0.009745233692228794,-0.0020760248880833387,0.0015123855555430055
1761475495766696700,3.99669677734375,-0.007959583774209023,-0.014566250145435333,0.0035478395875543356
1761475495776673500,4.006673583984375,-0.0008754365262575448,-0.027209578081965446,0.00497798714786768
1761475495786651600,4.016651611328125,0.003451933851465583,-0.03506297245621681,0.008341292850673199
1761475495796628700,4.026628662109375,0.008744927123188972,-0.025162186473608017,0.009557626210153103
1761475495806605600,4.03660546875,0.012230206280946732,-0.013009648770093918,0.01422827783972025
1761475495816582700,4.046582763671875,0.010882879607379436,-0.0011010079178959131,0.012460981495678425
1761475495826560500,4.056560546875,0.010611237026751041,0.007563320454210043,0.012439409270882607
1761475495836537600,4.06653759765625,0.00912639033049345,0.011211519129574299,0.012429144233465195
1761475495846514700,4.0765146484375,0.011147996410727501,0.010418429039418697,0.010409136302769184
1761475495856491500,4.086491455078125,0.014245063997805119,0.01093597523868084,0.006257934030145407
1761475495866468600,4.096468505859375,0.016742577776312828,0.009546071290969849,0.005874971393495798
1761475495876446700,4.10644677734375,0.016979588195681572,0.004718497861176729,0.004308437928557396
1761475495886423600,4.116423583984375,0.016201945021748543,-0.0025977380573749542,0.008303445763885975
1761475495896400600,4.126400634765625,0.008100895211100578,-0.014847589656710625,0.01182704046368599
1761475495906377500,4.13637744140625,0.008029256016016006,-0.024048810824751854,0.016325652599334717
1761475495916355600,4.14635546875,0.008137300610542297,-0.0186538714915514,0.016332978382706642
1761475495926332700,4.156332763671875,0.009349571540951729,-0.007678719703108072,0.01703632064163685
1761475495936309200,4.166309326171875,0.010289500467479229,-0.006841172464191914,0.01541321910917759
1761475495946286300,4.176286376953125,0.004581547807902098,-0.007648643106222153,0.011595845222473145
1761475495956263400,4.186263427734375,-0.0006254250765778124,0.009074990637600422,0.011896181851625443
1761475495966241300,4.1962412109375,-0.0026576833333820105,0.026757847517728806,0.0005633659311570227
1761475495976218400,4.20621826171875,0.0011662018951028585,0.020015398040413857,-0.0026211775839328766
1761475495986195200,4.2161953125,0.00462804501876235,-0.009698024019598961,-0.005769566632807255
1761475495996172500,4.226172607421875,0.010389202274382114,-0.03024691343307495,-0.011479550041258335
1761475496006150100,4.236150146484375,0.014697663486003876,-0.03458786383271217,-0.004701538011431694
1761475496016127200,4.246127197265625,0.015820374712347984,-0.03750625252723694,0.0007631366606801748
1761475496026104600,4.2561044921875,0.004838562570512295,-0.03821225464344025,0.0004089362919330597
1761475496036081400,4.266081298828125,-0.004701994825154543,-0.027129117399454117,-0.004319342784583569
1761475496046059300,4.276059326171875,-0.006906293332576752,-0.007026246748864651,-0.0025342260487377644
1761475496056036400,4.286036376953125,-0.003342796117067337,-0.010232520289719105,-0.0019844158086925745
1761475496066013400,4.296013427734375,0.0053194016218185425,-0.022881202399730682,-0.002111448673531413
1761475496075990500,4.305990478515625,0.02221624180674553,-0.02183791808784008,-0.0017916674260050058
1761475496085967400,4.31596728515625,0.02752498723566532,-0.010421212762594223,0.012234935536980629
1761475496095945500,4.325945556640625,0.030935775488615036,0.005396459251642227,0.02093641273677349
1761475496105922600,4.335922607421875,0.028778081759810448,0.01877538114786148,0.02368958853185177
1761475496115899400,4.3458994140625,0.02045431360602379,0.015945304185152054,0.025859367102384567
1761475496125877500,4.35587744140625,0.012732744216918945,-0.0006294118938967586,0.025414885953068733
1761475496135854300,4.365854248046875,0.003856970462948084,-0.02202012576162815,0.01851230300962925
1761475496145831400,4.37583154296875,0.0010167090222239494,-0.03428291529417038,0.01701693795621395
1761475496155808500,4.38580859375,-0.0005525824963115156,-0.027727201581001282,0.01604009047150612
1761475496165786400,4.395786376953125,0.002387813525274396,-0.02014198526740074,0.015002789907157421
1761475496175763500,4.405763427734375,0.006422423757612705,-0.01555585116147995,0.012178641743957996
1761475496185740500,4.415740478515625,0.011369245126843452,-0.01507408358156681,0.008478977717459202
1761475496195717400,4.42571728515625,0.012394828721880913,-0.0035673645325005054,0.004058131016790867
1761475496205694500,4.435694580078125,0.012834782712161541,0.010162295773625374,0.003198728896677494
1761475496215672300,4.44567236328125,0.00896209292113781,0.023396968841552734,-0.0013378338189795613
1761475496225649400,4.4556494140625,0.0020269553642719984,0.015165405347943306,-0.00683300057426095
1761475496235626500,4.46562646484375,-0.008310291916131973,-0.004057197831571102,-0.009124517440795898
1761475496245603300,4.475603271484375,-0.013082942925393581,-0.014334335923194885,-0.0072845397517085075
1761475496255581400,4.48558154296875,-0.009739156812429428,-0.015278255566954613,-0.008637825027108192
1761475496265558300,4.495558349609375,-0.002996299182996154,-0.005323092453181744,-0.0029602316208183765
1761475496275535400,4.505535400390625,0.000466796598630026,0.007425631862133741,-0.007081072777509689
1761475496285512400,4.515512451171875,0.001164544839411974,0.012561537325382233,-0.011446792632341385
1761475496295489300,4.5254892578125,0.0014783835504204035,0.00579698383808136,-0.018250305205583572
1761475496305467400,4.53546728515625,0.004340216517448425,-0.013299212791025639,-0.01733684167265892
1761475496315444500,4.545444580078125,0.000003633263986557722,-0.021998882293701172,-0.014894453808665276
1761475496325421300,4.55542138671875,-0.0037748597096651793,-0.02662559226155281,-0.005906018894165754
1761475496335398400,4.5653984375,-0.0028455050196498632,-0.023863283917307854,0.0009726245189085603
1761475496345375200,4.575375244140625,-0.004350457340478897,-0.011224187910556793,0.006017716601490974
1761475496355353300,4.585353271484375,-0.003645311575382948,-0.006615524645894766,0.004145348444581032
1761475496365330400,4.595330322265625,0.0006224041571840644,-0.009706921875476837,0.0065887984819710255
1761475496375307300,4.605307373046875,0.007768532726913691,-0.007689811754971743,0.008414199575781822
1761475496385284400,4.615284423828125,0.009641533717513084,-0.0029635000973939896,0.016851093620061874
1761475496395262500,4.625262451171875,0.0032956539653241634,0.0013974111061543226,0.02282862178981304
1761475496405239300,4.6352392578125,0.0003352840431034565,0.00911818165332079,0.02986149862408638
1761475496415216400,4.64521630859375,-0.0011960219126194715,0.021316617727279663,0.023449305444955826
1761475496425193200,4.655193115234375,-0.0019225322175770998,0.024740910157561302,0.020418094471096992
1761475496435171300,4.66517138671875,0.00008223613258451223,0.0287274569272995,0.010805781930685043
1761475496445148400,4.6751484375,0.0016977096674963832,0.028995105996727943,0.005554295144975185
1761475496455125200,4.685125244140625,0.007814062759280205,0.019798975437879562,0.0009326770668849349
1761475496465102300,4.695102294921875,0.009663894772529602,0.011542110703885555,0.001325226970948279
1761475496475079400,4.705079345703125,0.006431882735341787,0.0017901479732245207,0.008664366789162159
1761475496485057300,4.715057373046875,0.0014672179240733385,-0.01583997718989849,0.0062795053236186504
1761475496495034400,4.725034423828125,-0.0035433718003332615,-0.024147851392626762,0.01226329617202282
1761475496505011200,4.73501123046875,-0.009497666731476784,-0.0276323314756155,0.010457673110067844
1761475496514988500,4.744988525390625,-0.013341240584850311,-0.017815636470913887,0.008609874173998833
1761475496524966400,4.75496630859375,-0.008895092643797398,-0.014349797740578651,0.004497154615819454
1761475496534943200,4.764943115234375,-0.006556876935064793,-0.0010180608369410038,-0.004194269888103008
1761475496544920300,4.77492041015625,-0.0017208429053425789,0.006800180766731501,-0.00856504961848259
1761475496554897400,4.7848974609375,-0.0034878398291766644,0.011237069964408875,-0.01713317632675171
1761475496564874500,4.79487451171875,0.0005686869844794273,0.016309060156345367,-0.026736268773674965
1761475496574852400,4.804852294921875,0.0017922604456543922,0.019575301557779312,-0.024949487298727036
1761475496584829400,4.814829345703125,0.004391239490360022,0.011249728500843048,-0.024718591943383217
1761475496594806500,4.824806640625,0.00909709557890892,-0.01882893778383732,-0.024935005232691765
1761475496604783400,4.834783447265625,0.013307553716003895,-0.04067724570631981,-0.020282994955778122
1761475496614761500,4.844761474609375,0.020431281998753548,-0.029990997165441513,-0.0040361820720136166
1761475496624738600,4.854738525390625,0.01708821766078472,-0.007097932510077953,0.012723889201879501
1761475496634715400,4.86471533203125,0.011342820711433887,-0.0001888154074549675,0.017208920791745186
1761475496644692500,4.8746923828125,-0.00009066233178600669,-0.0016010897234082222,0.015683995559811592
1761475496654669300,4.88466943359375,-0.0010673124343156815,-0.003005139995366335,0.009651334024965763
1761475496664647400,4.8946474609375,0.0023716273717582226,-0.0055332789197564125,0.002449347171932459
1761475496674624500,4.90462451171875,0.009612229652702808,-0.009113099426031113,-0.0030056056566536427
1761475496684601300,4.914601318359375,0.013464491814374924,-0.0052557773888111115,-0.00622270442545414
1761475496694578400,4.924578369140625,0.017173318192362785,0.0017175220418721437,-0.00391613831743598
1761475496704556500,4.934556640625,0.0159357488155365,0.0222126767039299,-0.002614385448396206
1761475496714533400,4.944533447265625,0.01319875754415989,0.032306917011737823,0.001266207778826356
1761475496724510500,4.954510498046875,0.0026063008699566126,0.03559166193008423,0.006401314865797758
1761475496734487300,4.9644873046875,-0.012152760289609432,0.024756137281656265,0.007966684177517891
1761475496744464400,4.97446435546875,-0.019425585865974426,0.007890604436397552,0.006169584114104509
1761475496754442500,4.9844423828125,-0.024856582283973694,-0.009392604231834412,-0.005061131436377764
1761475496764419300,4.99441943359375,-0.023168405517935753,-0.021826371550559998,-0.011038330383598804
1761475496774396400,5.004396484375,-0.02567039243876934,-0.025309113785624504,-0.004167276434600353
1761475496784373200,5.014373291015625,-0.03211364522576332,-0.021417969837784767,-0.004943587817251682
1761475496794351400,5.024351318359375,-0.038127388805150986,-0.011918410658836365,-0.0014326423406600952
1761475496804328400,5.034328369140625,-0.03809276595711708,-0.0019976033363491297,-0.0018622102215886116
1761475496814305300,5.04430517578125,-0.037244413048028946,0.009801031090319157,-0.008004491217434406
1761475496824282400,5.054282470703125,-0.03129491209983826,0.019996410235762596,-0.016682934015989304
1761475496834259200,5.06425927734375,-0.03473921865224838,0.011652679182589054,-0.022541292011737823
1761475496844237300,5.0742373046875,-0.03875100240111351,0.005277604795992374,-0.027368003502488136
1761475496854214400,5.08421435546875,-0.03560331463813782,-0.003861846402287483,-0.028451276943087578
1761475496864191200,5.094191162109375,-0.027716629207134247,0.005426194053143263,-0.020190950483083725
1761475496874168300,5.104168212890625,-0.020700642839074135,0.01197802647948265,-0.012428632006049156
1761475496884146400,5.114146484375,-0.01441611535847187,0.01798718422651291,-0.003422353882342577
1761475496894123300,5.124123291015625,-0.008759665302932262,0.023128898814320564,0.00460930448025465
1761475496904100400,5.134100341796875,-0.0018285226542502642,0.022541671991348267,0.010030701756477356
1761475496914077200,5.1440771484375,0.003653049934655428,0.008021225221455097,0.014585606753826141
1761475496924054300,5.15405419921875,0.013480646535754204,-0.009089850820600986,0.018813375383615494
1761475496934032100,5.1640322265625,0.015424352139234543,-0.00850318931043148,0.014209001325070858
1761475496944009200,5.17400927734375,0.018438518047332764,-0.006407280918210745,0.012538399547338486
1761475496953986300,5.183986328125,0.02773568220436573,0.002664275700226426,0.003811822272837162
1761475496963963400,5.19396337890625,0.032589029520750046,0.009534964337944984,-0.00420296099036932
1761475496973941200,5.203941162109375,0.031030189245939255,-0.00202813558280468,-0.00669491570442915
1761475496983918300,5.21391845703125,0.031219806522130966,-0.009866351261734962,-0.011186337098479271
1761475496993895200,5.223895263671875,0.031133806332945824,-0.011527740396559238,-0.004863227251917124
1761475497003872500,5.23387255859375,0.029693303629755974,-0.007796652149409056,-0.004203029442578554
1761475497013849300,5.243849365234375,0.02761864848434925,-0.009046345949172974,0.00015806553710717708
1761475497023827200,5.2538271484375,0.027404263615608215,-0.0038968578446656466,0.00045980169670656323
1761475497033804500,5.263804443359375,0.027066783979535103,-0.009024446830153465,-0.0005409154109656811
1761475497043781400,5.273781494140625,0.028574932366609573,-0.00965668074786663,-0.000954504357650876
1761475497053758500,5.283758544921875,0.029489876702427864,-0.010235793888568878,-0.005383675452321768
1761475497063735300,5.2937353515625,0.03137219697237015,-0.022240525111556053,-0.007256410084664822
1761475497073713400,5.30371337890625,0.027956031262874603,-0.022728383541107178,-0.0023452399764209986
1761475497083690500,5.3136904296875,0.023772738873958588,-0.01707742176949978,0.003713717684149742
1761475497093667300,5.323667236328125,0.01724662259221077,-0.015110192820429802,0.007422768510878086
1761475497103644400,5.33364453125,0.015247121453285217,-0.02345121279358864,0.010225744917988777
1761475497113622500,5.34362255859375,0.01010666973888874,-0.030002478510141373,0.003336180467158556
1761475497123599400,5.353599365234375,0.004506574012339115,-0.028377950191497803,0.004673619754612446
1761475497133576400,5.363576416015625,-0.0026434697210788727,-0.02404835820198059,0.0020673510152846575
1761475497143553300,5.37355322265625,-0.014572832733392715,-0.03335743770003319,-0.004211051389575005
1761475497153530400,5.3835302734375,-0.011756949126720428,-0.027579234912991524,-0.005240228027105331
1761475497163508500,5.393508544921875,-0.0050079659558832645,-0.022957585752010345,-0.004887359216809273
1761475497173485300,5.4034853515625,-0.0017805196112021804,-0.013424316421151161,-0.00627240352332592
1761475497183462400,5.41346240234375,-0.004228763282299042,-0.018609492108225822,-0.009622660465538502
1761475497193439200,5.423439208984375,-0.007082912139594555,-0.020260430872440338,-0.014594716019928455
1761475497203417300,5.433417236328125,-0.006530306302011013,-0.013405455276370049,-0.0161041971296072
1761475497213394400,5.44339453125,-0.0030951532535254955,0.0014851388987153769,-0.01500900462269783
1761475497223371300,5.453371337890625,0.0003866635961458087,0.022650079801678658,-0.009243261069059372
1761475497233348400,5.463348388671875,0.0010850027902051806,0.026788834482431412,-0.00872191321104765
1761475497243325200,5.4733251953125,-0.004429871216416359,0.004383394960314035,-0.00854428019374609
1761475497253303300,5.48330322265625,-0.008476050570607185,-0.030003121122717857,-0.00955621525645256
1761475497263280400,5.4932802734375,-0.009066473692655563,-0.038468778133392334,-0.007528217975050211
1761475497273257200,5.50325732421875,-0.005027828738093376,-0.0318806990981102,-0.0013405636418610811
1761475497283234300,5.513234375,-0.0019148597493767738,-0.0046227118000388145,0.003226491389796138
1761475497293211100,5.523211181640625,0.0020723273046314716,0.010232682339847088,0.003556356765329838
1761475497303189200,5.533189208984375,0.0026912458706647158,0.02019929513335228,-0.0008423865074291825
1761475497313166300,5.543166259765625,0.0061839488334953785,0.0037734690122306347,-0.008705499581992626
1761475497323143200,5.55314306640625,0.006804998032748699,-0.01139935851097107,-0.0034129999112337828
1761475497333120300,5.563120361328125,0.010905278846621513,-0.019509121775627136,0.004514566622674465
1761475497343098400,5.573098388671875,0.011779594235122204,-0.01952296867966652,0.011218275874853134
1761475497353075200,5.5830751953125,0.01088138297200203,-0.009877238422632217,0.023599641397595406
1761475497363052300,5.59305224609375,0.0046040453016757965,-0.006130702793598175,0.027614090591669083
1761475497373029000,5.603029052734375,-0.0026265671476721764,-0.007019632495939732,0.0225200317800045
1761475497383006200,5.613006103515625,-0.0060090478509664536,-0.007750670425593853,0.01666533760726452
1761475497392984300,5.622984375,-0.007360660471022129,-0.02001046948134899,0.008934013545513153
1761475497402961200,5.632961181640625,-0.010121027007699013,-0.022627558559179306,0.0012902081944048405
1761475497412938200,5.642938232421875,-0.005586802028119564,-0.013593345880508423,0.0010472668800503016
1761475497422915300,5.652915283203125,-0.008080320432782173,0.005356110166758299,-0.004899305757135153
1761475497432892400,5.662892333984375,-0.009876230731606483,0.022450309246778488,-0.004726307466626167
1761475497442870300,5.672870361328125,-0.008910035714507103,0.02462637796998024,-0.005532712675631046
1761475497452847400,5.682847412109375,-0.010257349349558353,0.016582408919930458,-0.006578236352652311
1761475497462824400,5.692824462890625,-0.013090419583022594,0.007032314315438271,-0.005339600145816803
1761475497472801300,5.70280126953125,-0.013091536238789558,-0.007825599983334541,-0.00890620332211256
1761475497482779400,5.712779296875,-0.013943747617304325,-0.013489877805113792,-0.0031511124689131975
1761475497492756500,5.722756591796875,-0.011857423931360245,-0.020005233585834503,-0.0004026554524898529
1761475497502733300,5.7327333984375,-0.014007925987243652,-0.014099674299359322,0.010864912532269955
1761475497512710400,5.74271044921875,-0.010448344983160496,-0.0006754782516509295,0.013497713021934032
1761475497522687500,5.7526875,-0.011668872088193893,0.012184660881757736,0.014676694758236408
1761475497532665300,5.762665283203125,-0.006883668713271618,0.017675545066595078,0.012651752680540085
1761475497542642400,5.772642333984375,-0.00652307691052556,0.014596931636333466,0.002904583467170596
1761475497552619300,5.782619384765625,-0.005694644991308451,-0.002950465539470315,-0.012770118191838264
1761475497562596400,5.792596435546875,-0.009696044959127903,-0.02237236686050892,-0.018711097538471222
1761475497572573400,5.802573486328125,-0.01322669442743063,-0.027591081336140633,-0.02287132292985916
1761475497582551300,5.81255126953125,-0.022084634751081467,-0.023651733994483948,-0.02230673097074032
1761475497592528400,5.8225283203125,-0.02240120619535446,-0.01824728585779667,-0.025554057210683823
1761475497602505200,5.832505126953125,-0.02395249716937542,-0.008249780163168907,-0.03108171373605728
1761475497612482300,5.842482421875,-0.017495548352599144,0.00041788630187511444,-0.03401245176792145
1761475497622460400,5.85246044921875,-0.016887282952666283,0.0191660076379776,-0.03539995849132538
1761475497632437200,5.862437255859375,-0.010078470222651958,0.030828338116407394,-0.03174373507499695
1761475497642414300,5.872414306640625,-0.0011478257365524769,0.033829718828201294,-0.029494695365428925
1761475497652391400,5.882391357421875,0.007883582264184952,0.025007452815771103,-0.027303608134388924
1761475497662368300,5.8923681640625,0.01088203489780426,0.01698414795100689,-0.01957697793841362
1761475497672346400,5.902346435546875,0.010114071890711784,0.005995596293359995,-0.01506822183728218
1761475497682323200,5.9123232421875,0.011553777381777763,-0.0014692437835037708,-0.007299781311303377
1761475497692300300,5.92230029296875,0.008822686970233917,-0.007452990859746933,0.00013846052752342075
1761475497702277400,5.93227734375,0.008692191913723946,-0.006731806788593531,0.004838939756155014
1761475497712254200,5.942254150390625,0.003190405899658799,-0.00039929477497935295,0.00017674473929218948
1761475497722232300,5.952232421875,0.0007815766148269176,-0.0011300662299618125,-0.002661918755620718
1761475497732209200,5.962209228515625,0.0028728605248034,0.01106962189078331,-0.004740351811051369
1761475497742186200,5.972186279296875,0.011908432468771935,0.028055263683199883,-0.004761124961078167
1761475497752163300,5.982163330078125,0.022017715498805046,0.02208729088306427,-0.0045964098535478115
1761475497762141200,5.99214111328125,0.025859590619802475,0.0069919610396027565,-0.014104161411523819
1761475497772118300,6.0021181640625,0.013119620271027088,-0.002514786785468459,-0.016739726066589355
1761475497782095400,6.012095458984375,0.007231636438518763,-0.013835618272423744,-0.02626185677945614
1761475497792072200,6.022072265625,-0.0019189845770597458,-0.01538078486919403,-0.02820543199777603
1761475497802049300,6.03204931640625,-0.0022521461360156536,-0.008864561095833778,-0.03355838358402252
1761475497812027100,6.042027099609375,0.0020364196971058846,0.005537109449505806,-0.027304882183670998
1761475497822004200,6.052004150390625,0.01076386496424675,0.023029018193483353,-0.022612659260630608
1761475497831981300,6.061981201171875,0.013439750298857689,0.02195795625448227,-0.025703690946102142
1761475497841958400,6.07195849609375,0.0012019930873066187,-0.004766598343849182,-0.02953464724123478
1761475497851935500,6.081935546875,-0.0047765630297362804,-0.02920478582382202,-0.040726352483034134
1761475497861913000,6.0919130859375,-0.013294684700667858,-0.03118244931101799,-0.04435837268829346
1761475497871890400,6.101890380859375,-0.01011721882969141,-0.007484395056962967,-0.02870929054915905
1761475497881867500,6.111867431640625,-0.004732572939246893,0.009756909683346748,-0.01727207750082016
1761475497891844400,6.12184423828125,0.0006717190844938159,0.017058225348591805,-0.006427398882806301
1761475497901821400,6.131821533203125,0.004832109436392784,0.01302513387054205,-0.0019144064281135798
1761475497911799600,6.141799560546875,0.009383282624185085,0.0067930566146969795,-0.0035367016680538654
1761475497921776400,6.1517763671875,0.010592889972031116,-0.0012440972495824099,-0.009771960787475109
1761475497931753700,6.161753662109375,0.006088611204177141,-0.0005021677352488041,-0.01495186798274517
1761475497941730800,6.171730712890625,-0.004483872093260288,0.00011701718904078007,-0.02109471522271633
1761475497951708700,6.181708740234375,-0.0100609315559268,-0.001709679258055985,-0.029156673699617386
1761475497961685800,6.191685791015625,-0.010040958411991596,-0.010092245414853096,-0.030889859423041344
1761475497971662800,6.201662841796875,-0.006352252326905727,-0.01384415477514267,-0.038373012095689774
1761475497981639700,6.2116396484375,-0.0007918381597846746,-0.0022897636517882347,-0.03557349741458893
1761475497991616800,6.22161669921875,0.0009863293962553144,0.009483848698437214,-0.037574637681245804
1761475498001595000,6.231594970703125,-0.00508967274799943,0.019032612442970276,-0.03416472300887108
1761475498011571700,6.24157177734375,-0.014505786821246147,0.03360618278384209,-0.032732702791690826
1761475498021548800,6.251548828125,-0.018721571192145348,0.025727756321430206,-0.030059687793254852
1761475498031525600,6.261525634765625,-0.018684513866901398,0.0034888111986219883,-0.029751891270279884
1761475498041502700,6.271502685546875,-0.019513554871082306,-0.02346930280327797,-0.029765473678708076
1761475498051480800,6.281480712890625,-0.01877734623849392,-0.038112349808216095,-0.03136071190237999
1761475498061457700,6.291457763671875,-0.01751500740647316,-0.031013431027531624,-0.025367267429828644
1761475498071434800,6.301434814453125,-0.015248540788888931,-0.009299400262534618,-0.01847698912024498
1761475498081411600,6.31141162109375,-0.016310609877109528,0.0022637785878032446,-0.016891876235604286
1761475498091388700,6.321388671875,-0.020536266267299652,0.004466519225388765,-0.021195590496063232
1761475498101366800,6.33136669921875,-0.01824195310473442,-0.003432150464504957,-0.025260373950004578
1761475498111343600,6.341343505859375,-0.018219107761979103,0.0025879868771880865,-0.03675953671336174
1761475498121320700,6.35132080078125,-0.007867935113608837,0.01064511388540268,-0.03697924688458443
1761475498131297500,6.361297607421875,0.005724499933421612,0.017275026068091393,-0.038023270666599274
1761475498141275600,6.371275634765625,0.015194167383015156,0.021517176181077957,-0.032482560724020004
1761475498151252700,6.381252685546875,0.011420827358961105,0.01471751183271408,-0.03070807084441185
1761475498161229600,6.3912294921875,-0.0005641958559863269,0.0020690939854830503,-0.026326104998588562
1761475498171206700,6.40120654296875,-0.019437426701188087,-0.009710592217743397,-0.023217149078845978
1761475498181183500,6.41118359375,-0.030855730175971985,-0.01685239188373089,-0.015024201013147831
1761475498191161600,6.42116162109375,-0.032009199261665344,-0.027222946286201477,-0.014946606010198593
1761475498201138700,6.431138671875,-0.02802111580967903,-0.034312281757593155,-0.013848850503563881
1761475498211115500,6.441115478515625,-0.019993191584944725,-0.03062521666288376,-0.01365894265472889
1761475498221092600,6.451092529296875,-0.022153813391923904,-0.01566411182284355,-0.015333537943661213
1761475498231069700,6.461069580078125,-0.022935776039958,0.006151501089334488,-0.012601036578416824
1761475498241047600,6.471047607421875,-0.023253757506608963,0.03126777336001396,-0.006073895376175642
1761475498251024600,6.481024658203125,-0.02033795416355133,0.040028590708971024,-0.0036110305227339268
1761475498261001500,6.49100146484375,-0.015838278457522392,0.025774819776415825,-0.005326638463884592
1761475498270978800,6.500978759765625,-0.017912043258547783,-0.0024008441250771284,-0.007288121618330479
1761475498280956000,6.510955810546875,-0.019251082092523575,-0.02011192962527275,-0.003991927020251751
1761475498290933500,6.52093359375,-0.028287533670663834,-0.026703685522079468,-0.004637422505766153
1761475498300910600,6.53091064453125,-0.03908079117536545,-0.02550286427140236,-0.007594862952828407
1761475498310887700,6.5408876953125,-0.04484177753329277,-0.026880232617259026,-0.009287429042160511
1761475498320864800,6.55086474609375,-0.04617655277252197,-0.02287350594997406,-0.01664121448993683
1761475498330841900,6.560841796875,-0.0415116623044014,-0.019102217629551888,-0.019316788762807846
1761475498340819700,6.57081982421875,-0.0323764868080616,-0.009150517173111439,-0.016120461747050285
1761475498350796800,6.580796875,-0.03402877226471901,0.006009056232869625,-0.006278654094785452
1761475498360774000,6.59077392578125,-0.04439512640237808,0.005556585267186165,0.0007763259345665574
1761475498370750700,6.600750732421875,-0.058925848454236984,-0.03585781157016754,0.003675677115097642
1761475498380727800,6.610727783203125,-0.07703907042741776,-0.07924869656562805,0.0065630762837827206
1761475498390705700,6.62070556640625,-0.08946175128221512,-0.12131810188293457,0.010137999430298805
1761475498400682800,6.630682861328125,-0.07936197519302368,-0.13420167565345764,0.013706369325518608
1761475498410659800,6.640659912109375,-0.049477409571409225,-0.10170124471187592,0.022405480965971947
1761475498420636700,6.65063671875,-0.02724427543580532,-0.04478922858834267,0.02922663651406765
1761475498430614800,6.66061474609375,-0.014022421091794968,-0.028858454897999763,0.023855021223425865
1761475498440592000,6.670591796875,-0.024174923077225685,-0.055042121559381485,0.003503677435219288
1761475498450568700,6.680568603515625,-0.0446641631424427,-0.09200925379991531,-0.029534796252846718
1761475498460545800,6.6905458984375,-0.06607864052057266,-0.12554031610488892,-0.05601833760738373
1761475498470522600,6.700522705078125,-0.0771680623292923,-0.15168745815753937,-0.07820358127355576
1761475498480500700,6.710500732421875,-0.09207644313573837,-0.1631808578968048,-0.0836084634065628
1761475498490477800,6.720477783203125,-0.08658011257648468,-0.13635006546974182,-0.08887236565351486
1761475498500454700,6.73045458984375,-0.06712465733289719,-0.10230980068445206,-0.08407042175531387
1761475498510431700,6.740431640625,-0.046847403049468994,-0.053148053586483,-0.08096428215503693
1761475498520408600,6.75040869140625,-0.035718318074941635,-0.025379540398716927,-0.07939781248569489
1761475498530386700,6.76038671875,-0.03547018766403198,-0.010016855783760548,-0.07404278218746185
1761475498540363800,6.77036376953125,-0.03339745104312897,0.009740869514644146,-0.07262624055147171
1761475498550340600,6.780340576171875,-0.0331343337893486,0.016646910458803177,-0.06341364979743958
1761475498560317700,6.790317626953125,-0.02620238997042179,0.03445413336157799,-0.058471888303756714
1761475498570294500,6.80029443359375,-0.022663580253720284,0.030455734580755234,-0.05661105737090111
1761475498580272600,6.810272705078125,-0.023230301216244698,0.008833264000713825,-0.05001334473490715
1761475498590249700,6.820249755859375,-0.02474908158183098,-0.0028035270515829325,-0.048970215022563934
1761475498600226600,6.8302265625,-0.020745553076267242,-0.005301838740706444,-0.03997938334941864
1761475498610203600,6.84020361328125,-0.022305041551589966,0.00699631217867136,-0.035680871456861496
1761475498620180500,6.850180419921875,-0.022613968700170517,0.021451683714985847,-0.034768205136060715
1761475498630158600,6.86015869140625,-0.02596435695886612,0.018951740115880966,-0.030163375660777092
1761475498640135700,6.8701357421875,-0.032142892479896545,0.006349395029246807,-0.022608786821365356
1761475498650112500,6.880112548828125,-0.0352574959397316,-0.005581880919635296,-0.017142849043011665
1761475498660089900,6.89008984375,-0.03290272876620293,-0.0025141858495771885,-0.011114785447716713
1761475498670066700,6.900066650390625,-0.0240296870470047,0.006809178739786148,-0.0018415289232507348
1761475498680044500,6.91004443359375,-0.02276335284113884,0.0174248069524765,0.0028927724342793226
1761475498690021600,6.920021728515625,-0.02486078254878521,0.002449413761496544,0.004464440513402224
1761475498699998700,6.929998779296875,-0.02491990476846695,-0.00966983288526535,-0.002664308762177825
1761475498709975800,6.939975830078125,-0.02688463404774666,-0.019623806700110435,-0.013486135751008987
1761475498719953700,6.94995361328125,-0.026490220800042152,-0.03383816406130791,-0.02155870944261551
1761475498729930800,6.9599306640625,-0.020086629316210747,-0.045359641313552856,-0.02387169748544693
1761475498739907800,6.969907958984375,-0.012115522287786007,-0.03372535482048988,-0.024332422763109207
1761475498749884700,6.979884765625,-0.0014973266515880823,-0.030383003875613213,-0.016679324209690094
1761475498759861800,6.98986181640625,0.0023461473174393177,-0.03471250832080841,-0.020281249657273293
1761475498769838800,6.9998388671875,-0.0036292443983256817,-0.044276922941207886,-0.027936674654483795
1761475498779816700,7.009816650390625,-0.012861624360084534,-0.04659067839384079,-0.04089827835559845
1761475498789793800,7.019793701171875,-0.021626334637403488,-0.0321737639605999,-0.04537162184715271
1761475498799770600,7.0297705078125,-0.022745661437511444,-0.005430565215647221,-0.044741254299879074
1761475498809747700,7.039747802734375,-0.016875123605132103,0.009785973466932774,-0.04374918341636658
1761475498819725800,7.049725830078125,-0.006608370691537857,0.005723320879042149,-0.04022688418626785
1761475498829702700,7.05970263671875,-0.005152516532689333,-0.01888713240623474,-0.039336346089839935
1761475498839679700,7.0696796875,-0.018696822226047516,-0.03644668310880661,-0.051191940903663635
1761475498849656600,7.079656494140625,-0.03908141702413559,-0.04266439005732536,-0.06624214351177216
1761475498859633700,7.089633544921875,-0.04505808278918266,-0.03583364933729172,-0.07945328950881958
1761475498869611800,7.09961181640625,-0.04796887934207916,-0.023045703768730164,-0.09177801012992859
1761475498879588600,7.109588623046875,-0.049369700253009796,-0.019077327102422714,-0.09588859975337982
1761475498889565700,7.119565673828125,-0.06189386174082756,-0.021369850262999535,-0.10174781084060669
1761475498899542800,7.129542724609375,-0.07703766226768494,-0.03741779178380966,-0.11183027178049088
1761475498909519600,7.13951953125,-0.087917760014534,-0.051620855927467346,-0.11205874383449554
1761475498919497700,7.149497802734375,-0.09165231138467789,-0.04209126532077789,-0.10254459828138351
1761475498929474600,7.159474609375,-0.09127415716648102,-0.022627105936408043,-0.0893770158290863
1761475498939450600,7.16945068359375,-0.09012900292873383,0.003964024595916271,-0.06609273701906204
1761475498949427700,7.179427734375,-0.08212611079216003,0.00793471373617649,-0.04467370733618736
1761475498959404500,7.189404541015625,-0.06759537011384964,0.0009007726330310106,-0.016945404931902885
1761475498969382400,7.19938232421875,-0.04926231876015663,-0.005448857322335243,0.007796500809490681
1761475498979359700,7.20935986328125,-0.03325458988547325,-0.009253183379769325,0.03304513171315193
1761475498989336600,7.219336669921875,-0.030638376250863075,0.0011956326197832823,0.04826895520091057
1761475498999313700,7.229313720703125,-0.03488052636384964,0.014826755970716476,0.05862439051270485
1761475499009290500,7.23929052734375,-0.03767457976937294,0.011296168901026249,0.05757772549986839
1761475499019268600,7.2492685546875,-0.04652080312371254,-0.010823514312505722,0.04003202170133591
1761475499029245700,7.25924560546875,-0.04355364292860031,-0.03015483357012272,0.025333277881145477
1761475499039222500,7.269222412109375,-0.03839457035064697,-0.02341943234205246,0.018990427255630493
1761475499049199600,7.27919970703125,-0.03256279602646828,-0.00678149051964283,0.020873047411441803
1761475499059176700,7.2891767578125,-0.03573142737150192,-0.004447762854397297,0.02459588088095188
1761475499069154600,7.299154541015625,-0.030272649601101875,0.008669891394674778,0.0285840705037117
1761475499079131600,7.309131591796875,-0.01609557867050171,0.016673222184181213,0.025607455521821976
1761475499089108500,7.3191083984375,-0.003091951599344611,0.010179431177675724,0.025042694061994553
1761475499099085600,7.32908544921875,0.004418961703777313,-0.014977587386965752,0.023389937356114388
1761475499109062700,7.339062744140625,-0.00148264120798558,-0.03881372511386871,0.0189190860837698
1761475499119040500,7.34904052734375,-0.008424703031778336,-0.042552269995212555,0.019282342866063118
1761475499129017600,7.359017578125,-0.01473848707973957,-0.030879322439432144,0.018036184832453728
1761475499138994400,7.368994384765625,-0.01683253049850464,-0.013127222657203674,0.010973215103149414
1761475499148971500,7.378971435546875,-0.010944358073174953,-0.008239885792136192,0.010514747351408005
1761475499158948600,7.388948486328125,-0.004897650796920061,-0.016036024317145348,0.010325130075216293
1761475499168926500,7.398926513671875,-0.00588191905990243,-0.03498642519116402,0.0062819416634738445
1761475499178903600,7.408903564453125,-0.008019371889531612,-0.045440398156642914,0.003019569208845496
1761475499188880600,7.418880615234375,-0.009933803230524063,-0.044719941914081573,-0.003530754242092371
1761475499198857500,7.428857421875,-0.0033736382611095905,-0.02597474679350853,0.0033274181187152863
1761475499208834600,7.43883447265625,-0.0035440996289253235,-0.008171673864126205,0.004530932754278183
1761475499218812400,7.4488125,0.001604856108315289,0.0023406222462654114,0.007100084330886602
1761475499228789500,7.45878955078125,-0.0004249674966558814,-0.0030109514482319355,0.0032504210248589516
1761475499238766600,7.4687666015625,-0.002844715490937233,-0.003916160203516483,0.0030392322223633528
1761475499248743400,7.478743408203125,-0.009700302965939045,-0.00005912734195590019,0.003034121822565794
1761475499258720500,7.488720458984375,-0.01373019814491272,0.005360937677323818,0.0038754146080464125
1761475499268698400,7.498698486328125,-0.014337016269564629,0.0050230552442371845,-0.0014381377259269357
1761475499278675500,7.508675537109375,-0.012741250917315483,-0.005286574363708496,-0.00934026949107647
1761475499288652500,7.518652587890625,-0.009778408333659172,-0.009849537163972855,-0.00634939968585968
1761475499298629600,7.528629638671875,-0.0070715718902647495,-0.009889484383165836,-0.004245768766850233
1761475499308606700,7.538606689453125,-0.005186166614294052,-0.004352386109530926,0.0007204180583357811
1761475499318584600,7.54858447265625,-0.0070551736280322075,-0.00017841346561908722,0.00500118313357234
1761475499328561700,7.558561767578125,-0.004200436640530825,-0.014369877986609936,0.0013253293000161648
1761475499338538800,7.568538818359375,-0.00489552179351449,-0.018793389201164246,0.000796691922005266
1761475499348515600,7.578515625,-0.0011955731315538287,-0.008732341229915619,0.0033522294834256172
1761475499358492700,7.58849267578125,0.00369798531755805,0.00537362415343523,0.014449355192482471
1761475499368470800,7.598470703125,0.006692026276141405,0.012334667146205902,0.015089035034179688
1761475499378447600,7.608447509765625,0.0094771608710289,0.007943380624055862,0.02311287261545658
1761475499388424700,7.6184248046875,0.0018553456757217646,-0.0069856466725468636,0.017036262899637222
1761475499398401500,7.628401611328125,0.0003200334031134844,-0.014908550307154655,0.020854704082012177
1761475499408378600,7.638378662109375,-0.00502280006185174,-0.01237721648067236,0.01275549829006195
1761475499418356700,7.648356689453125,-0.0010757292620837688,-0.01470109075307846,0.0070275720208883286
1761475499428333600,7.65833349609375,0.007547528017312288,-0.014672461897134781,0.00311077618971467
1761475499438310700,7.668310546875,0.012229631654918194,-0.0033106175251305103,0.006721490062773228
1761475499448287500,7.67828759765625,0.015409029088914394,0.009322692640125751,0.00619816780090332
1761475499458264600,7.6882646484375,0.008784148842096329,0.021266702562570572,0.009517265483736992
1761475499468242700,7.69824267578125,0.00635793199762702,0.02715785801410675,0.009241576306521893
1761475499478219500,7.708219482421875,0.008769157342612743,0.021484792232513428,0.005679598078131676
1761475499488196600,7.718196533203125,0.01889491267502308,-0.0019497652538120747,0.0030348266009241343
1761475499498173400,7.72817333984375,0.022675270214676857,-0.017825400456786156,0.00335547118447721
1761475499508150500,7.738150634765625,0.020338671281933784,-0.02409062162041664,0.0023755088914185762
1761475499518128600,7.748128662109375,0.013532697223126888,-0.020215988159179688,0.005285811610519886
1761475499528105500,7.75810546875,0.008006352931261063,-0.0075208572670817375,0.013515809550881386
1761475499538082600,7.76808251953125,0.004803102929145098,-0.0041426378302276134,0.01563914865255356
1761475499548059400,7.778059326171875,0.005849364213645458,-0.013815492391586304,0.017585013061761856
1761475499558036500,7.788036376953125,0.0020719366148114204,-0.02221536822617054,0.019084371626377106
1761475499568014600,7.7980146484375,0.005452647805213928,-0.02038872055709362,0.016106799244880676
1761475499577991400,7.807991455078125,0.006010846234858036,-0.007627117447555065,0.012285429053008556
1761475499587968500,7.817968505859375,0.00047036845353432,-0.014267491176724434,0.003052846295759082
1761475499597945300,7.8279453125,-0.004345425870269537,-0.02826905995607376,-0.009560151025652885
1761475499607922400,7.83792236328125,-0.01354416087269783,-0.03864121064543724,-0.021695710718631744
1761475499617900500,7.847900634765625,-0.016982832923531532,-0.025606902316212654,-0.02865241840481758
1761475499627877400,7.85787744140625,-0.009478420950472355,-0.0011294764699414372,-0.02930852398276329
1761475499637854500,7.8678544921875,-0.004669019021093845,0.012238793075084686,-0.028917038813233376
1761475499647831600,7.87783154296875,-0.00008195603732019663,0.021933354437351227,-0.028436845168471336
1761475499657808600,7.88780859375,0.006708571687340736,0.032703712582588196,-0.025835203006863594
1761475499667786500,7.897786376953125,0.012842634692788124,0.030112914741039276,-0.01640663668513298
1761475499677763600,7.907763671875,0.011121699586510658,0.01778886839747429,-0.011340772733092308
1761475499687740700,7.91774072265625,0.005832812748849392,0.0028519253246486187,-0.00319601409137249
1761475499697717800,7.9277177734375,-0.003469875082373619,-0.012683091685175896,0.011318214237689972
1761475499707694600,7.937694580078125,-0.011814016848802567,-0.01967592164874077,0.027877090498805046
1761475499717671700,7.947671630859375,-0.014285163953900337,-0.017475353553891182,0.040977977216243744
1761475499727649500,7.9576494140625,-0.009355821646749973,-0.010612206533551216,0.04732777178287506
1761475499737626600,7.967626708984375,-0.009949173778295517,-0.009573839604854584,0.036225318908691406
1761475499747603700,7.977603759765625,-0.007674740627408028,-0.011249778792262077,0.017126301303505898
1761475499757580500,7.98758056640625,-0.005360187031328678,-0.0077123017981648445,-0.0013941192300990224
1761475499767557600,7.9975576171875,-0.001332156010903418,0.0010638791136443615,-0.013854783959686756
1761475499777534500,8.007534423828124,-0.0007356078131124377,0.01147470809519291,-0.024609960615634918
1761475499787512600,8.0175126953125,-0.002988034626469016,0.024041464552283287,-0.02981629967689514
1761475499797489700,8.02748974609375,-0.003513209754601121,0.03468265384435654,-0.031816866248846054
1761475499807466500,8.037466552734376,-0.005058109760284424,0.04308732599020004,-0.03725957125425339
1761475499817443600,8.047443603515624,-0.004940930753946304,0.04531026631593704,-0.04489884525537491
1761475499827420400,8.05742041015625,-0.0020995065569877625,0.04161238297820091,-0.04348362237215042
1761475499837398500,8.0673984375,0.003227348206564784,0.05874556303024292,-0.03970219939947128
1761475499847375600,8.077375732421874,0.010056653991341591,0.05769484117627144,-0.032910529524087906
1761475499857352400,8.0873525390625,0.00902467966079712,0.041425857692956924,-0.028439881280064583
1761475499867329500,8.09732958984375,0.01564091257750988,0.03128921985626221,-0.015933286398649216
1761475499877306400,8.107306396484375,0.022406140342354774,0.014736874960362911,-0.00563670601695776
1761475499887284500,8.117284423828124,0.024015050381422043,0.0039795562624931335,0.004085537977516651
1761475499897261600,8.127261474609375,0.02376604452729225,-0.003473566146567464,0.018838385120034218
1761475499907238400,8.13723828125,0.019814446568489075,-0.007945013232529163,0.02101472020149231
1761475499917215500,8.147215576171876,0.01954040676355362,-0.014497455209493637,0.02602519281208515
1761475499927192600,8.157192626953124,0.020953398197889328,-0.016292447224259377,0.026336735114455223
1761475499937169700,8.167169677734375,0.015405235812067986,-0.009047584608197212,0.02486853487789631
1761475499947147800,8.177147705078125,0.011606793850660324,0.004139672964811325,0.013834932819008827
1761475499957124600,8.18712451171875,0.004074042197316885,0.010925406590104103,0.0014464400010183454
1761475499967101700,8.197101806640624,0.0010495276656001806,0.008021811954677105,-0.017185363918542862
1761475499977078800,8.207078857421875,0.004326014779508114,-0.0033355052582919598,-0.025443559512495995
1761475499987055900,8.217055908203125,0.00986529141664505,-0.01734684221446514,-0.026338664814829826
1761475499997033700,8.22703369140625,0.009977410547435284,-0.007660659030079842,-0.023747408762574196
1761475500007010800,8.2370107421875,0.007353669032454491,0.009905742481350899,-0.0184137225151062
1761475500016988000,8.24698779296875,0.0074372924864292145,0.034013476222753525,-0.013635478913784027
1761475500026964700,8.25696484375,0.003805992892012,0.046295952051877975,-0.007048198953270912
1761475500036941800,8.26694189453125,0.0034118450712412596,0.03561454638838768,-0.005300366319715977
1761475500046920000,8.276919921875,0.006848636083304882,0.007273560855537653,-0.0006978600285947323
1761475500056896800,8.286896728515625,0.009888101369142532,-0.015661582350730896,-0.0002664279018063098
1761475500066873900,8.296873779296876,0.012726708315312862,-0.028512073680758476,0.008657919242978096
1761475500076850700,8.3068505859375,0.007720498368144035,-0.02414209395647049,0.019006164744496346
1761475500086827800,8.316827880859375,0.0011285673826932907,-0.0017721697222441435,0.023114481940865517
1761475500096806000,8.326805908203125,-0.005376203451305628,0.023347564041614532,0.015136984176933765
1761475500106782700,8.33678271484375,-0.00813919585198164,0.019647149369120598,-0.0025656437501311302
1761475500116759800,8.346759765625,-0.007252628915011883,-0.00925533752888441,-0.019947297871112823
1761475500126736600,8.356736572265625,-0.005030945874750614,-0.02239980362355709,-0.037727486342191696
1761475500136714800,8.36671484375,0.004654705058783293,-0.013388466089963913,-0.04543494060635567
1761475500146691800,8.37669189453125,0.010363460518419743,0.00870770774781704,-0.04621320590376854
1761475500156668700,8.386668701171875,0.009658521972596645,0.028369292616844177,-0.05065375939011574
1761475500166645800,8.396645751953125,0.0001532011665403843,0.033467505127191544,-0.06488726288080215
1761475500176622600,8.40662255859375,-0.007396594621241093,0.03224990889430046,-0.07965449243783951
1761475500186600700,8.4166005859375,-0.01067119836807251,0.04082224890589714,-0.09948868304491043
1761475500196577800,8.426577880859375,-0.009908735752105713,0.07519859820604324,-0.11429772526025772
1761475500206554600,8.4365546875,-0.002320020692422986,0.10724659264087677,-0.13134734332561493
1761475500216531700,8.44653173828125,0.0075467247515916824,0.1493580937385559,-0.14971064031124115
1761475500226508500,8.456508544921874,0.014761531725525856,0.1874282956123352,-0.16880875825881958
1761475500236485600,8.466485595703125,0.024570221081376076,0.1934068202972412,-0.1806265413761139
1761475500246463700,8.476463623046875,0.037388525903224945,0.17826686799526215,-0.18443642556667328
1761475500256440600,8.486440673828126,0.04260566085577011,0.15732936561107635,-0.164731964468956
1761475500266417700,8.496417724609374,0.03959923982620239,0.10419192165136337,-0.1377396136522293
1761475500276394800,8.506394775390625,0.030465131625533104,0.05555514618754387,-0.1026010736823082
1761475500286371600,8.51637158203125,0.017125902697443962,0.012696859426796436,-0.07074055075645447
1761475500296349700,8.526349609375,0.005649277940392494,-0.02932169660925865,-0.026167485862970352
1761475500306326500,8.536326416015624,-0.009099512360990047,-0.05541015788912773,0.014690542593598366
1761475500316303600,8.5463037109375,-0.018338019028306007,-0.07622089982032776,0.055964212864637375
1761475500326281000,8.556281005859375,-0.021533185616135597,-0.08680617809295654,0.0845232605934143
1761475500336257800,8.5662578125,-0.011249123141169548,-0.07193641364574432,0.09900765866041183
1761475500346235600,8.576235595703125,0.005585343576967716,-0.039300717413425446,0.09738004952669144
1761475500356212700,8.586212646484375,0.019854029640555382,-0.023291125893592834,0.07858026027679443
1761475500366189800,8.59618994140625,0.023014282807707787,-0.02187705785036087,0.04899682104587555
1761475500376167000,8.6061669921875,0.019166814163327217,-0.03415582701563835,0.024108516052365303
1761475500386143700,8.616143798828125,0.018416069447994232,-0.0359361506998539,0.008317037485539913
1761475500396121900,8.626121826171875,0.019865894690155983,-0.021554548293352127,-0.0021177607122808695
1761475500406099000,8.636098876953126,0.018948158249258995,0.002249882323667407,-0.013628274202346802
1761475500416075800,8.64607568359375,0.008290452882647514,0.016621099784970284,-0.030598469078540802
1761475500426052900,8.656052978515625,0.004288880154490471,0.02409711293876171,-0.04873368889093399
1761475500436029700,8.66602978515625,0.005080903880298138,0.03596282750368118,-0.060064107179641724
1761475500446007800,8.6760078125,0.013169283047318459,0.029592270031571388,-0.062091194093227386
1761475500455985000,8.68598486328125,0.013286195695400238,0.009530942887067795,-0.06125495955348015
1761475500465961700,8.695961669921875,0.01669439859688282,-0.009172851219773293,-0.04920104146003723
1761475500475938800,8.705938720703125,0.01903478428721428,-0.019699260592460632,-0.027090145274996758
1761475500485915600,8.71591552734375,0.021319566294550896,-0.025265859439969063,-0.0016056529711931944
1761475500495892700,8.725892822265624,0.016551975160837173,-0.02771703340113163,0.01952999271452427
1761475500505870800,8.735870849609375,0.01816731132566929,-0.03864021599292755,0.030385885387659073
1761475500515847700,8.74584765625,0.00914984755218029,-0.05234271287918091,0.03287194296717644
1761475500525824800,8.75582470703125,0.003226470435038209,-0.05749185383319855,0.03505081683397293
1761475500535801600,8.765801513671875,0.007630007341504097,-0.0515948161482811,0.03504016250371933
1761475500545778700,8.77577880859375,0.010182107798755169,-0.04029654338955879,0.023098645731806755
1761475500555756800,8.7857568359375,0.021391352638602257,-0.028143208473920822,0.013943497091531754
1761475500565733600,8.795733642578124,0.026323148980736732,-0.0069768186658620834,0.0006156274466775358
1761475500575710700,8.805710693359375,0.024546820670366287,0.006279331631958485,-0.010245808400213718
1761475500585687600,8.8156875,0.010129972361028194,0.0007884369697421789,-0.018050311133265495
1761475500595664600,8.82566455078125,-0.003739770269021392,0.0031839502044022083,-0.022823229432106018
1761475500605641700,8.835641845703124,-0.014910913072526455,0.009111771360039711,-0.01983732357621193
1761475500615619600,8.84561962890625,-0.010410704649984837,0.012689195573329926,-0.026057403534650803
1761475500625596700,8.8555966796875,-0.0006928479415364563,0.009353695437312126,-0.025802774354815483
1761475500635573500,8.865573486328126,0.002747956197708845,0.011681298725306988,-0.019054589793086052
1761475500645550800,8.87555078125,0.010877540335059166,0.01783708669245243,-0.019090574234724045
1761475500655528000,8.88552783203125,0.008275099098682404,0.026961609721183777,-0.010233965702354908
1761475500665505500,8.895505615234375,0.00042278741602785885,0.02387143298983574,0.009996172972023487
1761475500675482600,8.905482666015626,-0.00728386826813221,0.007689002901315689,0.023798005655407906
1761475500685460000,8.9154599609375,-0.016032589599490166,-0.02261045202612877,0.03382564336061478
1761475500695436800,8.925436767578125,-0.017249122262001038,-0.04421241581439972,0.04100818932056427
1761475500705414000,8.935413818359375,-0.015268917195498943,-0.042802389711141586,0.046079233288764954
1761475500715391700,8.945391845703124,-0.0182894729077816,-0.0306107047945261,0.04226931557059288
1761475500725368800,8.955368896484375,-0.021377472206950188,-0.018165884539484978,0.029279936105012894
1761475500735346000,8.965345947265625,-0.03281654790043831,-0.009880256839096546,0.011124900542199612
1761475500745322800,8.97532275390625,-0.03832470625638962,-0.014438316226005554,-0.00840495154261589
1761475500755299800,8.9852998046875,-0.037286076694726944,-0.01628521829843521,-0.020570004358887672
1761475500765277700,8.995277587890625,-0.02751794084906578,-0.010795742273330688,-0.0322427824139595
1761475500775254800,9.0052548828125,-0.015409079380333424,0.0043523176573216915,-0.032913632690906525
1761475500785232000,9.01523193359375,-0.010011706501245499,0.025376170873641968,-0.029357686638832092
1761475500795208700,9.025208740234374,-0.010526495985686779,0.04334132373332977,-0.02321404032409191
1761475500805185800,9.035185791015625,-0.011367769911885262,0.04906195029616356,-0.018720252439379692
1761475500815164000,9.045163818359375,-0.01713511161506176,0.035148799419403076,-0.00009224077803082764
1761475500825140700,9.055140625,-0.023491837084293365,0.009986372664570808,0.007689114194363356
1761475500835117800,9.065117919921875,-0.021623097360134125,-0.00712230708450079,0.024410570040345192
1761475500845094700,9.0750947265625,-0.025092903524637222,-0.020210333168506622,0.03460635244846344
1761475500855071700,9.08507177734375,-0.020347416400909424,-0.025151561945676804,0.03863198682665825
1761475500865048600,9.095048583984376,-0.013118879869580269,-0.016737058758735657,0.036565329879522324
1761475500875026700,9.105026611328125,-0.0029187072068452835,-0.0050835981965065,0.021488908678293228
1761475500885003800,9.115003662109375,0.0015303697437047958,-0.009761705994606018,0.0021740663796663284
1761475500894980600,9.124980712890626,0.005365055054426193,-0.01464754156768322,-0.017877139151096344
1761475500904957700,9.134957763671874,0.002583273220807314,-0.013390411622822285,-0.025964975357055664
1761475500914934500,9.1449345703125,0.0007906995597295463,0.009300786070525646,-0.018631694838404655
1761475500924912600,9.15491259765625,-0.0016471949638798833,0.019148308783769608,-0.017455315217375755
1761475500934890000,9.164889892578126,-0.00257290992885828,0.010513806715607643,-0.019130444154143333
1761475500944867000,9.1748671875,-0.011714928783476353,-0.004125568084418774,-0.025641025975346565
1761475500954844000,9.184843994140625,-0.017241785302758217,-0.022048110142350197,-0.027031462639570236
1761475500964821000,9.194821044921875,-0.021036779507994652,-0.027214407920837402,-0.030054351314902306
1761475500974798000,9.204798095703126,-0.020038893446326256,-0.01877724751830101,-0.02058601565659046
1761475500984776000,9.21477587890625,-0.012281298637390137,-0.00632953317835927,-0.00432940386235714
1761475500994753000,9.2247529296875,-0.008769920095801353,0.007531953509896994,0.01402030885219574
1761475501004730000,9.234730224609375,-0.01113035250455141,0.004818360321223736,0.021220820024609566
1761475501014707200,9.244707275390626,-0.016234833747148514,-0.0066066007129848,0.023082902655005455
1761475501024684000,9.25468408203125,-0.022830896079540253,-0.002995945978909731,0.024001069366931915
1761475501034662000,9.264661865234375,-0.01801164075732231,0.002111730631440878,0.025330785661935806
1761475501044639200,9.27463916015625,-0.011213654652237892,-0.005348050035536289,0.022840462625026703
1761475501054616000,9.284615966796874,-0.0013213432393968105,-0.01348054502159357,0.0193924680352211
1761475501064593200,9.29459326171875,0.004163896199315786,-0.017328646034002304,0.012774369679391384
1761475501074570200,9.3045703125,0.0024922299198806286,-0.013167722150683403,0.005094612017273903
1761475501084548000,9.314548095703126,-0.006340446881949902,-0.0018695765174925327,-0.006327091250568628
1761475501094525200,9.324525146484374,-0.012838826514780521,0.0200575590133667,-0.010495471768081188
1761475501104502000,9.334501953125,-0.0169058870524168,0.039286449551582336,-0.016852719709277153
1761475501114479000,9.34447900390625,-0.015563121996819973,0.04555420204997063,-0.021032817661762238
1761475501124456200,9.354456298828126,-0.00889957882463932,0.032419245690107346,-0.025887221097946167
1761475501134433000,9.36443310546875,0.0009096418507397175,0.012875636108219624,-0.024612367153167725
1761475501144411100,9.3744111328125,0.0064155338332057,-0.011644521728157997,-0.014032016508281231
1761475501154388000,9.384387939453125,0.004644798114895821,-0.02087344042956829,-0.005779145751148462
1761475501164365000,9.394364990234376,-0.0026256218552589417,-0.018631404265761375,0.01547330990433693
1761475501174342100,9.404342041015624,-0.007347672712057829,-0.013518666848540306,0.024404220283031464
1761475501184319000,9.414319091796875,-0.008742847479879856,-0.002170997206121683,0.030440181493759155
1761475501194297000,9.424297119140626,-0.004785390105098486,0.008940509520471096,0.03337258845567703
1761475501204274200,9.434274169921874,-0.00300890626385808,0.013046158477663994,0.028635011985898018
1761475501214251000,9.4442509765625,-0.0015004918677732348,0.014884804375469685,0.025625640526413918
1761475501224228000,9.45422802734375,-0.0008954853401519358,0.015853799879550934,0.013309777714312077
1761475501234205000,9.464204833984375,-0.0019682066049426794,0.004559333436191082,-0.0018846218008548021
1761475501244183000,9.47418310546875,-0.008387296460568905,-0.02004784159362316,-0.01713748835027218
1761475501254160100,9.48416015625,-0.009295967407524586,-0.03381185606122017,-0.030303357169032097
1761475501264137000,9.494136962890625,-0.006921529769897461,-0.034571170806884766,-0.03458539396524429
1761475501274114000,9.504114013671876,-0.001393074169754982,-0.011333494447171688,-0.030536852777004242
1761475501284091000,9.5140908203125,-0.0017475225031375885,0.010460642166435719,-0.01845785230398178
1761475501294068200,9.524068115234375,-0.005590996239334345,0.013043375685811043,-0.014456185512244701
1761475501304046000,9.534046142578125,-0.0157567597925663,-0.004882953129708767,-0.01651383750140667
1761475501314023000,9.54402294921875,-0.027465879917144775,-0.007957040332257748,-0.01616309955716133
1761475501324000000,9.554,-0.02477347105741501,-0.0073136379942297935,-0.011488456279039383
1761475501333977000,9.56397705078125,-0.017191452905535698,-0.011046057567000389,-0.018048886209726334
1761475501343954200,9.5739541015625,-0.005084582604467869,-0.01782779023051262,-0.018892459571361542
1761475501353932000,9.58393212890625,0.0020556184463202953,-0.026989329606294632,-0.019880225881934166
1761475501363909000,9.5939091796875,0.0006657788180746138,-0.02522512525320053,-0.015463566407561302
1761475501373886200,9.60388623046875,0.0013259764527902007,-0.0028801376465708017,-0.009009129367768764
1761475501383863000,9.613863037109375,-0.005188005045056343,0.01672407239675522,-0.009629831649363041
1761475501393840000,9.623840087890626,-0.011375859379768372,0.025382541120052338,-0.012352114543318748
1761475501403817200,9.633817138671875,-0.009925135411322117,0.020588228479027748,-0.014115381054580212
1761475501413795000,9.643795166015625,-0.010407433845102787,0.010317749343812466,-0.009124350734055042
1761475501423772200,9.653772216796876,-0.009957194328308105,0.0034311693161726,-0.007988791912794113
1761475501433749000,9.6637490234375,-0.014821457676589489,-0.002242429181933403,-0.002166855614632368
1761475501443726000,9.67372607421875,-0.016247710213065147,-0.005966099910438061,0.0009671025909483433
1761475501453703200,9.683703125,-0.018776115030050278,-0.006879031658172607,0.0009218287887051702
1761475501463681000,9.693680908203126,-0.018380075693130493,-0.004301495850086212,0.0004254561208654195
1761475501473658000,9.703658203125,-0.017504427582025528,0.0005768823903053999,-0.0006288893637247384
1761475501483635200,9.71363525390625,-0.019849790260195732,0.0171260517090559,0.002754164393991232
1761475501493612000,9.723612060546875,-0.026540715247392654,0.028524646535515785,0.0033613652922213078
1761475501503589000,9.733589111328126,-0.030110914260149002,0.030135642737150192,-0.0015753981424495578
1761475501513566000,9.74356591796875,-0.023939304053783417,0.023656170815229416,-0.00882558710873127
1761475501523544000,9.7535439453125,-0.009963338263332844,0.012021304108202457,-0.014734281226992607
1761475501533521200,9.763521240234375,-0.0015466832555830479,-0.006801652256399393,-0.01680435612797737
1761475501543498000,9.773498046875,0.002309252507984638,-0.021692125126719475,-0.021187294274568558
1761475501553475000,9.78347509765625,0.00602169893682003,-0.026861853897571564,-0.022062940523028374
1761475501563452000,9.793451904296875,0.0021961783058941364,-0.01806049235165119,-0.016822293400764465
1761475501573430000,9.803429931640625,-0.006351769901812077,0.005380119662731886,-0.0038116853684186935
1761475501583407000,9.813406982421874,-0.011086778715252876,0.017274320125579834,-0.0016176599310711026
1761475501593384000,9.823384033203125,-0.006411333102732897,0.015893204137682915,-0.0007420126348733902
1761475501603361000,9.833361083984375,-0.004466095473617315,-0.00021239998750388622,0.00046367215691134334
1761475501613338000,9.843338134765625,-0.00115525396540761,-0.023506803438067436,0.002611245261505246
1761475501623315200,9.853315185546874,0.001273060915991664,-0.03513653948903084,0.0016929991543293
1761475501633293000,9.86329296875,-0.00041591585613787174,-0.02673027291893959,0.010228430852293968
1761475501643270000,9.873269775390625,0.0007986705750226974,-0.010014746338129044,0.015188618563115597
1761475501653247200,9.883247314453126,0.0045446730218827724,-0.003544862847775221,0.019719986245036125
1761475501663224000,9.89322412109375,0.005236479453742504,0.0028653463814407587,0.009605259634554386
1761475501673201200,9.903201171875,0.005729696713387966,0.000010970281437039375,0.003141766879707575
1761475501683179300,9.91317919921875,0.006860832683742046,0.00145785603672266,-0.004809786099940538
1761475501693156000,9.923156005859376,0.012224173173308372,0.01610470935702324,-0.010129716247320175
1761475501703133200,9.93313330078125,0.01056645717471838,0.024353761225938797,-0.005692880600690842
1761475501713110000,9.943110107421875,0.009140334092080593,0.025008900091052055,-0.001112776342779398
1761475501723087000,9.953087158203125,0.0013704599114134908,0.01520589366555214,0.00774142611771822
1761475501733064200,9.963064208984376,-0.0017891144379973412,0.009470509365200996,0.013440323993563652
1761475501743042000,9.9730419921875,-0.0024666497483849525,0.008060503751039505,0.023170940577983856
1761475501753019100,9.98301904296875,0.0031795180402696133,0.013708269223570824,0.03133246675133705
1761475501762996000,9.992995849609375,0.007416192442178726,0.018705543130636215,0.03849092870950699
1761475501772973000,10.00297314453125,0.011075641959905624,0.02312026545405388,0.03727466240525246
1761475501782950100,10.0129501953125,0.006350927986204624,0.029727566987276077,0.033602964133024216
1761475501792928000,10.022927978515625,0.0022629760205745697,0.026154404506087303,0.02231728844344616
1761475501802905000,10.032905029296876,0.0027950864750891924,0.017287597060203552,0.0070045385509729385
1761475501812882200,10.042882080078124,-0.0014617100823670626,0.012072062119841576,-0.011656763032078743
1761475501822859000,10.05285888671875,-0.003213555784896016,0.02535788156092167,-0.02064703218638897
1761475501832836000,10.062836181640625,-0.003025003941729665,0.046990737318992615,-0.016185438260436058
1761475501842813000,10.07281298828125,-0.010165434330701828,0.017625976353883743,-0.015461386181414127
1761475501852791000,10.082791015625,-0.019847091287374496,-0.034905143082141876,-0.01051190122961998
1761475501862768000,10.09276806640625,-0.025249771773815155,-0.060413867235183716,-0.003053042571991682
1761475501872745000,10.102744873046875,-0.024468665942549706,-0.08674906939268112,-0.0027699486818164587
1761475501882722000,10.11272216796875,-0.020261580124497414,-0.10407906770706177,0.002419866854324937
1761475501892699000,10.122698974609374,-0.0194554403424263,-0.14311780035495758,0.0034249438904225826
1761475501902676200,10.13267626953125,-0.006321676075458527,-0.12921416759490967,-0.0059510027058422565
1761475501912654000,10.142654052734375,0.01321367546916008,-0.11045300215482712,-0.004418619442731142
1761475501922631000,10.152630859375,0.026287738233804703,-0.07516229897737503,-0.009907516650855541
1761475501932608000,10.16260791015625,0.02826407179236412,-0.053458064794540405,-0.019546829164028168
1761475501942584800,10.172584716796875,0.019740890711545944,-0.04082882031798363,-0.02251891791820526
1761475501952562000,10.18256201171875,0.008881052024662495,-0.02882382459938526,-0.02141663432121277
1761475501962540000,10.1925400390625,0.0014719263417646289,-0.009886144660413265,-0.01859084516763687
1761475501972516900,10.202516845703125,0.0005912189953960478,0.009979171678423882,-0.009397612884640694
1761475501982494000,10.212493896484375,0.011701037175953388,0.0317891389131546,-0.006248805206269026
1761475501992471000,10.222470947265625,0.017952807247638702,0.04253020137548447,-0.0032226555049419403
1761475502002448000,10.23244775390625,0.019208598881959915,0.04359721019864082,-0.002829756122082472
1761475502012425000,10.242425048828125,0.011303535662591457,0.03725302964448929,-0.009809901006519794
1761475502022402800,10.25240283203125,0.00025331840151920915,0.03679528087377548,-0.011996150948107243
1761475502032380000,10.2623798828125,-0.008452555164694786,0.031335268169641495,-0.011251264251768589
1761475502042357000,10.27235693359375,-0.011125394143164158,0.020604336634278297,0.001862026285380125
1761475502052333800,10.282333740234375,-0.011171999387443066,0.01496615819633007,0.020586445927619934
1761475502062311000,10.292310791015625,-0.006965095642954111,0.008136758580803871,0.03312209993600845
1761475502072288800,10.302288818359376,-0.0038603823632001877,0.010301642119884491,0.0371147096157074
1761475502082265900,10.312265869140624,-0.00273689697496593,0.02146144025027752,0.03265337273478508
1761475502092243000,10.322242919921875,0.0030727889388799667,0.0117249246686697,0.015947097912430763
1761475502102219800,10.3322197265625,0.0005705190123990178,-0.010912694036960602,-0.0005469856550917029
1761475502112196900,10.34219677734375,-0.0024383203126490116,-0.024712396785616875,-0.02207491360604763
1761475502122173700,10.352173583984374,-0.004147811327129602,-0.014967061579227448,-0.0320780873298645
1761475502132151800,10.36215185546875,-0.008350545540452003,0.00902402400970459,-0.042197566479444504
1761475502142129000,10.37212890625,-0.009613923728466034,0.03371218964457512,-0.04333283007144928
1761475502152105700,10.382105712890626,-0.011160953901708126,0.04142949730157852,-0.04395148158073425
1761475502162082800,10.392082763671874,-0.003070518607273698,0.02382083609700203,-0.047299906611442566
1761475502172059600,10.4020595703125,0.007737387903034687,-0.0027953293174505234,-0.04573716223239899
1761475502182037000,10.412037109375,0.012262861244380474,-0.026958240196108818,-0.03766266256570816
1761475502192014800,10.422014892578124,0.01919373869895935,-0.032725848257541656,-0.027761295437812805
1761475502201991700,10.43199169921875,0.024127546697854996,-0.029753709211945534,-0.024116022512316704
1761475502211969000,10.441968994140625,0.021842287853360176,-0.017375869676470757,-0.01921341009438038
1761475502221945900,10.45194580078125,0.022122293710708618,-0.0012958203442394733,-0.02249460481107235
1761475502231923000,10.4619228515625,0.010798799805343151,0.0036105213221162558,-0.020840248093008995
1761475502241900800,10.47190087890625,0.00029523868579417467,0.007123289629817009,-0.014527933672070503
1761475502251878000,10.4818779296875,-0.011487384326756,0.00893104262650013,-0.0017980235861614347
1761475502261855000,10.49185498046875,-0.01132826879620552,0.011090641841292381,0.006588326301425695
1761475502271831800,10.501831787109374,0.0012264057295396924,0.002282502595335245,0.01187203824520111
1761475502281809000,10.511808837890625,0.012449530884623528,0.0005440667737275362,0.014218941330909729
1761475502291786000,10.521785888671875,0.022597773000597954,-0.004311142489314079,0.009436170570552349
1761475502301763800,10.531763916015626,0.017120247706770897,-0.0013615640345960855,0.0007764393812976778
1761475502311741000,10.541740966796874,0.010430121794342995,0.019511759281158447,-0.008247681893408298
1761475502321718000,10.551718017578125,0.0016885865479707718,0.04886019229888916,-0.015436041168868542
1761475502331694800,10.56169482421875,-0.010858363471925259,0.06516113132238388,-0.0211035143584013
1761475502341672000,10.571671875,-0.018511507660150528,0.055899299681186676,-0.024609535932540894
1761475502351648800,10.581648681640624,-0.019924314692616463,0.029125478118658066,-0.026167752221226692
1761475502361627000,10.591626953125,-0.029785340651869774,-0.014441133476793766,-0.02227601781487465
1761475502371604000,10.60160400390625,-0.03493882343173027,-0.0465623214840889,-0.02095082961022854
1761475502381580800,10.611580810546876,-0.029367497190833092,-0.06441958248615265,-0.013912173919379711
1761475502391558000,10.621557861328125,-0.022897614166140556,-0.06648114323616028,-0.017678681761026382
1761475502401534700,10.63153466796875,-0.01779859885573387,-0.04629060998558998,-0.011963218450546265
1761475502411512800,10.641512939453126,-0.019881989806890488,-0.016466135159134865,-0.005356981419026852
1761475502421490000,10.651489990234374,-0.02997644804418087,-0.022884268313646317,0.0022131658624857664
1761475502431466800,10.661466796875,-0.0425494983792305,-0.03758412227034569,0.014612045139074326
1761475502441443800,10.67144384765625,-0.04555916041135788,-0.0391928032040596,0.0280511025339365
1761475502451420700,10.681420654296875,-0.03695368766784668,-0.02697528339922428,0.027427123859524727
1761475502461397800,10.691397705078124,-0.019342005252838135,-0.030083050951361656,0.015867343172430992
1761475502471376000,10.7013759765625,0.0034506600350141525,-0.05805423483252525,0.005481812637299299
1761475502481352700,10.711352783203125,0.011825909838080406,-0.04998835548758507,0.001996744889765978
1761475502491329800,10.721329833984376,0.010438136756420135,-0.021705320104956627,0.005604529287666082
1761475502501307000,10.731306884765624,0.010820385068655014,-0.01788899302482605,0.004190161824226379
1761475502511284000,10.741283935546875,0.015364269725978374,-0.02222488634288311,-0.00004825915675610304
1761475502521261000,10.751260986328125,0.02140672132372856,-0.015412013977766037,-0.003869550535455346
1761475502531239000,10.761239013671876,0.023109013214707375,-0.00953122228384018,-0.007788659073412418
1761475502541216000,10.771216064453125,0.018582245334982872,0.004958072677254677,-0.013099654577672482
1761475502551192800,10.78119287109375,0.017518311738967896,0.010807173326611519,-0.02285667695105076
1761475502561170000,10.791169921875,0.01662529446184635,-0.009607736021280289,-0.03921832889318466
1761475502571147000,10.80114697265625,0.017596548423171043,-0.022177590057253838,-0.03903297334909439
1761475502581124900,10.811124755859375,0.015081658959388733,-0.018138499930500984,-0.031520262360572815
1761475502591102000,10.82110205078125,0.018023386597633362,-0.002721726894378662,-0.017620692029595375
1761475502601078800,10.831078857421875,0.021690741181373596,0.01199408620595932,-0.0016319060232490301
1761475502611055900,10.841055908203124,0.02743038535118103,0.02114950120449066,0.007198070641607046
1761475502621033000,10.851032958984375,0.03105517290532589,-0.0005299861077219248,0.0080310869961977
1761475502631009800,10.861009765625,0.030500169843435287,-0.023124512284994125,0.00980342086404562
1761475502640988000,10.87098779296875,0.020143460482358932,-0.045827243477106094,-0.0004281869623810053
1761475502650965000,10.880965087890624,0.009641285054385662,-0.07328709214925766,-0.0014721461338922381
1761475502660941800,10.89094189453125,-0.0052777249366045,-0.08488181233406067,0.009799652732908726
1761475502670919000,10.9009189453125,-0.015314913354814053,-0.069371297955513,0.011856412515044212
1761475502680895700,10.910895751953126,-0.02163262479007244,-0.05694640427827835,0.015288164839148521
1761475502690872800,10.920872802734374,-0.008798851631581783,-0.030439699068665504,0.018030155450105667
1761475502700851000,10.930850830078125,0.008423670195043087,0.0029760899487882853,0.010082007385790348
1761475502710827800,10.940827880859375,0.02436402067542076,0.008314396254718304,-0.013042752631008625
1761475502720804900,10.950804931640626,0.02882245182991028,-0.0034529725089669228,-0.032204605638980865
1761475502730781700,10.96078173828125,0.020498475059866905,-0.015766363590955734,-0.050797197967767715
1761475502740758800,10.9707587890625,0.008428562432527542,-0.027243662625551224,-0.07020624727010727
1761475502750736000,10.98073583984375,0.0008814305765554309,-0.025440704077482224,-0.06801553070545197
1761475502760713700,10.990713623046876,-0.007942414842545986,-0.002538875676691532,-0.04643905535340309
1761475502770690800,11.00069091796875,-0.017772940918803215,0.03509638458490372,-0.011830477975308895
1761475502780668000,11.01066796875,-0.01624896004796028,0.06138424575328827,0.031108709052205086
1761475502790645000,11.02064501953125,-0.0290670208632946,0.03688503056764603,0.1550719439983368
1761475502800621800,11.030621826171876,-0.010837912559509277,-0.10343341529369354,0.1941433846950531
1761475502810599000,11.040598876953124,0.02350355125963688,-0.18081822991371155,0.1871645599603653
1761475502820577000,11.050576904296875,0.044833630323410034,-0.26378539204597473,0.15944881737232208
1761475502830553900,11.060553955078126,0.032381486147642136,-0.22605881094932556,0.09187617897987366
1761475502840531000,11.070531005859374,-0.04210059717297554,-0.12628111243247986,0.018381662666797638
1761475502850508000,11.080508056640625,-0.06861556321382523,0.010250364430248737,-0.05485953018069267
1761475502860484900,11.09048486328125,-0.024365577846765518,0.1564682424068451,-0.13865290582180023
1761475502870463000,11.100462890625,0.039909813553094864,0.1852053552865982,-0.23432350158691406
