time,seconds_elapsed,z,y,x
1761475516858163700,0.067163818359375,0.015696505084633827,-0.01350731123238802,0.02122785896062851
1761475516868141000,0.07714111328125,-0.00329769030213356,-0.0001691952347755432,0.0760667696595192
1761475516878118700,0.08711865234375,-0.02976205386221409,0.002207942074164748,0.11943794041872025
1761475516888095700,0.097095703125,-0.04703359305858612,-0.019931765273213387,0.15597525238990784
1761475516898072800,0.10707275390625,-0.04492170736193657,-0.0409502312541008,0.17873409390449524
1761475516908050000,0.1170498046875,-0.03021051734685898,-0.033452361822128296,0.18713237345218658
1761475516918027000,0.127027099609375,-0.01048208586871624,-0.003377018729224801,0.17235369980335236
1761475516928003800,0.13700390625,0.011170810088515282,0.016380222514271736,0.13784931600093842
1761475516937981000,0.14698095703125,0.020283346995711327,0.025805415585637093,0.09880923479795456
1761475516947957800,0.156957763671875,0.017155103385448456,0.020625198259949684,0.05945169925689697
1761475516957934600,0.1669345703125,0.002568171126767993,0.028226925060153008,0.0352662019431591
1761475516967911400,0.176911376953125,-0.009326837956905365,0.04436994343996048,0.021326951682567596
1761475516977888500,0.186888427734375,-0.010966812260448933,0.057342201471328735,0.011248218826949596
1761475516987865300,0.196865234375,0.0002170548541471362,0.06913574039936066,0.011237157508730888
1761475516997843500,0.206843505859375,0.007199863437563181,0.055412471294403076,-0.0037987830583006144
1761475517007820500,0.216820556640625,0.009960558265447617,0.02165568247437477,-0.018693676218390465
1761475517017797400,0.22679736328125,0.012139823287725449,-0.021392185240983963,-0.026406457647681236
1761475517027774500,0.2367744140625,0.010977290570735931,-0.05141357704997063,-0.029269786551594734
1761475517037751600,0.24675146484375,0.018236001953482628,-0.04643825814127922,-0.022677132859826088
1761475517047728600,0.256728759765625,0.030307047069072723,-0.036413855850696564,-0.018641645088791847
1761475517057705700,0.266705810546875,0.03835298866033554,-0.029559675604104996,-0.009871323592960835
1761475517067682600,0.2766826171875,0.04718024283647537,-0.026937901973724365,-0.004339304752647877
1761475517077659600,0.28665966796875,0.049962978810071945,-0.01570974849164486,0.0007116463966667652
1761475517087636500,0.296636474609375,0.051299430429935455,0.0006385995075106621,0.007509772665798664
1761475517097613600,0.306613525390625,0.044922757893800735,0.009637420997023582,0.0018731924938037992
1761475517107590400,0.31659033203125,0.03380294516682625,-0.010341295972466469,0.0003390201891306788
1761475517117567500,0.3265673828125,0.027131462469697,-0.03169079124927521,-0.0033473274670541286
1761475517127545600,0.336545654296875,0.023987632244825363,-0.022083651274442673,-0.0036206175573170185
1761475517137522400,0.3465224609375,0.02318841777741909,-0.0014228473883122206,-0.000056775432312861085
1761475517147499500,0.35649951171875,0.03044719062745571,0.01768544130027294,-0.000033172822440974414
1761475517157476600,0.3664765625,0.036596428602933884,0.011339661665260792,-0.0020640993025153875
1761475517167453400,0.376453369140625,0.03684093803167343,0.00595714058727026,-0.0029670684598386288
1761475517177430500,0.386430419921875,0.0198728758841753,0.00632039550691843,0.003739569801837206
1761475517187407600,0.39640771484375,0.007130573969334364,0.000394812086597085,0.010534691624343395
1761475517197384700,0.406384765625,0.0012822725111618638,0.003189533483237028,0.018325502052903175
1761475517207361500,0.416361572265625,-0.0066669657826423645,-0.007151999976485968,0.02454846166074276
1761475517217338600,0.426338623046875,-0.013658029958605766,-0.015291685238480568,0.029871320351958275
1761475517227315700,0.436315673828125,-0.017009321600198746,-0.014063647016882896,0.037222929298877716
1761475517237292500,0.44629248046875,-0.017405332997441292,-0.0018559835152700543,0.034025538712739944
1761475517247269600,0.45626953125,-0.01309245266020298,0.011793459765613079,0.026773391291499138
1761475517257247500,0.46624755859375,-0.010066302493214607,0.011805976741015911,0.016285330057144165
1761475517267224600,0.476224609375,-0.012197144329547882,0.010708806104958057,0.008708178997039795
1761475517277201700,0.48620166015625,-0.012604075483977795,0.012724286876618862,0.004965372383594513
1761475517287178500,0.496178466796875,-0.009969991631805897,0.01049320213496685,-0.004941403400152922
1761475517297155600,0.506155517578125,-0.009922853671014309,-0.0044460659846663475,-0.003991187550127506
1761475517307132400,0.51613232421875,-0.014756567776203156,-0.006365940906107426,-0.009093414060771465
1761475517317109500,0.526109619140625,-0.017933718860149384,0.011609331704676151,-0.00827848631888628
1761475517327086300,0.53608642578125,-0.011551314033567905,0.03712731972336769,-0.011356791481375694
1761475517337063400,0.5460634765625,-0.011155035346746445,0.045880332589149475,-0.01054665818810463
1761475517347040800,0.556040771484375,-0.002997536677867174,0.02101667784154415,-0.013577660545706749
1761475517357017600,0.566017578125,-0.003720585023984313,-0.012158852070569992,-0.00789420772343874
1761475517366994700,0.57599462890625,-0.0000763324205763638,-0.02461961656808853,-0.00034507858799770474
1761475517376971500,0.585971435546875,0.00042886921437457204,-0.02961437590420246,0.01382613368332386
1761475517386949600,0.59594970703125,0.000839262327644974,-0.029584014788269997,0.019285349175333977
1761475517396926700,0.6059267578125,0.002189751248806715,-0.02208455465734005,0.021752234548330307
1761475517406903600,0.615903564453125,-0.0002371232840232551,0.0012216153554618359,0.023872168734669685
1761475517416880600,0.625880615234375,-0.0042859273962676525,0.021929558366537094,0.02341410517692566
1761475517426857500,0.635857421875,-0.008523127064108849,0.02719756029546261,0.02098585106432438
1761475517436834600,0.64583447265625,-0.006794468965381384,0.010813260450959206,0.010516698472201824
1761475517446811400,0.655811279296875,-0.0004524017567746341,-0.004509342834353447,0.010343567468225956
1761475517456788500,0.66578857421875,0.004244615323841572,-0.008817538619041443,0.009127568453550339
1761475517466765600,0.675765625,0.0038928117137402296,-0.0035122553817927837,0.013589694164693356
1761475517476742400,0.685742431640625,-0.004861797671765089,0.012807595543563366,0.018388977274298668
1761475517486719500,0.695719482421875,-0.018552780151367188,0.03654685616493225,0.02483585849404335
1761475517496696600,0.705696533203125,-0.02086014300584793,0.039101094007492065,0.027770129963755608
1761475517506673700,0.715673583984375,-0.0256954412907362,0.027346057817339897,0.017473116517066956
1761475517516650500,0.725650390625,-0.02474495768547058,0.004000522196292877,0.0046822200529277325
1761475517526628600,0.735628662109375,-0.023035803809762,-0.0042527224868535995,-0.006951965391635895
1761475517536605700,0.745605712890625,-0.022348707541823387,0.0014512359630316496,-0.013357400894165039
1761475517546582500,0.75558251953125,-0.02642815187573433,0.010461615398526192,-0.009407108649611473
1761475517556559600,0.7655595703125,-0.034588348120450974,0.005321714095771313,-0.002985428785905242
1761475517566536700,0.77553662109375,-0.0440363846719265,0.0033849673345685005,0.0002244932547910139
1761475517576513500,0.785513427734375,-0.046725910156965256,-0.0018611934501677752,0.0014149262569844723
1761475517586490600,0.79549072265625,-0.04572230577468872,0.0024253190495073795,0.0008079465478658676
1761475517596467500,0.805467529296875,-0.04150998219847679,-0.0029843600932508707,-0.012284685857594013
1761475517606444500,0.815444580078125,-0.04233787953853607,-0.0074364254251122475,-0.02117934636771679
1761475517616421400,0.82542138671875,-0.03975221514701843,-0.007833769544959068,-0.027170926332473755
1761475517626398500,0.8353984375,-0.03211691975593567,0.0051722051575779915,-0.02335703745484352
1761475517636375600,0.84537548828125,-0.028537627309560776,0.017962835729122162,-0.012182947248220444
1761475517646352600,0.8553525390625,-0.023495296016335487,0.02570374310016632,-0.003577746916562319
1761475517656330500,0.86533056640625,-0.025905190035700798,0.022191032767295837,0.0009477625135332346
1761475517666307300,0.875307373046875,-0.024104468524456024,0.01738477125763893,0.0033050996717065573
1761475517676284700,0.88528466796875,-0.021645305678248405,0.0066327909007668495,-0.0005929692997597158
1761475517686261800,0.89526171875,-0.017866766080260277,-0.0032886017579585314,0.0011055205250158906
1761475517696238600,0.905238525390625,-0.00945703499019146,0.0008403630927205086,0.008494727313518524
1761475517706215700,0.915215576171875,-0.004695130046457052,-0.0006836600368842483,0.02086925320327282
1761475517716192500,0.925192626953125,-0.003491381648927927,-0.002525235991925001,0.027888281270861626
1761475517726169600,0.935169677734375,-0.0022294672671705484,0.003427784191444516,0.030928904190659523
1761475517736146400,0.945146484375,0.007395196706056595,0.014315051957964897,0.027625786140561104
1761475517746123500,0.95512353515625,0.014425880275666714,0.0271907951682806,0.022476131096482277
1761475517756100600,0.9651005859375,0.012427710928022861,0.027137266471982002,0.01712983474135399
1761475517766077400,0.975077392578125,0.005852848291397095,0.023900307714939117,0.007378591690212488
1761475517776054500,0.985054443359375,-0.001745683024637401,0.0007132296450436115,0.0019065947271883488
1761475517786031400,0.99503125,0.0016686324961483479,-0.023290324956178665,0.003286841558292508
1761475517796009500,1.005009521484375,0.004432727582752705,-0.031960777938365936,0.009932493790984154
1761475517805986600,1.014986572265625,0.003673320868983865,-0.027538975700736046,0.017252149060368538
1761475517815963400,1.02496337890625,0.005604112520813942,-0.018574509769678116,0.018569614738225937
1761475517825940700,1.034940673828125,0.008328932337462902,-0.00596113596111536,0.006411528680473566
1761475517835917600,1.04491748046875,0.011775062419474125,-0.002202350180596113,-0.008865694515407085
1761475517845894700,1.054894775390625,0.0070410738699138165,0.001018158858641982,-0.020217493176460266
1761475517855871500,1.06487158203125,-0.001913272775709629,0.01051925215870142,-0.03258121758699417
1761475517865848600,1.0748486328125,-0.009227768518030643,0.012048222124576569,-0.028512775897979736
1761475517875825700,1.08482568359375,-0.009003263898193836,0.006044924259185791,-0.022670865058898926
1761475517885802500,1.094802490234375,-0.002386234700679779,-0.005350364372134209,-0.01711759716272354
1761475517895779600,1.104779541015625,0.005375548265874386,-0.015506861731410027,-0.008430899120867252
1761475517905756400,1.11475634765625,-0.0007453689468093216,-0.014922134578227997,-0.0036003387067466974
1761475517915733500,1.1247333984375,-0.003994159400463104,-0.008100180886685848,-0.0011877809884026647
1761475517925711600,1.134711669921875,-0.00854257121682167,-0.004179475363343954,0.004133214708417654
1761475517935688400,1.1446884765625,-0.010564443655312061,-0.007791520562022924,0.0033047052565962076
1761475517945665500,1.15466552734375,-0.012433541938662529,-0.011029820889234543,0.009430388920009136
1761475517955642000,1.16464208984375,-0.01231982558965683,-0.00544996652752161,0.019929103553295135
1761475517965619200,1.174619140625,-0.00649616401642561,0.01633111760020256,0.02435203641653061
1761475517975596300,1.18459619140625,0.001773483818396926,0.039391160011291504,0.022466784343123436
1761475517985573400,1.194573486328125,0.011279084719717503,0.04310377687215805,0.026554608717560768
1761475517995550500,1.204550537109375,0.018914101645350456,0.02323925867676735,0.01741410791873932
1761475518005527300,1.21452734375,0.012486346065998077,0.0006821714341640472,0.012621561996638775
1761475518015504400,1.22450439453125,0.004805790260434151,-0.018784470856189728,0.012045253999531269
1761475518025481200,1.234481201171875,-0.00628248555585742,-0.031490836292505264,0.017178397625684738
1761475518035458300,1.244458251953125,-0.014984364621341228,-0.011083832010626793,0.02512899786233902
1761475518045435100,1.25443505859375,-0.00904346164315939,0.014762142673134804,0.03606805577874184
1761475518055412200,1.264412109375,-0.0014420014340430498,0.02738206461071968,0.035303995013237
1761475518065390300,1.274390380859375,0.007324090227484703,0.026753347367048264,0.030931567773222923
1761475518075367200,1.2843671875,0.013774532824754715,0.01487777940928936,0.017218684777617455
1761475518085344300,1.29434423828125,0.018955836072564125,-0.01028035394847393,0.007818860933184624
1761475518095321000,1.304321044921875,0.011937075294554234,-0.03915594518184662,-0.007594715803861618
1761475518105298200,1.314298095703125,0.0013942145742475986,-0.06572086364030838,-0.0236669909209013
1761475518115275300,1.324275146484375,-0.011431834660470486,-0.06333227455615997,-0.026884088292717934
1761475518125252400,1.33425244140625,-0.017665870487689972,-0.036715902388095856,-0.027866357937455177
1761475518135229400,1.3442294921875,-0.01596091501414776,0.00348717556335032,-0.028072752058506012
1761475518145206300,1.354206298828125,-0.009303688071668148,0.02506352588534355,-0.02584335207939148
1761475518155183400,1.364183349609375,0.0018206019885838032,0.02654610574245453,-0.02146085351705551
1761475518165160200,1.37416015625,0.0007040047203190625,0.00675274059176445,-0.01855902001261711
1761475518175137300,1.38413720703125,-0.005656156688928604,-0.01905675232410431,-0.012631355784833431
1761475518185114400,1.3941142578125,-0.010678376071155071,-0.04795077070593834,-0.0032865400426089764
1761475518195091200,1.40409130859375,-0.014720255509018898,-0.05717356503009796,-0.0014074135106056929
1761475518205069300,1.4140693359375,-0.015284773893654346,-0.03527618944644928,0.006900576874613762
1761475518215046400,1.42404638671875,-0.013260506093502045,0.008940272964537144,0.018094642087817192
1761475518225023200,1.434023193359375,-0.007949168793857098,0.04741090163588524,0.0252513624727726
1761475518235000300,1.444000244140625,-0.003994375001639128,0.06304658204317093,0.01720568537712097
1761475518244977200,1.45397705078125,-0.0010631303302943707,0.04471568018198013,0.01059251930564642
1761475518254954200,1.463954345703125,-0.0020759303588420153,0.005385851487517357,0.00013748138735536486
1761475518264931300,1.473931396484375,-0.0014268059749156237,-0.034645725041627884,0.00042907759780064225
1761475518274908400,1.483908447265625,-0.0013000394683331251,-0.04730186238884926,0.011313683353364468
1761475518284885500,1.493885498046875,0.0012635812163352966,-0.01641867682337761,0.03349984437227249
1761475518294862300,1.5038623046875,0.0015666489489376545,0.032765116542577744,0.05042023956775665
1761475518304839400,1.51383935546875,0.002826134907081723,0.05820123851299286,0.06050204485654831
1761475518314816300,1.523816162109375,0.006949240807443857,0.0450444221496582,0.051684584468603134
1761475518324793300,1.53379345703125,0.008275371976196766,0.011309409514069557,0.03538517281413078
1761475518334770200,1.543770263671875,0.006257760804146528,-0.01961148902773857,0.020789984613656998
1761475518344747300,1.553747314453125,0.0051261791959404945,-0.03418850153684616,0.00788362231105566
1761475518354725400,1.563725341796875,0.00033089093631133437,-0.02305329591035843,0.0024020380806177855
1761475518364702200,1.5737021484375,0.0034363572485744953,-0.004202323965728283,-0.0029090307652950287
1761475518374679300,1.58367919921875,0.0010933080920949578,0.019645750522613525,-0.0070009781047701836
1761475518384656100,1.59365625,0.002942407038062811,0.030330663546919823,-0.01777447573840618
1761475518394633200,1.60363330078125,0.004269193857908249,0.02327115647494793,-0.03546612337231636
1761475518404610300,1.6136103515625,0.010819781571626663,0.013786266557872295,-0.0425601601600647
1761475518414587100,1.623587158203125,0.009501783177256584,0.0032438773196190596,-0.04258545860648155
1761475518424564500,1.633564453125,0.008682768791913986,0.0005153052043169737,-0.03845634683966637
1761475518434541300,1.643541259765625,0.003566570347175002,-0.012010074220597744,-0.03126714378595352
1761475518444518400,1.653518310546875,0.001547468826174736,-0.030483298003673553,-0.019926775246858597
1761475518454495200,1.6634951171875,-0.005750391632318497,-0.040066950023174286,-0.007160647306591272
1761475518464472300,1.673472412109375,-0.008039157837629318,-0.037698548287153244,-0.005789845250546932
1761475518474449400,1.683449462890625,-0.005629263818264008,-0.018701422959566116,-0.01098487339913845
1761475518484426200,1.69342626953125,0.004156777635216713,0.014188392087817192,-0.010935962200164795
1761475518494404400,1.703404296875,0.011791260913014412,0.04559212177991867,-0.01000705175101757
1761475518504381200,1.713381103515625,0.010122180916368961,0.04510316252708435,-0.013278886675834656
1761475518514358300,1.723358154296875,0.0058571286499500275,0.02344047836959362,-0.015844842419028282
1761475518524335400,1.73333544921875,0.00410738168284297,-0.005191585049033165,-0.01473305281251669
1761475518534312200,1.743312255859375,0.00008334527956321836,-0.02145977132022381,-0.01479617040604353
1761475518544289300,1.753289306640625,0.00040806131437420845,-0.021303705871105194,-0.013226358219981194
1761475518554266000,1.76326611328125,0.0013042150530964136,-0.0005976298125460744,-0.012354972772300243
1761475518564243200,1.7732431640625,0.0023252908140420914,0.02637842483818531,-0.0033704047091305256
1761475518574220300,1.78322021484375,0.000055744952987879515,0.03855253756046295,0.0021026574540883303
1761475518584197400,1.793197265625,-0.0005411659949459136,0.04039241373538971,0.010212243534624577
1761475518594174500,1.803174560546875,-0.00344401178881526,0.028220700100064278,0.01005005743354559
1761475518604151300,1.8131513671875,-0.0009829690679907799,0.0004563408438116312,0.007713641971349716
1761475518614128400,1.82312841796875,-0.004818986169993877,-0.02895720861852169,0.007060634903609753
1761475518624105200,1.833105224609375,-0.006706133019179106,-0.04149648919701576,0.004414566792547703
1761475518634082300,1.843082275390625,-0.005196120589971542,-0.045732513070106506,0.003358357585966587
1761475518644059100,1.85305908203125,-0.0005121374852024019,-0.0364413857460022,-0.0023067432921379805
1761475518654037200,1.863037353515625,-0.0014684787020087242,-0.019016852602362633,-0.014435311779379845
1761475518664014300,1.873014404296875,-0.003949321340769529,-0.004319723695516586,-0.02726811356842518
1761475518673991200,1.8829912109375,-0.007890000008046627,-0.001125528127886355,-0.04407106339931488
1761475518683968300,1.89296826171875,-0.007088204845786095,-0.012477192096412182,-0.05314288288354874
1761475518693945300,1.9029453125,-0.00847091805189848,-0.023543160408735275,-0.05739888176321983
1761475518703922200,1.912922119140625,-0.013001784682273865,-0.025062015280127525,-0.051630426198244095
1761475518713899300,1.922899169921875,-0.009290669113397598,-0.004077103920280933,-0.04056978598237038
1761475518723876400,1.93287646484375,-0.002311763819307089,0.012848246842622757,-0.028659740462899208
1761475518733853400,1.942853515625,0.004832166247069836,0.021317364647984505,-0.013052552007138729
1761475518743830300,1.952830322265625,0.009792493656277657,0.016030721366405487,-0.002100446494296193
1761475518753807400,1.962807373046875,0.010671868920326233,0.005109364166855812,0.007024342194199562
1761475518763784400,1.972784423828125,0.004990715533494949,-0.011064644902944565,0.015841001644730568
1761475518773761300,1.98276123046875,-0.004051249008625746,-0.027000201866030693,0.014034047722816467
1761475518783738400,1.99273828125,-0.009416462853550911,-0.030273716896772385,0.013850461691617966
1761475518793715200,2.002715087890625,-0.011600255034863949,-0.017260979861021042,0.016790326684713364
1761475518803693300,2.012693359375,-0.014562754891812801,0.0029747833032160997,0.014266714453697205
1761475518813670400,2.02267041015625,-0.010390913113951683,0.0249400045722723,0.008048232644796371
1761475518823647200,2.032647216796875,-0.006595739629119635,0.03544527292251587,-0.0012280924711376429
1761475518833624300,2.042624267578125,0.0003535125288181007,0.025489047169685364,-0.004535206127911806
1761475518843601200,2.05260107421875,0.00047085052938200533,0.017033718526363373,-0.00530708534643054
1761475518853578200,2.062578125,-0.0021955063566565514,0.010844533331692219,-0.004287360701709986
1761475518863555000,2.07255517578125,-0.009498488157987595,0.00964307226240635,-0.0032270580995827913
1761475518873532400,2.082532470703125,-0.01464318297803402,0.005993209779262543,-0.011023461818695068
1761475518883509500,2.092509521484375,-0.014875896275043488,0.009810799732804298,-0.01242169551551342
1761475518893486300,2.102486328125,-0.017583265900611877,0.018042897805571556,-0.014850764535367489
1761475518903463400,2.11246337890625,-0.014631767757236958,0.020692003890872,-0.015600737184286118
1761475518913440300,2.122440185546875,-0.01543044950813055,0.01403356809169054,-0.014653717167675495
1761475518923417300,2.132417236328125,-0.01211460866034031,0.001957355532795191,-0.009388817474246025
1761475518933394200,2.142394287109375,-0.00242496351711452,0.0026399237103760242,0.0013692885404452682
1761475518943371300,2.152371337890625,0.00748889334499836,-0.00231580319814384,0.010013044811785221
1761475518953349600,2.162349609375,0.0070252371951937675,-0.014218535274267197,0.00640952168032527
1761475518963326700,2.17232666015625,0.003752663964405656,-0.029690908268094063,0.00739193195477128
1761475518973303600,2.182303466796875,-0.006618484389036894,-0.031755391508340836,-0.0026095693465322256
1761475518983280600,2.19228076171875,-0.008185806684195995,-0.03238404914736748,-0.01013919897377491
1761475518993257700,2.2022578125,-0.008843340910971165,-0.015148602426052094,-0.01681840792298317
1761475519003234600,2.212234619140625,-0.006783129181712866,0.013659118674695492,-0.02149367891252041
1761475519013211600,2.222211669921875,0.0005253838608041406,0.02487395703792572,-0.02498987689614296
1761475519023188500,2.2321884765625,-0.00260607386007905,0.02513202279806137,-0.0346912182867527
1761475519033165600,2.24216552734375,0.0023916144855320454,0.008411100134253502,-0.03590615466237068
1761475519043142700,2.252142578125,0.004197564907371998,0.002052911790087819,-0.03541063517332077
1761475519053119700,2.26211962890625,-0.0016446113586425781,-0.003094978630542755,-0.028935160487890244
1761475519063096800,2.272096923828125,-0.006518165580928326,-0.005310940556228161,-0.015334445051848888
1761475519073073700,2.28207373046875,-0.00979252252727747,0.008119912818074226,-0.00527968117967248
1761475519083050800,2.29205078125,-0.0014539749827235937,0.01950998418033123,0.0028422828763723373
1761475519093027600,2.302027587890625,0.005481962114572525,0.02690291963517666,0.011550819501280785
1761475519103004700,2.312004638671875,0.007876425050199032,0.02081749029457569,0.013573998585343361
1761475519112982800,2.321982666015625,0.006858564913272858,0.01990695483982563,0.011241601780056953
1761475519122959600,2.331959716796875,0.006283511873334646,0.02723756805062294,0.008965520188212395
1761475519132936700,2.341936767578125,0.0028525616507977247,0.027143824845552444,0.00422695791348815
1761475519142913500,2.35191357421875,-0.001985131995752454,0.021884240210056305,0.0028494028374552727
1761475519152890600,2.361890625,-0.003372638951987028,0.012349325232207775,-0.003789591370150447
1761475519162867700,2.37186767578125,0.0026845161337405443,-0.004478548187762499,-0.006615037098526955
1761475519172844500,2.381844482421875,0.0043897381983697414,-0.015801776200532913,-0.006508510559797287
1761475519182821600,2.391821533203125,0.004227582365274429,-0.021471058949828148,-0.0035777506418526173
1761475519192798700,2.401798828125,-0.0006305560236796737,-0.013505279086530209,-0.006131722126156092
1761475519202775800,2.41177587890625,0.0031844067852944136,0.0028325216844677925,-0.0012719613732770085
1761475519212752600,2.421752685546875,-0.0017032925970852375,-0.0013262706343084574,-0.003464542096480727
1761475519222729700,2.431729736328125,-0.009031444787979126,-0.018295863643288612,-0.008563163690268993
1761475519232706800,2.441706787109375,-0.016965266317129135,-0.0360460989177227,-0.01567779667675495
1761475519242683600,2.45168359375,-0.01867765747010708,-0.04416358470916748,-0.017618590965867043
1761475519252660700,2.46166064453125,-0.014601955190300941,-0.03572988510131836,-0.0160401351749897
1761475519262638600,2.471638671875,-0.014326553791761398,-0.02116820029914379,-0.01207047514617443
1761475519272615700,2.48161572265625,-0.005697112996131182,-0.007731487508863211,-0.013134407810866833
1761475519282592800,2.4915927734375,-0.0014225189806893468,0.0030708778649568558,-0.012438717298209667
1761475519292569600,2.501569580078125,0.007250064983963966,0.011500049382448196,-0.014437686651945114
1761475519302546700,2.511546630859375,0.009825463406741619,0.022376351058483124,-0.011977918446063995
1761475519312523500,2.5215234375,0.005233108531683683,0.02326717972755432,-0.005683004390448332
1761475519322500600,2.53150048828125,-0.004382494371384382,0.021821551024913788,0.004812660627067089
1761475519332477700,2.541477783203125,-0.013160539790987968,0.020073717460036278,0.014741457998752594
1761475519342454800,2.551454833984375,-0.013017404824495316,0.019210271537303925,0.02127133309841156
1761475519352431900,2.561431884765625,-0.01030657347291708,0.008519545197486877,0.028565198183059692
1761475519362408700,2.57140869140625,-0.004400450270622969,-0.012314309366047382,0.039058536291122437
1761475519372385800,2.5813857421875,-0.006217525340616703,-0.017905617132782936,0.04167136549949646
1761475519382362600,2.591362548828125,-0.010302532464265823,-0.016789857298135757,0.03910005837678909
1761475519392339700,2.601339599609375,-0.01799960248172283,-0.007953755557537079,0.029126787558197975
1761475519402316500,2.611316650390625,-0.01942603476345539,0.009102243930101395,0.023285215720534325
1761475519412293600,2.621293701171875,-0.02171395719051361,0.028949452564120293,0.009659151546657085
1761475519422270700,2.631270751953125,-0.01554746925830841,0.031399182975292206,0.005978494882583618
1761475519432248600,2.64124853515625,-0.012873921543359756,0.018582191318273544,-0.006897889077663422
1761475519442225700,2.6512255859375,-0.006400659680366516,0.00480225682258606,-0.0066228099167346954
1761475519452202500,2.661202392578125,0.0022487551905214787,-0.0038663321174681187,0.006454642862081528
1761475519462179600,2.6711796875,0.005067696329206228,-0.007732070982456207,0.011550625786185265
1761475519472156700,2.68115673828125,0.00584587175399065,-0.010311342775821686,0.01717175915837288
1761475519482133500,2.691133544921875,0.005596600007265806,-0.007868424989283085,0.019785918295383453
1761475519492110800,2.70111083984375,0.01330565195530653,-0.005482764914631844,0.021893810480833054
1761475519502087700,2.711087646484375,0.022824924439191818,-0.014124144800007343,0.017701778560876846
1761475519512064800,2.721064697265625,0.028333138674497604,-0.01811569184064865,0.0038655914831906557
1761475519522041600,2.73104150390625,0.028231458738446236,-0.019280649721622467,-0.004170473664999008
1761475519532018700,2.741018798828125,0.02512168511748314,-0.019808487966656685,-0.009935684502124786
1761475519541995800,2.750995849609375,0.031193852424621582,-0.01648944988846779,-0.003470426192507148
1761475519551972600,2.76097265625,0.03261358663439751,-0.0009091581450775266,0.0069212280213832855
1761475519561949700,2.77094970703125,0.03810815513134003,-0.0021012986544519663,0.016412831842899323
1761475519571926500,2.780926513671875,0.03700321167707443,-0.01651885360479355,0.024808445945382118
1761475519581903600,2.790903564453125,0.031444866210222244,-0.025802476331591606,0.028870396316051483
1761475519591880400,2.80088037109375,0.022784268483519554,-0.02792767807841301,0.03240334615111351
1761475519601858600,2.810858642578125,0.017918230965733528,-0.027123507112264633,0.028169041499495506
1761475519611835600,2.820835693359375,0.012329855002462864,-0.016795501112937927,0.022579066455364227
1761475519621812500,2.8308125,0.0051637752912938595,-0.01813448593020439,0.01887068711221218
1761475519631789600,2.84078955078125,0.0008172299712896347,-0.006234951317310333,0.009090760722756386
1761475519641767000,2.850766845703125,0.0030780332162976265,0.0072267442010343075,0.002834389917552471
1761475519651743700,2.86074365234375,0.006961720995604992,0.014385852962732315,-0.0069010620936751366
1761475519661720800,2.870720947265625,0.008896354585886002,0.004382747691124678,-0.020285068079829216
1761475519671697700,2.88069775390625,0.007846802473068237,-0.0007273256778717041,-0.028097983449697495
1761475519681674800,2.8906748046875,0.01059748325496912,0.008686849847435951,-0.02289150469005108
1761475519691651600,2.900651611328125,0.007434980012476444,0.03052583523094654,-0.006989769637584686
1761475519701628700,2.910628662109375,0.0008317176252603531,0.03605157881975174,0.006526765879243612
1761475519711605800,2.920605712890625,-0.006839251611381769,0.026920130476355553,0.018033752217888832
1761475519721582600,2.93058251953125,-0.005494902841746807,0.0043651266023516655,0.0267428457736969
1761475519731559700,2.9405595703125,-0.008671521209180355,-0.014457562938332558,0.023703379556536674
1761475519741536500,2.95053662109375,-0.007310616318136454,-0.025505898520350456,0.017207615077495575
1761475519751513600,2.960513671875,-0.004392856732010841,-0.028521129861474037,0.011724432930350304
1761475519761491700,2.97049169921875,0.00928385928273201,-0.017104273661971092,0.005755031015723944
1761475519771468500,2.980468505859375,0.019426507875323296,-0.004962656646966934,0.0002710497356019914
1761475519781445600,2.990445556640625,0.02132939174771309,0.014505757950246334,0.0017115783412009478
1761475519791422700,3.000422607421875,0.014870425686240196,0.017911409959197044,-0.002717791125178337
1761475519801399800,3.01039990234375,0.009840833954513073,0.0008465542923659086,-0.01079748384654522
1761475519811376600,3.020376708984375,0.004647403489798307,-0.021056879311800003,-0.026279505342245102
1761475519821353700,3.030353759765625,0.009063700214028358,-0.03239111974835396,-0.03274071589112282
1761475519831330800,3.040330810546875,0.011010470800101757,-0.019455082714557648,-0.02962774969637394
1761475519841307600,3.0503076171875,0.016488807275891304,-0.0019404469057917595,-0.025924384593963623
1761475519851284700,3.06028466796875,0.029374245554208755,0.0031190267764031887,-0.019633730873465538
1761475519861261600,3.070261474609375,0.037317778915166855,-0.0011250347597524524,-0.007644374389201403
1761475519871238700,3.08023876953125,0.03740273416042328,-0.013378771021962166,0.0037486287765204906
1761475519881215500,3.090215576171875,0.03138798475265503,-0.03134205937385559,0.01354240346699953
1761475519891192600,3.100192626953125,0.024850720539689064,-0.042796581983566284,0.024667758494615555
1761475519901169700,3.110169677734375,0.016988568007946014,-0.03913574665784836,0.032856930047273636
1761475519911146800,3.120146728515625,0.010653440840542316,-0.025934189558029175,0.03882880136370659
1761475519921123800,3.130123779296875,0.006887685041874647,-0.01946745067834854,0.0361473374068737
1761475519931101400,3.140101318359375,0.01101638376712799,-0.020015263929963112,0.02836211957037449
1761475519941078800,3.150078857421875,0.011611007153987885,-0.032219573855400085,0.016925804316997528
1761475519951056000,3.160055908203125,0.015897629782557487,-0.03761354088783264,0.012074324302375317
1761475519961032200,3.1700322265625,0.016301488503813744,-0.023792581632733345,0.004397835116833448
1761475519971009300,3.18000927734375,0.010348256677389145,0.016961239278316498,-0.003051026491448283
1761475519980986000,3.189986083984375,0.014031880535185337,0.0525558739900589,-0.007162850815802813
1761475519990963200,3.199963134765625,0.01576293632388115,0.0647028237581253,-0.0096553023904562
1761475520000940000,3.20993994140625,0.01600220985710621,0.04179053381085396,-0.015181555412709713
1761475520010917000,3.219917236328125,0.015919651836156845,0.015839627012610435,-0.00926241371780634
1761475520020894200,3.229894287109375,0.014877784065902233,-0.009360282681882381,0.004269859287887812
1761475520030871000,3.23987109375,0.009651596657931805,-0.03578976169228554,0.02469976805150509
1761475520040848100,3.24984814453125,0.00036195118445903063,-0.04916195943951607,0.04361019283533096
1761475520050825200,3.2598251953125,-0.0033688710536807775,-0.03912344202399254,0.055117979645729065
1761475520060802300,3.26980224609375,-0.004685286898165941,-0.012364691123366356,0.059979069977998734
1761475520070779100,3.279779052734375,-0.00398381007835269,0.012951584532856941,0.05437471717596054
1761475520080756200,3.289756103515625,0.002647717483341694,0.016105366870760918,0.03507677838206291
1761475520090733300,3.2997333984375,0.01366974227130413,0.003226852510124445,0.015827713534235954
1761475520100711200,3.309711181640625,0.01850619725883007,-0.007884407415986061,0.002453654771670699
1761475520110688300,3.319688232421875,0.02060689777135849,-0.014506357721984386,-0.00903042871505022
1761475520120665000,3.3296650390625,0.019493835046887398,-0.012753885239362717,-0.006392252631485462
1761475520130642200,3.33964208984375,0.015806421637535095,-0.002174743451178074,-0.0027812724001705647
1761475520140619300,3.349619384765625,0.01386916171759367,-0.0013904459774494171,0.007747388910502195
1761475520150596000,3.35959619140625,0.009267219342291355,-0.004919666796922684,0.008709057234227657
1761475520160573200,3.3695732421875,0.013149179518222809,-0.01105947233736515,0.014178173616528511
1761475520170550000,3.379550048828125,0.019925326108932495,-0.007300153840333223,0.021009979769587517
1761475520180527000,3.389527099609375,0.024325042963027954,-0.008290214464068413,0.023358501493930817
1761475520190504200,3.399504150390625,0.022697318345308304,-0.01578514836728573,0.031037192791700363
1761475520200481300,3.409481201171875,0.020665965974330902,-0.01962350495159626,0.03596440330147743
1761475520210458400,3.419458251953125,0.01439901627600193,-0.029145903885364532,0.03829733282327652
1761475520220435200,3.429435302734375,0.00857144221663475,-0.033487338572740555,0.03319159522652626
1761475520230412300,3.439412353515625,0.0033404608257114887,-0.03392915800213814,0.020526930689811707
1761475520240389000,3.44938916015625,-0.0023910885211080313,-0.01731123775243759,0.008838948793709278
1761475520250366200,3.4593662109375,0.0037879778537899256,0.018539169803261757,0.003353901905938983
1761475520260343000,3.469343017578125,0.010478104464709759,0.0490744449198246,-0.0026991968043148518
1761475520270321200,3.479321044921875,0.016667291522026062,0.05805382505059242,-0.008553624153137207
1761475520280298200,3.48929833984375,0.017605004832148552,0.04379408806562424,-0.010459672659635544
1761475520290275000,3.499275146484375,0.016676360741257668,0.01750149577856064,-0.004797791596502066
1761475520300252200,3.509252197265625,0.013889196328818798,-0.009246395900845528,0.00797179713845253
1761475520310229000,3.51922900390625,0.004957753233611584,-0.047329068183898926,0.012713821604847908
1761475520320206000,3.5292060546875,-0.005309631582349539,-0.06259972602128983,0.018598077818751335
1761475520330183200,3.53918310546875,0.00003666419070214033,-0.04857312887907028,0.024963032454252243
1761475520340160300,3.54916015625,0.0025343673769384623,-0.014457771554589272,0.028097692877054214
1761475520350137300,3.559137451171875,0.0036576888523995876,0.012922720052301884,0.025104831904172897
1761475520360114200,3.5691142578125,0.00440923310816288,0.007872301153838634,0.013622081838548183
1761475520370091300,3.57909130859375,-0.0025251060724258423,-0.007369235157966614,-0.0002106433385051787
1761475520380068000,3.589068115234375,-0.008325386792421341,-0.01802513748407364,-0.014328302815556526
1761475520390045200,3.599045166015625,-0.008600491099059582,-0.021063538268208504,-0.024323146790266037
1761475520400022300,3.609022216796875,-0.007497836370021105,-0.020012596622109413,-0.03313305228948593
1761475520409999000,3.6189990234375,-0.011773540638387203,-0.009980735369026661,-0.03564973920583725
1761475520419976200,3.62897607421875,-0.00982495117932558,0.0019984811078757048,-0.036837171763181686
1761475520429953000,3.638953125,-0.006219297647476196,0.010000747628509998,-0.03487175703048706
1761475520439930000,3.64893017578125,-0.008876730687916279,0.014645147137343884,-0.027240153402090073
1761475520449908200,3.658908203125,-0.01102377101778984,0.014061116613447666,-0.026776229962706566
1761475520459885000,3.668885009765625,-0.008032020181417465,0.01027069054543972,-0.01881197653710842
1761475520469862100,3.678862060546875,-0.0048399558290839195,0.01026776060461998,-0.013622540980577469
1761475520479839000,3.6888388671875,-0.004599106963723898,0.007847311906516552,-0.00567087484523654
1761475520489816000,3.698816162109375,-0.004613221623003483,-0.0037688640877604485,0.005762341897934675
1761475520499793200,3.708793212890625,-0.0024884301237761974,-0.017384588718414307,0.0147164948284626
1761475520509770200,3.718770263671875,0.0002863174304366112,-0.02685265988111496,0.016371915116906166
1761475520519747300,3.728747314453125,-0.002013824414461851,-0.02881402149796486,0.020658224821090698
1761475520529724200,3.73872412109375,-0.007961462251842022,-0.012178586795926094,0.021176476031541824
1761475520539701200,3.748701171875,-0.005354554392397404,0.00971302017569542,0.01957681216299534
1761475520549678000,3.758677978515625,-0.004667192697525024,0.036233577877283096,0.0112472428008914
1761475520559655200,3.7686552734375,-0.004872476682066917,0.04044212028384209,-0.0008177479030564427
1761475520569632000,3.778632080078125,-0.005512966774404049,0.020586121827363968,-0.014931170269846916
1761475520579609000,3.788609130859375,-0.005246917251497507,-0.004913643933832645,-0.03420846164226532
1761475520589586200,3.798586181640625,-0.0008673488046042621,-0.012507114559412003,-0.0372103750705719
1761475520599563000,3.80856298828125,0.0007163113914430141,-0.0022965082898736,-0.028597787022590637
1761475520609540400,3.818540283203125,-0.005278730299323797,0.019241275265812874,-0.022156398743391037
1761475520619517200,3.82851708984375,-0.0053269872441887856,0.027339797466993332,-0.011223661713302135
1761475520629495000,3.8384951171875,-0.006146175786852837,0.029177645221352577,-0.004532735329121351
1761475520639472000,3.84847216796875,-0.003425018396228552,0.016536841168999672,0.0011337683536112309
1761475520649449200,3.85844921875,0.0013529588468372822,-0.0005124494200572371,-0.004324380308389664
1761475520659426300,3.86842626953125,0.0017421676311641932,-0.018684575334191322,-0.009974733926355839
1761475520669403100,3.878403076171875,0.0024220726918429136,-0.027071401476860046,-0.012160124257206917
1761475520679380200,3.888380126953125,0.002399214543402195,-0.018236681818962097,-0.014146647416055202
1761475520689357300,3.898357421875,-0.00041201815474778414,0.000032602110877633095,-0.00919556524604559
1761475520699334100,3.908334228515625,-0.0009258474456146359,0.015696458518505096,-0.0009127005469053984
1761475520709311200,3.918311279296875,-0.004842025693506002,0.01596090942621231,0.004461292177438736
1761475520719288000,3.9282880859375,-0.012842298485338688,0.005683390889316797,0.0014950134791433811
1761475520729265200,3.93826513671875,-0.01727752760052681,-0.005342628341168165,0.0030825238209217787
1761475520739242000,3.948241943359375,-0.02224968746304512,-0.016801932826638222,0.0006661443039774895
1761475520749219000,3.958218994140625,-0.019150568172335625,-0.018253888934850693,0.001866697333753109
1761475520759196200,3.968196044921875,-0.014300393871963024,-0.02089298516511917,0.002094781491905451
1761475520769173200,3.97817333984375,-0.011619655415415764,-0.02185997925698757,-0.0038360783364623785
1761475520779150300,3.988150390625,-0.01638447865843773,-0.003573592286556959,-0.00854258518666029
1761475520789127200,3.998127197265625,-0.023279136046767235,0.026110799983143806,-0.014517386443912983
1761475520799104300,4.008104248046875,-0.02708875574171543,0.05257415398955345,-0.021836599335074425
1761475520809081000,4.0180810546875,-0.022487612441182137,0.059515684843063354,-0.0332983136177063
1761475520819058200,4.02805810546875,-0.009216123260557652,0.05085928738117218,-0.031157761812210083
1761475520829036300,4.038036376953125,-0.003615761175751686,0.0336557999253273,-0.022682251408696175
1761475520839013000,4.04801318359375,0.00011618691496551037,0.012662207707762718,-0.009188910946249962
1761475520848990200,4.057990234375,-0.0030356640927493572,-0.01055443100631237,0.0033649648539721966
1761475520858967000,4.067967041015625,-0.015112628228962421,-0.02411455661058426,0.017278479412198067
1761475520868944100,4.077944091796875,-0.019200313836336136,-0.025763586163520813,0.025689275935292244
1761475520878921200,4.087921142578125,-0.02421051822602749,-0.025299664586782455,0.023222921416163445
1761475520888898000,4.09789794921875,-0.023866703733801842,-0.020728880539536476,0.013400916941463947
1761475520898875100,4.107875244140625,-0.02031445875763893,-0.008485578000545502,-0.0016884793294593692
1761475520908852200,4.117852294921875,-0.013334313407540321,0.0018307093996554613,-0.010405005887150764
1761475520918829300,4.127829345703125,-0.009424511343240738,0.01124381273984909,-0.02001344785094261
1761475520928806100,4.13780615234375,-0.01009749248623848,0.01821650192141533,-0.029355816543102264
1761475520938783200,4.147783203125,-0.007113450672477484,0.009610441513359547,-0.038916248828172684
1761475520948760300,4.15776025390625,-0.014523164369165897,0.0035426951944828033,-0.03749385476112366
1761475520958738000,4.167738037109375,-0.01426568254828453,-0.0012860976858064532,-0.03511717915534973
1761475520968715000,4.177715087890625,-0.015261704102158546,-0.009206072427332401,-0.02958712726831436
1761475520978691800,4.18769189453125,-0.012127429246902466,-0.017309006303548813,-0.02482566051185131
1761475520988669000,4.1976689453125,-0.008876509964466095,-0.0030504418537020683,-0.01664895750582218
1761475520998646000,4.20764599609375,-0.00943889282643795,0.00805654190480709,-0.009476917795836926
1761475521008623900,4.217623779296875,-0.012238673865795135,0.012037434615194798,-0.0021108805667608976
1761475521018601000,4.22760107421875,-0.011235104873776436,0.006305145099759102,0.002345510059967637
1761475521028577800,4.237577880859375,-0.01594517193734646,-0.008786189369857311,-0.00010726142500061542
1761475521038555000,4.247554931640625,-0.013879211619496346,-0.008965106680989265,0.004918314516544342
1761475521048532000,4.257531982421875,-0.0104517238214612,-0.002419856144115329,0.005247747525572777
1761475521058508800,4.2675087890625,-0.007666855584830046,0.003340561408549547,0.007598786149173975
1761475521068486000,4.27748583984375,-0.008633583784103394,0.018114447593688965,0.018669547513127327
1761475521078462700,4.287462646484375,-0.010411067865788937,0.026909904554486275,0.02655690908432007
1761475521088440000,4.297440185546875,-0.01641143672168255,0.029985323548316956,0.028332438319921494
1761475521098417000,4.3074169921875,-0.01459441613405943,0.031128205358982086,0.025326991453766823
1761475521108394000,4.31739404296875,-0.012607963755726814,0.0339980274438858,0.013804026879370213
1761475521118371000,4.32737109375,-0.00768628204241395,0.021623855456709862,0.008870420977473259
1761475521128348000,4.337347900390625,-0.010955311357975006,0.012377891689538956,-0.0034203329123556614
1761475521138325000,4.347324951171875,-0.009812739677727222,0.006423334591090679,0.00142783229239285
1761475521148301800,4.3573017578125,-0.008510987274348736,0.0020304506178945303,0.004026544746011496
1761475521158279000,4.36727880859375,-0.015617542900145054,0.0023043884430080652,0.0102382255718112
1761475521168255700,4.377255859375,-0.018405871465802193,0.0022905401419848204,0.005429621785879135
1761475521178233900,4.38723388671875,-0.014940482564270496,0.008308954536914825,0.0011725786607712507
1761475521188211000,4.3972109375,-0.007946488447487354,0.020288120955228806,-0.00508425198495388
1761475521198187800,4.407187744140625,0.002247293945401907,0.026548944413661957,-0.012762944214046001
1761475521208164900,4.417164794921875,0.00944501906633377,0.02350521832704544,-0.00974265392869711
1761475521218142000,4.427141845703125,0.015043044462800026,0.017859691753983498,-0.0058944812044501305
1761475521228118800,4.437118896484375,0.014549294486641884,-0.0007382266921922565,-0.0033242646604776382
1761475521238096000,4.447095947265625,0.011236216872930527,-0.021274719387292862,0.0005934130167588592
1761475521248073000,4.457072998046875,-0.0005759686464443803,-0.020128760486841202,0.008434823714196682
1761475521258050000,4.467050048828125,-0.004991826135665178,-0.0006544385105371475,0.018498865887522697
1761475521268027000,4.47702685546875,-0.0035587791353464127,0.013557253405451775,0.02351492829620838
1761475521278004000,4.48700390625,0.00011333310976624489,0.007355065084993839,0.025338586419820786
1761475521287981000,4.49698095703125,0.008483648300170898,-0.01078851893544197,0.02091241255402565
1761475521297958000,4.5069580078125,0.010357348248362541,-0.018206318840384483,0.016036169603466988
1761475521307935000,4.51693505859375,0.010527257807552814,-0.0177109707146883,0.01760983094573021
1761475521317911800,4.526911865234375,0.006499950308352709,-0.009437331929802895,0.010653506964445114
1761475521327889000,4.536888916015625,-0.001283404533751309,-0.004824204370379448,0.006020139437168837
1761475521337865700,4.54686572265625,-0.007480374537408352,-0.011236939579248428,-0.004242522642016411
1761475521347842800,4.5568427734375,-0.010344604030251503,-0.016151271760463715,-0.0043005794286727905
1761475521357821000,4.566821044921875,-0.011395061388611794,-0.007614833768457174,-0.0026926614809781313
1761475521367797800,4.5767978515625,-0.007119355257600546,0.01677333004772663,0.008912328630685806
1761475521377774800,4.58677490234375,-0.0005096710519865155,0.039975691586732864,0.016542576253414154
1761475521387752000,4.596751953125,0.002441111486405134,0.04249051585793495,0.023941103368997574
1761475521397729000,4.60672900390625,-0.0038781524635851383,0.02360152266919613,0.023592257872223854
1761475521407706000,4.6167060546875,-0.014065275900065899,0.008397536352276802,0.02303325943648815
1761475521417683000,4.626682861328125,-0.019029926508665085,-0.007884337566792965,0.01540727261453867
1761475521427660000,4.636659912109375,-0.021561793982982635,-0.023997528478503227,0.008352026343345642
1761475521437636900,4.646636962890625,-0.02169126830995083,-0.035590216517448425,-0.0003111641854047775
1761475521447614000,4.656614013671875,-0.021600188687443733,-0.030852453783154488,-0.00601219292730093
1761475521457590800,4.6665908203125,-0.012714858166873455,-0.010004149749875069,-0.008573178201913834
1761475521467567900,4.67656787109375,-0.006605833303183317,0.009791126474738121,-0.013501358218491077
1761475521477545000,4.686544921875,-0.00894650537520647,0.023475389927625656,-0.02108665369451046
1761475521487521800,4.696521728515625,-0.014355119317770004,0.022091876715421677,-0.03348420187830925
1761475521497499000,4.706498779296875,-0.014157094992697239,0.004696384537965059,-0.04051651433110237
1761475521507476000,4.71647607421875,-0.012252136133611202,-0.014112456701695919,-0.042538922280073166
1761475521517453000,4.726453125,-0.01482994481921196,-0.03506099805235863,-0.0338544063270092
1761475521527430000,4.736429931640625,-0.012227237224578857,-0.03466818109154701,-0.01915189065039158
1761475521537407000,4.746406982421875,-0.004282922483980656,-0.016722142696380615,-0.00131154281552881
1761475521547384000,4.756384033203125,0.008689068257808685,-0.0024087175261229277,0.005110669881105423
1761475521557362000,4.76636181640625,0.01884445548057556,0.0024390853941440582,0.007207448594272137
1761475521567339000,4.776339111328125,0.018936866894364357,0.0012606366071850061,0.0011578116100281477
1761475521577315800,4.78631591796875,0.016375407576560974,-0.006014908663928509,0.0005972639191895723
1761475521587293000,4.79629296875,0.007937182672321796,-0.004593312740325928,0.0010196412913501263
1761475521597270000,4.80627001953125,0.005595168564468622,0.00043974025174975395,0.014113386161625385
1761475521607246800,4.816246826171875,0.0050620040856301785,0.0011721095070242882,0.02446163259446621
1761475521617224000,4.826223876953125,0.002182894619181752,0.001782257342711091,0.031978197395801544
1761475521627200800,4.83620068359375,0.004879345186054707,-0.006103096064180136,0.0351841077208519
1761475521637177900,4.846177734375,0.0017162039875984192,-0.012316044420003891,0.032076362520456314
1761475521647154700,4.85615478515625,-0.002639928599819541,-0.01875210553407669,0.020995749160647392
1761475521657132000,4.866132080078125,-0.011260509490966797,-0.02478944882750511,0.004440519493073225
1761475521667109000,4.876109130859375,-0.015378821641206741,-0.005357162561267614,-0.006134094204753637
1761475521677086000,4.8860859375,-0.012568473815917969,0.02604849450290203,-0.013002939522266388
1761475521687063000,4.89606298828125,-0.01594802550971508,0.042266346514225006,-0.018267208710312843
1761475521697040000,4.906039794921875,-0.01651843450963497,0.0370878204703331,-0.02278570458292961
1761475521707017000,4.916016845703125,-0.01356498897075653,0.033438220620155334,-0.024614229798316956
1761475521716993800,4.925993896484375,-0.01599210314452648,0.02767104282975197,-0.018991641700267792
1761475521726971000,4.935970947265625,-0.015113793313503265,0.021472003310918808,-0.018030773848295212
1761475521736948000,4.945947998046875,-0.015523592941462994,0.005209787283092737,-0.014123744331300259
1761475521746925800,4.95592578125,-0.016096971929073334,-0.009841067716479301,-0.006812301930040121
1761475521756903000,4.96590283203125,-0.011233135126531124,-0.02040470391511917,-0.004684602376073599
1761475521766880000,4.9758798828125,-0.007743595167994499,-0.022231366485357285,0.004571213852614164
1761475521776856800,4.98585693359375,-0.0073325238190591335,-0.01931995153427124,0.006996212061494589
1761475521786834000,4.995833984375,-0.003333787200972438,-0.011949386447668076,0.003502144478261471
1761475521796810800,5.005810791015625,-0.0005972092039883137,-0.0018847042229026556,0.006023607216775417
1761475521806787800,5.015787841796875,-0.0033423956483602524,-0.0063391076400876045,0.0008339054184034467
1761475521816765000,5.025764892578125,-0.0037675558123737574,-0.01368698850274086,-0.004421653691679239
1761475521826742000,5.035741943359375,0.0009502338944002986,-0.022621627897024155,0.0011704518692567945
1761475521836719000,5.045718994140625,0.0055115604773163795,-0.020432889461517334,0.006840536370873451
1761475521846696000,5.055696044921875,0.006277219392359257,-0.008899537846446037,0.013472872786223888
1761475521856673000,5.065673095703125,0.003585787955671549,0.004077791702002287,0.012271163985133171
1761475521866649900,5.07564990234375,0.0033650118857622147,0.009558577090501785,0.006214603316038847
1761475521876627000,5.085626953125,-0.00014139589620754123,0.00935521349310875,-0.010903255082666874
1761475521886603800,5.095603759765625,0.00016300345305353403,0.011492399498820305,-0.02060861326754093
1761475521896580900,5.105580810546875,-0.0017067317385226488,0.019544510170817375,-0.031698502600193024
1761475521906558000,5.115557861328125,0.005293121095746756,0.02373339608311653,-0.035244766622781754
1761475521916534800,5.12553466796875,0.012592730112373829,0.020810052752494812,-0.032501157373189926
1761475521926512000,5.13551220703125,0.018684176728129387,0.016686148941516876,-0.02464216575026512
1761475521936489000,5.145489013671875,0.014080164954066277,0.020609626546502113,-0.011354152113199234
1761475521946466800,5.155466796875,0.00656605651602149,0.022078892216086388,-0.002570780459791422
1761475521956444200,5.165444091796875,0.0022621620446443558,0.01026642881333828,0.007613239344209433
1761475521966421200,5.175421142578125,-0.007011496927589178,0.0006271172314882278,0.015096188522875309
1761475521976398300,5.1853984375,-0.014615842141211033,-0.008036728948354721,0.014878270216286182
1761475521986375200,5.195375244140625,-0.01544168870896101,-0.016603052616119385,0.01983947493135929
1761475521996352300,5.205352294921875,-0.01696576550602913,-0.019895074889063835,0.009848392568528652
1761475522006329000,5.2153291015625,-0.010190950706601143,-0.025130050256848335,0.0032485462725162506
1761475522016306200,5.22530615234375,-0.00917587336152792,-0.029834479093551636,-0.011631145142018795
1761475522026283300,5.235283203125,-0.010094929486513138,-0.021563231945037842,-0.028631966561079025
1761475522036260000,5.245260009765625,-0.011665130034089088,-0.0034476122818887234,-0.03935305029153824
1761475522046237200,5.2552373046875,-0.015682773664593697,0.004525625146925449,-0.05224195122718811
1761475522056214000,5.265214111328125,-0.014555579051375389,-0.001655258471146226,-0.06103658676147461
1761475522066191000,5.275191162109375,-0.019102927297353745,-0.01259605772793293,-0.06651497632265091
1761475522076168000,5.28516796875,-0.01631588488817215,-0.017098447307944298,-0.06514006108045578
1761475522086145300,5.295145263671875,-0.010970919393002987,-0.007187227718532085,-0.052876200526952744
1761475522096122400,5.305122314453125,-0.0061759427189826965,0.008438121527433395,-0.031699471175670624
1761475522106099200,5.31509912109375,0.0023648147471249104,0.01268080435693264,-0.013192897662520409
1761475522116076300,5.325076171875,0.0027641276828944683,0.006457587704062462,0.00014271432883106172
1761475522126053000,5.33505322265625,0.005351388826966286,-0.013522511348128319,0.014984244480729103
1761475522136030200,5.3450302734375,0.0013253267388790846,-0.019303107634186745,0.03301607817411423
1761475522146008300,5.35500830078125,-0.0025817968416959047,-0.008193200454115868,0.0359032116830349
1761475522155985200,5.364985107421875,0.002139957854524255,0.007346821948885918,0.04408155754208565
1761475522165962200,5.374962158203125,0.0012765610590577126,0.01573205180466175,0.036000195890665054
1761475522175939000,5.38493896484375,-0.0024526037741452456,0.0167742557823658,0.02159133553504944
1761475522185916200,5.394916259765625,-0.005615373607724905,0.008586367592215538,0.007886707782745361
1761475522195893200,5.404893310546875,-0.00800467561930418,0.009613217785954475,-0.0034618028439581394
1761475522205870000,5.4148701171875,-0.01010724063962698,0.028851095587015152,-0.008048033341765404
1761475522215847200,5.42484716796875,-0.012382037937641144,0.04100017622113228,-0.0065317475236952305
1761475522225824000,5.434823974609375,-0.018233003094792366,0.04556962847709656,-0.010956056416034698
1761475522235801300,5.44480126953125,-0.017944330349564552,0.033539965748786926,-0.006754363887012005
1761475522245778200,5.454778076171875,-0.016347499564290047,0.02021297626197338,0.0027342126704752445
1761475522255755300,5.46475537109375,-0.01613319106400013,0.011674877256155014,0.009358145296573639
1761475522265732400,5.474732421875,-0.013708914630115032,-0.005186128430068493,0.017646169289946556
1761475522275709200,5.484709228515625,-0.016626005992293358,-0.015245571732521057,0.017335163429379463
1761475522285686300,5.494686279296875,-0.014671779237687588,-0.012470558285713196,0.02117730677127838
1761475522295663000,5.5046630859375,-0.012400403618812561,-0.0017841088119894266,0.017826994881033897
1761475522305640200,5.51464013671875,-0.012043805792927742,0.00846133753657341,0.008392480202019215
1761475522315617000,5.524616943359375,-0.008609670214354992,0.011029224842786789,-0.00030847254674881697
1761475522325594000,5.534593994140625,-0.008648019284009933,0.005356159992516041,-0.009255894459784031
1761475522335571200,5.5445712890625,-0.002927786437794566,-0.006626678165048361,-0.026140915229916573
1761475522345549000,5.554549072265625,0.005453447811305523,-0.018803182989358902,-0.034028664231300354
1761475522355526100,5.564526123046875,0.010775790549814701,-0.021235020831227303,-0.03786204382777214
1761475522365503000,5.5745029296875,0.013061314821243286,-0.00335082970559597,-0.03240016847848892
1761475522375480000,5.58447998046875,0.009038475342094898,0.000034732744097709656,-0.023266110569238663
1761475522385457200,5.59445703125,0.006245884578675032,-0.005743794143199921,-0.010044047608971596
1761475522395434200,5.604434326171875,0.0016713461373001337,-0.008113833144307137,0.0023214295506477356
1761475522405411300,5.614411376953125,0.007617918308824301,-0.015081727877259254,0.014214041642844677
1761475522415388200,5.62438818359375,0.011477740481495857,-0.012725799344480038,0.022517237812280655
1761475522425365200,5.634365234375,0.016146527603268623,-0.012882659211754799,0.026087205857038498
1761475522435342000,5.644342041015625,0.01430705189704895,-0.016954155638813972,0.029572799801826477
1761475522445319200,5.654319091796875,0.01580268330872059,-0.006190457381308079,0.0252052154392004
1761475522455296300,5.664296142578125,0.018194321542978287,0.004304481670260429,0.015956666320562363
1761475522465273000,5.674273193359375,0.015386550687253475,0.02085656113922596,0.0023068999871611595
1761475522475250200,5.684250244140625,0.01666957326233387,0.032511718571186066,-0.0025817230343818665
1761475522485227000,5.69422705078125,0.015512162819504738,0.040390416979789734,-0.010003953240811825
1761475522495204000,5.7042041015625,0.010171975940465927,0.03719206526875496,-0.01383302267640829
1761475522505181200,5.71418115234375,0.00835809763520956,0.025207309052348137,-0.0026440173387527466
1761475522515158300,5.724158203125,0.005237836390733719,0.02011205069720745,0.004195785615593195
1761475522525135400,5.73413525390625,0.004959269892424345,0.01195745263248682,0.019294578582048416
1761475522535112200,5.7441123046875,0.014979514293372631,0.012643312104046345,0.02628190629184246
1761475522545089300,5.75408935546875,0.021540479734539986,0.0018093071412295103,0.030937112867832184
1761475522555067100,5.764067138671875,0.02423269860446453,-0.013040690682828426,0.03498799726366997
1761475522565044200,5.774044189453125,0.02470913715660572,-0.010516813024878502,0.034911032766103745
1761475522575021300,5.784021240234375,0.016839098185300827,-0.00468357652425766,0.027603374794125557
1761475522584998100,5.793998046875,0.010646183975040913,-0.006146450527012348,0.017708133906126022
1761475522594975200,5.803975341796875,0.004767905455082655,-0.015388693660497665,0.0011994329979643226
1761475522604952000,5.8139521484375,0.00791309867054224,-0.021102240309119225,-0.010927004739642143
1761475522614929200,5.82392919921875,0.010148187167942524,-0.01788150891661644,-0.01739448495209217
1761475522624906000,5.833906005859375,0.014081410132348537,-0.01813451014459133,-0.01570923626422882
1761475522634883000,5.843883056640625,0.008049020543694496,-0.02186247520148754,-0.010809563100337982
1761475522644860200,5.853860107421875,0.003347475780174136,-0.026198366656899452,-0.0042091854847967625
1761475522654837200,5.863837158203125,-0.00039935129461809993,-0.023913735523819923,-0.005402661394327879
1761475522664814300,5.873814453125,0.008500666357576847,-0.01963057368993759,-0.004962441045790911
1761475522674791200,5.883791259765625,0.01698658987879753,-0.014673005789518356,-0.00402888935059309
1761475522684768300,5.893768310546875,0.02340826950967312,-0.01938733272254467,-0.0038235594984143972
1761475522694745000,5.9037451171875,0.024647708982229233,-0.0254356749355793,-0.005049306899309158
1761475522704722200,5.91372216796875,0.022595742717385292,-0.019943971186876297,0.0038371284026652575
1761475522714699300,5.92369921875,0.02625131607055664,-0.012119383551180363,0.010226396843791008
1761475522724676000,5.933676025390625,0.02684520184993744,-0.0027826069854199886,0.014620079658925533
1761475522734653200,5.943653076171875,0.02639853022992611,0.004866413772106171,0.018149927258491516
1761475522744630000,5.953630126953125,0.02346212789416313,0.011322448030114174,0.01925194449722767
1761475522754607000,5.963607177734375,0.024060111492872238,0.016147127375006676,0.019219445064663887
1761475522764585200,5.973585205078125,0.02742980793118477,0.014318069443106651,0.019277501851320267
1761475522774562000,5.98356201171875,0.02894962951540947,0.012116484344005585,0.02241557650268078
1761475522784539100,5.9935390625,0.02065042033791542,0.005157910753041506,0.023242220282554626
1761475522794516000,6.003515869140625,0.011675848625600338,-0.007236813195049763,0.025218797847628593
1761475522804493300,6.013493408203125,-0.00005644100019708276,-0.016236433759331703,0.018318014219403267
1761475522814470100,6.02347021484375,-0.008398999460041523,-0.011826926842331886,0.013531153090298176
1761475522824447200,6.033447265625,-0.004576830193400383,0.0016244326252490282,0.001705119851976633
1761475522834424300,6.04342431640625,0.0015176667366176844,0.0075288815423846245,-0.007779650390148163
1761475522844401200,6.053401123046875,0.011829426512122154,0.0048324307426810265,-0.014646344818174839
1761475522854378200,6.063378173828125,0.016672931611537933,0.005064553115516901,-0.024832161143422127
1761475522864355000,6.07335498046875,0.0167781263589859,0.006783623713999987,-0.028608256950974464
1761475522874332200,6.083332275390625,0.015354045666754246,0.018082717433571815,-0.030043825507164
1761475522884309000,6.09330908203125,0.012087145820260048,0.022707829251885414,-0.027229396626353264
1761475522894286000,6.1032861328125,0.00859503261744976,0.019334834069013596,-0.023785805329680443
1761475522904263200,6.11326318359375,0.0060999165289103985,0.0030197780579328537,-0.016814447939395905
1761475522914240000,6.123239990234375,0.008080314844846725,-0.010688535869121552,-0.010376215912401676
1761475522924217300,6.13321728515625,0.012680659070611,-0.023889027535915375,0.0011424887925386429
1761475522934194200,6.143194091796875,0.017528517171740532,-0.0277436263859272,0.004138912074267864
1761475522944171300,6.153171142578125,0.018697910010814667,-0.023194948211312294,0.01271722000092268
1761475522954148000,6.163148193359375,0.022667041048407555,-0.01812024414539337,0.011412075720727444
1761475522964125200,6.173125244140625,0.024727262556552887,-0.0051977867260575294,-0.000039516904507763684
1761475522974102300,6.183102294921875,0.029764335602521896,-0.002806589473038912,-0.00469227833673358
1761475522984079000,6.1930791015625,0.024114172905683517,-0.012289040721952915,-0.013855417259037495
1761475522994057200,6.20305712890625,0.01811216212809086,-0.009667107835412025,-0.017487632110714912
1761475523004034300,6.213034423828125,0.014712103642523289,-0.017677098512649536,-0.02252446860074997
1761475523014011100,6.22301123046875,0.019803965464234352,-0.01902928203344345,-0.019062884151935577
1761475523023988200,6.23298828125,0.013700000941753387,-0.005387504585087299,-0.012111500836908817
1761475523033965000,6.242965087890625,0.006159482058137655,0.008626898750662804,-0.003416476072743535
1761475523043942100,6.252942138671875,0.00011730199912562966,0.015604378655552864,0.00434077950194478
1761475523053919000,6.2629189453125,0.0024430404882878065,0.02244470827281475,0.017277617007493973
1761475523063896000,6.27289599609375,0.004924041219055653,0.008614914491772652,0.02936437353491783
1761475523073873400,6.282873291015625,0.001384951639920473,-0.015900444239377975,0.03465050458908081
1761475523083850200,6.292850341796875,0.0033927089534699917,-0.027582399547100067,0.03974539786577225
1761475523093827300,6.302827392578125,0.009191595017910004,-0.034539420157670975,0.038302309811115265
1761475523103804200,6.31280419921875,0.012513621710240841,-0.02066941000521183,0.03118101693689823
1761475523113781200,6.32278125,0.014618851244449615,-0.012588315643370152,0.019966712221503258
1761475523123758000,6.332758056640625,0.009967640042304993,0.0011759661138057709,0.011113299988210201
1761475523133735200,6.342735107421875,0.010726640932261944,0.014577259309589863,0.01240200363099575
1761475523143712300,6.352712158203125,0.0054892683401703835,0.028578829020261765,0.008462656289339066
1761475523153689000,6.362689208984375,0.0008341649663634598,0.03305623307824135,0.0004214998916722834
1761475523163666200,6.372666259765625,0.004104793071746826,0.026819108054041862,-0.008303548209369183
1761475523173643000,6.38264306640625,0.008572557009756565,0.013930955901741982,-0.021356305107474327
1761475523183620000,6.3926201171875,0.013096202164888382,-0.008378079161047935,-0.02311399206519127
1761475523193597200,6.40259716796875,0.014338227920234203,-0.02649507112801075,-0.025231774896383286
1761475523203574300,6.41257421875,0.011564812622964382,-0.0355767160654068,-0.01778823882341385
1761475523213551400,6.42255126953125,0.005370608530938625,-0.028300177305936813,-0.008507037535309792
1761475523223529200,6.432529296875,0.0020035740453749895,-0.01996901072561741,-0.007031912915408611
1761475523233506300,6.44250634765625,0.00019050890114158392,-0.02577693574130535,-0.019407380372285843
1761475523243483100,6.452483154296875,0.0008949150214903057,-0.02805154211819172,-0.027247458696365356
1761475523253460200,6.462460205078125,0.0010431361151859164,-0.018440451472997665,-0.03236895427107811
1761475523263437300,6.472437255859375,0.0065409657545387745,-0.004148863721638918,-0.03574264794588089
1761475523273414100,6.4824140625,0.016191061586141586,-0.00198196480050683,-0.0339442677795887
1761475523283391200,6.49239111328125,0.02332220785319805,-0.005887490697205067,-0.025929750874638557
1761475523293368000,6.5023681640625,0.021829670295119286,-0.011879699304699898,-0.023194409906864166
1761475523303345200,6.51234521484375,0.016360869631171227,-0.016731178387999535,-0.009561954997479916
1761475523313322000,6.522322021484375,0.005986259318888187,-0.00575629249215126,0.004613784607499838
1761475523323299000,6.532299072265625,0.00274492590688169,0.009661812335252762,0.0042329528369009495
1761475523333276200,6.542276123046875,-0.0000688529689796269,0.02244417555630207,0.0026787007227540016
1761475523343253200,6.552253173828125,0.00438102288171649,0.011487133800983429,0.0035881702788174152
1761475523353230300,6.562230224609375,0.007312037982046604,-0.007503978908061981,0.008267438970506191
1761475523363207200,6.572207275390625,0.0033708258997648954,-0.01647270657122135,0.01850862428545952
1761475523373184300,6.582184326171875,-0.002266655443236232,-0.019073111936450005,0.025606222450733185
1761475523383161000,6.5921611328125,-0.006361532025039196,-0.017225677147507668,0.025168398395180702
1761475523393138200,6.60213818359375,-0.012392319738864899,-0.009458412416279316,0.01561520155519247
1761475523403115300,6.612115234375,-0.008350706659257412,0.003737816819921136,0.005854981951415539
1761475523413092000,6.622092041015625,-0.006318226922303438,0.014451229944825172,-0.011573206633329391
1761475523423069200,6.632069091796875,-0.006847663316875696,0.01961057260632515,-0.026619000360369682
1761475523433047000,6.642047119140625,-0.007612448185682297,0.024656735360622406,-0.03455214202404022
1761475523443024100,6.652024169921875,-0.00775439478456974,0.014711160212755203,-0.03293640539050102
1761475523453001200,6.662001220703125,-0.010161344893276691,0.011973325163125992,-0.023357568308711052
1761475523462978000,6.67197802734375,-0.00949262548238039,0.00907660461962223,-0.0074656871147453785
1761475523472955100,6.681955078125,-0.01023209560662508,0.0009948762599378824,0.005602037068456411
1761475523482932000,6.691931884765625,-0.000503834686242044,-0.01091478019952774,0.012823197990655899
1761475523492909300,6.701909423828125,0.001087078358978033,-0.01407393254339695,0.008351577445864677
1761475523502886100,6.71188623046875,0.0030911071226000786,-0.019696131348609924,0.008806978352367878
1761475523512863200,6.72186328125,0.0020671661477535963,-0.01474376767873764,0.008838600479066372
1761475523522840300,6.73184033203125,0.003669323865324259,-0.0024807099252939224,0.0024661882780492306
1761475523532817200,6.741817138671875,0.006527013145387173,0.006653123535215855,-0.006450639106333256
1761475523542794200,6.751794189453125,0.007225293666124344,-0.005743091925978661,-0.014092845842242241
1761475523552771000,6.76177099609375,0.009321542456746101,-0.01331019401550293,-0.020954597741365433
1761475523562748200,6.771748046875,0.0038839003536850214,-0.008720767684280872,-0.03200618550181389
1761475523572725000,6.78172509765625,-0.0008578281849622726,0.0037460774183273315,-0.035518940538167953
1761475523582702000,6.7917021484375,-0.0002327843103557825,0.020381512120366096,-0.038667596876621246
1761475523592679200,6.80167919921875,0.0014903978444635868,0.031144671142101288,-0.0364108607172966
1761475523602656000,6.811656005859375,0.004122399725019932,0.024030301719903946,-0.024488957598805428
1761475523612633300,6.82163330078125,0.003353679785504937,0.004243928007781506,-0.016351614147424698
1761475523622610200,6.831610107421875,0.006947882007807493,-0.020865153521299362,-0.0066467891447246075
1761475523632587300,6.841587158203125,0.006381544284522533,-0.03163658455014229,0.0050686923786997795
1761475523642564000,6.851564208984375,0.0028392740059643984,-0.023187439888715744,0.01961061730980873
1761475523652541200,6.861541259765625,-0.0015719395596534014,0.001944459043443203,0.03017967753112316
1761475523662518300,6.871518310546875,-0.002595126163214445,0.02554672211408615,0.038099389523267746
1761475523672496000,6.88149609375,-0.0010574932675808668,0.030540447682142258,0.04126589372754097
1761475523682473200,6.89147314453125,-0.0018931932281702757,0.020252125337719917,0.037272483110427856
1761475523692450300,6.9014501953125,-0.006908663082867861,0.007239461410790682,0.02873200736939907
1761475523702427100,6.91142724609375,-0.009331339970231056,-0.0013915771851316094,0.02169806696474552
1761475523712404200,6.921404296875,-0.010555699467658997,0.00281269452534616,0.013388367369771004
1761475523722381000,6.931381103515625,-0.014507564716041088,0.014512226916849613,0.004409786779433489
1761475523732358100,6.941358154296875,-0.014829408377408981,0.026547737419605255,-0.005146489012986422
1761475523742335000,6.9513349609375,-0.018443051725625992,0.019862936809659004,-0.019397329539060593
1761475523752312000,6.96131201171875,-0.01847805641591549,0.013149382546544075,-0.030543159693479538
1761475523762289400,6.971289306640625,-0.02004719153046608,0.01504741795361042,-0.04094040393829346
1761475523772266200,6.981266357421875,-0.02229602262377739,0.016544271260499954,-0.040394630283117294
1761475523782243300,6.991243408203125,-0.027491850778460503,0.0024295158218592405,-0.03535965830087662
1761475523792220200,7.00122021484375,-0.04236795753240585,-0.017597239464521408,-0.021088914945721626
1761475523802197200,7.011197265625,-0.050269290804862976,-0.02295525185763836,-0.002641198458150029
1761475523812174000,7.021174072265625,-0.05349329859018326,-0.03634573519229889,0.005472098011523485
1761475523822151200,7.031151123046875,-0.04766017571091652,-0.03302503749728203,0.015139106661081314
1761475523832128300,7.041128173828125,-0.032686375081539154,-0.03518236428499222,0.0172138512134552
1761475523842105000,7.05110498046875,-0.022233735769987106,-0.034620705991983414,0.017074301838874817
1761475523852082200,7.061082275390625,-0.019763106480240822,-0.028977304697036743,0.015247880481183529
1761475523862059000,7.07105908203125,-0.025668665766716003,-0.020244533196091652,0.012726666405797005
1761475523872036000,7.0810361328125,-0.028731301426887512,-0.002490035956725478,0.01599915884435177
1761475523882013200,7.09101318359375,-0.03431887924671173,0.014270301908254623,0.006281283684074879
1761475523891990300,7.100990234375,-0.03233029693365097,0.022759126499295235,-0.003290649736300111
1761475523901967400,7.11096728515625,-0.035298388451337814,0.026722444221377373,-0.008233210071921349
1761475523911945200,7.1209453125,-0.03078039363026619,0.0335698202252388,-0.013577702455222607
1761475523921922300,7.13092236328125,-0.02982964552938938,0.03349551931023598,-0.012473822571337223
1761475523931899100,7.140899169921875,-0.03024662472307682,0.01693282462656498,-0.004357802215963602
1761475523941876200,7.150876220703125,-0.032130543142557144,-0.010666046291589737,0.004865790251642466
1761475523951853300,7.160853271484375,-0.0447395034134388,-0.034617502242326736,0.011132936924695969
1761475523961829400,7.170829345703125,-0.05089806392788887,-0.03131305053830147,0.029168130829930305
1761475523971806500,7.180806396484375,-0.05708809196949005,-0.008851101621985435,0.04448191076517105
1761475523981783300,7.190783203125,-0.055059563368558884,0.01182248443365097,0.05176885053515434
1761475523991760400,7.200760498046875,-0.05501674488186836,0.017157217487692833,0.049910057336091995
1761475524001737500,7.210737548828125,-0.05313335731625557,0.007012972608208656,0.03368448466062546
1761475524011714600,7.220714599609375,-0.048344921320676804,-0.008519910275936127,0.012327411212027073
1761475524021691400,7.23069140625,-0.04899153485894203,-0.00905307475477457,-0.011871402151882648
1761475524031668500,7.24066845703125,-0.050431594252586365,0.001682494068518281,-0.029962381348013878
1761475524041645600,7.2506455078125,-0.05415602773427963,0.0059440843760967255,-0.03287534788250923
1761475524051622400,7.260622314453125,-0.05439797416329384,0.008161813952028751,-0.04013160243630409
1761475524061599500,7.270599609375,-0.04573151469230652,0.0181121826171875,-0.028825420886278152
1761475524071576300,7.280576416015625,-0.03167712688446045,0.02876206301152706,-0.025508327409625053
1761475524081553400,7.290553466796875,-0.017551453784108162,0.026015279814600945,-0.01237521506845951
1761475524091530200,7.3005302734375,-0.006293076556175947,0.011663958430290222,0.0013135350309312344
1761475524101507300,7.31050732421875,-0.0018479946302250028,-0.0047786645591259,0.011208510026335716
1761475524111484400,7.320484375,0.0016436937730759382,-0.016408564522862434,0.02406979724764824
1761475524121461500,7.33046142578125,-0.00013263459550216794,-0.01999824121594429,0.03899228945374489
1761475524131438600,7.3404384765625,0.0053842803463339806,-0.01932941935956478,0.04697578772902489
1761475524141415400,7.35041552734375,0.007916414178907871,-0.0069403937086462975,0.046425044536590576
1761475524151392500,7.360392578125,0.009757887572050095,0.011521341279149055,0.04308518394827843
1761475524161370600,7.37037060546875,0.014642924070358276,0.01010959967970848,0.03293055295944214
1761475524171347500,7.380347412109375,0.016527656465768814,-0.0011048103915527463,0.0216847974807024
1761475524181324500,7.390324462890625,0.022447066381573677,-0.0015647383406758308,0.008993502706289291
1761475524191301400,7.40030126953125,0.023649513721466064,-0.005199098493903875,0.001655382220633328
1761475524201278500,7.410278564453125,0.022938182577490807,-0.016589971259236336,-0.0017598554259166121
1761475524211255300,7.42025537109375,0.017198137938976288,-0.010692249983549118,-0.0045559643767774105
1761475524221232400,7.430232421875,0.011215612292289734,0.000009396113455295563,0.004805579315871
1761475524231209500,7.44020947265625,0.007519543170928955,0.012041442096233368,0.0034736779052764177
1761475524241186300,7.450186279296875,0.004362099338322878,0.026842759922146797,0.007504372391849756
1761475524251163400,7.460163330078125,0.004239328671246767,0.038035690784454346,0.010338203981518745
1761475524261140200,7.47014013671875,0.007410886697471142,0.03557013347744942,0.015254398807883263
1761475524271117600,7.48011767578125,0.006796407513320446,0.016382992267608643,0.02534993179142475
1761475524281094400,7.490094482421875,0.0014730149414390326,-0.00586505513638258,0.032421957701444626
1761475524291071500,7.500071533203125,-0.002403408056125045,-0.009647803381085396,0.03698676452040672
1761475524301048600,7.510048583984375,-0.0037496357690542936,-0.013068368658423424,0.039683748036623
1761475524311025400,7.520025390625,-0.0056115854531526566,-0.016086146235466003,0.03603021427989006
1761475524321002500,7.53000244140625,-0.006553811486810446,-0.020744813606142998,0.03421180695295334
1761475524330979300,7.539979248046875,-0.004217434674501419,-0.012032975442707539,0.025837788358330727
1761475524340956400,7.549956298828125,-0.004351126030087471,0.0021254539024084806,0.020045945420861244
1761475524350933200,7.559933349609375,-0.0028121154755353928,0.008484529331326485,0.011457717046141624
1761475524360910300,7.569910400390625,-0.008787184022367,-0.00021042535081505775,-0.002213886706158519
1761475524370887400,7.579887451171875,-0.01165243424475193,-0.014816050417721272,-0.009483587928116322
1761475524380864300,7.5898642578125,-0.013228492811322212,-0.018164707347750664,-0.016156138852238655
1761475524390841600,7.599841552734375,-0.008629641495645046,-0.01459441427141428,-0.01252987515181303
1761475524400818400,7.609818359375,-0.004210392478853464,-0.004015007056295872,-0.01373309176415205
1761475524410796300,7.61979638671875,0.0005845993291586637,0.0014587987679988146,-0.010544441640377045
1761475524420773600,7.629773681640625,0.00306586641818285,-0.0033812301699072123,-0.0076972562819719315
1761475524430750500,7.63975048828125,0.0007230985211208463,-0.005477243103086948,0.0008269660174846649
1761475524440727600,7.6497275390625,0.002448560670018196,-0.0003181677311658859,0.013186696916818619
1761475524450704400,7.659704345703125,0.004439968150109053,0.0028088553808629513,0.022238945588469505
1761475524460681500,7.669681396484375,0.0057686190120875835,0.0014011086896061897,0.026996415108442307
1761475524470658300,7.679658203125,0.0063553135842084885,-0.005628837738186121,0.0293732862919569
1761475524480635400,7.689635498046875,0.004183505661785603,-0.01619439572095871,0.029883282259106636
1761475524490612500,7.699612548828125,0.00440477067604661,-0.01279405690729618,0.03365849703550339
1761475524500589300,7.70958935546875,0.002392752794548869,-0.00611085444688797,0.03378099948167801
1761475524510566400,7.71956640625,-0.0004713887465186417,-0.0018117792205885053,0.03302627429366112
1761475524520543200,7.729543212890625,0.005623521748930216,-0.006697348318994045,0.03462150692939758
1761475524530520300,7.739520263671875,-0.0008460211101919413,-0.009656380861997604,0.037772711366415024
1761475524540497400,7.749497314453125,-0.0043779052793979645,-0.017119623720645905,0.03853730484843254
1761475524550474500,7.759474609375,-0.00839617196470499,-0.020982705056667328,0.03791532665491104
1761475524560451600,7.76945166015625,-0.01272806990891695,-0.010691451840102673,0.02695908583700657
1761475524570428400,7.779428466796875,-0.014329073019325733,0.007462151348590851,0.014020509086549282
1761475524580405500,7.789405517578125,-0.012700816616415977,0.02509387582540512,-0.002801347989588976
1761475524590382300,7.79938232421875,-0.007540734484791756,0.028579844161868095,-0.01792055182158947
1761475524600359400,7.809359375,-0.009961814619600773,0.028448550030589104,-0.028371328487992287
1761475524610336300,7.819336181640625,-0.013038934208452702,0.021884296089410782,-0.03739304468035698
1761475524620313300,7.829313232421875,-0.01824248395860195,0.0034259252715855837,-0.03287472575902939
1761475524630290400,7.83929052734375,-0.02518939971923828,-0.02299327589571476,-0.026184238493442535
1761475524640267300,7.849267333984375,-0.026874380186200142,-0.03486058488488197,-0.016002440825104713
1761475524650244400,7.859244384765625,-0.023637618869543076,-0.03411618247628212,-0.0034492951817810535
1761475524660221400,7.869221435546875,-0.01926977001130581,-0.02491443045437336,0.011426057666540146
1761475524670198500,7.879198486328125,-0.010014086030423641,-0.00952550396323204,0.02200339175760746
1761475524680176400,7.88917626953125,-0.0090481573715806,0.005664634518325329,0.02044197916984558
1761475524690153500,7.899153564453125,-0.002841646084561944,0.012598334811627865,0.016399279236793518
1761475524700130600,7.909130615234375,-0.005601746030151844,0.002061804523691535,0.01258323434740305
1761475524710107400,7.919107421875,-0.0067896489053964615,-0.01765715517103672,0.0045332410372793674
1761475524720084500,7.92908447265625,-0.007798721082508564,-0.02788795530796051,0.0031380103901028633
1761475524730061600,7.9390615234375,-0.010825639590620995,-0.026499060913920403,0.0021390120964497328
1761475524740038400,7.949038330078125,-0.008210415951907635,-0.006346920970827341,0.008049099706113338
1761475524750015500,7.959015380859375,-0.006376533769071102,0.020013635978102684,0.013203068636357784
1761475524759992300,7.968992431640625,-0.0030246791429817677,0.04043182358145714,0.004880956374108791
1761475524769969400,7.978969482421875,0.002188502810895443,0.03967437148094177,0.003040109993889928
1761475524779946200,7.9889462890625,0.00441037816926837,0.02725445292890072,0.0037674191407859325
1761475524789923300,7.99892333984375,0.010225433856248856,0.006569932214915752,0.0036636393051594496
1761475524799900400,8.008900390625,0.012395909987390041,-0.016108214855194092,0.007808849215507507
1761475524809877500,8.01887744140625,0.010600881651043892,-0.014672118239104748,0.017681127414107323
1761475524819854600,8.0288544921875,0.01569843851029873,-0.0005392552120611072,0.026542529463768005
1761475524829831400,8.03883154296875,0.01544213853776455,0.006152142770588398,0.03394974395632744
1761475524839808500,8.04880859375,0.009266001172363758,0.008621425367891788,0.031587786972522736
1761475524849785300,8.058785400390626,0.0038513499312102795,0.0018411511555314064,0.02590138092637062
1761475524859762400,8.068762451171875,-0.003861430799588561,-0.0032337685115635395,0.012482778169214725
1761475524869739500,8.078739501953125,-0.004412630572915077,-0.016981998458504677,-0.0028544473461806774
1761475524879716400,8.08871630859375,-0.011582925915718079,-0.025637803599238396,-0.018266428261995316
1761475524889693400,8.098693359375,-0.01229754090309143,-0.022977737709879875,-0.025005415081977844
1761475524899670300,8.108670166015624,-0.009001346305012703,-0.002942245453596115,-0.026928750798106194
1761475524909647400,8.1186474609375,-0.0022562392987310886,0.020533740520477295,-0.03406967222690582
1761475524919624400,8.12862451171875,-0.002436535432934761,0.026912277564406395,-0.04336090758442879
1761475524929601500,8.1386015625,-0.008754618465900421,0.012620389461517334,-0.04597415402531624
1761475524939578600,8.14857861328125,-0.019708998501300812,0.014177272096276283,-0.04821813106536865
1761475524949555500,8.158555419921875,-0.022042179480195045,-0.006779246963560581,-0.04086649790406227
1761475524959532800,8.16853271484375,-0.021869607269763947,-0.014576183632016182,-0.027122192084789276
1761475524969510000,8.178510009765626,-0.02131054922938347,-0.027802130207419395,-0.010530791245400906
1761475524979487000,8.188487060546874,-0.014179670251905918,-0.041208747774362564,0.00864450167864561
1761475524989464800,8.19846484375,-0.008384750224649906,-0.030958695337176323,0.025233136489987373
1761475524999442000,8.20844189453125,-0.005380171816796064,-0.002763808937743306,0.04199720174074173
1761475525009418800,8.218418701171874,-0.009662593714892864,0.010076743550598621,0.04755409434437752
1761475525019395800,8.228395751953125,-0.017262987792491913,0.01386322546750307,0.04209168255329132
1761475525029373000,8.238373046875,-0.022558949887752533,0.006447920575737953,0.032259561121463776
1761475525039349800,8.248349853515625,-0.02199356071650982,-0.007580014877021313,0.013452582992613316
1761475525049326800,8.258326904296876,-0.0241484884172678,-0.001636310713365674,0.001800292870029807
1761475525059303700,8.2683037109375,-0.027178367599844933,0.018694261088967323,-0.005144964903593063
1761475525069280800,8.27828076171875,-0.01867026276886463,0.04353685304522514,-0.007289353292435408
1761475525079257600,8.288257568359375,-0.009312446229159832,0.04852522164583206,-0.0139680290594697
1761475525089235000,8.29823486328125,-0.0007648394093848765,0.030801579356193542,-0.015740396454930305
1761475525099212000,8.3082119140625,0.0028565269894897938,0.014315014705061913,-0.018701300024986267
1761475525109188900,8.31818896484375,0.004372975789010525,0.019404297694563866,-0.006854945328086615
1761475525119166000,8.328166015625,0.00853016972541809,0.025648346170783043,0.005573228467255831
1761475525129142800,8.338142822265626,0.00882243737578392,0.02514869160950184,0.020940281450748444
1761475525139119900,8.348119873046874,0.002168529201298952,0.006277000531554222,0.025945959612727165
1761475525149098000,8.358097900390625,-0.0005865847342647612,-0.02545909769833088,0.03367936238646507
1761475525159074800,8.36807470703125,0.00011941930279135704,-0.04265592619776726,0.029943745583295822
1761475525169052000,8.378052001953124,0.0066055478528141975,-0.03814506158232689,0.021793141961097717
1761475525179028700,8.38802880859375,0.012355579063296318,-0.030363574624061584,0.008458160795271397
1761475525189005800,8.398005859375,0.006929521448910236,-0.022682635113596916,-0.009508796967566013
1761475525198983000,8.40798291015625,0.00464879022911191,-0.010108519345521927,-0.02250981703400612
1761475525208959700,8.417959716796876,0.0025717022363096476,0.002610038733109832,-0.033990032970905304
1761475525218936800,8.427936767578124,0.005891332868486643,0.011101794429123402,-0.03937254846096039
1761475525228913700,8.43791357421875,0.012384769506752491,0.011536643840372562,-0.044327009469270706
1761475525238891000,8.44789111328125,0.013745378702878952,0.00947216060012579,-0.041854798793792725
1761475525248867800,8.457867919921876,0.012432100251317024,0.008032184094190598,-0.035615961998701096
1761475525258845000,8.467844970703124,0.012756207026541233,0.006577831692993641,-0.024111106991767883
1761475525268822000,8.477822021484375,0.010191301815211773,-0.000447481288574636,-0.007650351617485285
1761475525278798800,8.487798828125,0.006532385013997555,-0.00956241600215435,-0.00040681942482478917
1761475525288776000,8.49777587890625,0.008511778898537159,-0.017717964947223663,0.011209681630134583
1761475525298752800,8.507752685546874,0.005078165326267481,-0.011685637757182121,0.016575152054429054
1761475525308729900,8.517729736328125,0.008317309431731701,-0.006169543601572514,0.024398813024163246
1761475525318706700,8.527706787109375,0.010726937092840672,-0.00020725838840007782,0.029999973252415657
1761475525328683800,8.537683837890626,0.01636274717748165,0.013808215036988258,0.03014107421040535
1761475525338660900,8.547660888671874,0.014323033392429352,0.018530000001192093,0.026852604001760483
1761475525348637700,8.5576376953125,0.011962910182774067,0.0191132090985775,0.022646071389317513
1761475525358615000,8.567614990234375,0.010706963948905468,0.01851746067404747,0.02155470848083496
1761475525368592000,8.577591796875,0.011471587233245373,0.018532928079366684,0.01708892174065113
1761475525378569000,8.58756884765625,0.0195433609187603,0.014450835064053535,0.0117277130484581
1761475525388545800,8.5975458984375,0.020735081285238266,0.008996997028589249,0.008115203119814396
1761475525398523000,8.60752294921875,0.022056275978684425,0.002355340402573347,0.00430342135950923
1761475525408500000,8.6175,0.018514420837163925,-0.00676967017352581,0.007151324767619371
1761475525418476800,8.627476806640624,0.01708829775452614,-0.006216265261173248,0.007234947755932808
1761475525428454000,8.637453857421875,0.014856405556201935,0.00821440014988184,0.01760726422071457
1761475525438430700,8.6474306640625,0.013519499450922012,0.013384128920733929,0.023685397580266
1761475525448408800,8.657408935546876,0.006617769133299589,-0.009896437637507915,0.017994187772274017
1761475525458386000,8.667385986328124,0.009274272248148918,-0.04191535711288452,0.011383956298232079
1761475525468362800,8.67736279296875,0.011260856874287128,-0.04818059504032135,0.00739939184859395
1761475525478339800,8.68733984375,0.017713163048028946,-0.038754601031541824,-0.0013605437707155943
1761475525488316700,8.697316650390626,0.014603582210838795,-0.016379259526729584,-0.00902633648365736
1761475525498293800,8.707293701171874,0.010404576547443867,-0.009163957089185715,-0.019421186298131943
1761475525508270800,8.717270751953125,0.00040470296517014503,-0.020776348188519478,-0.03241452947258949
1761475525518248000,8.727248046875,-0.005425755865871906,-0.038465067744255066,-0.046933818608522415
1761475525528225000,8.73722509765625,-0.008246560581028461,-0.04303249344229698,-0.04641345888376236
1761475525538201900,8.747201904296874,-0.0034909541718661785,-0.03596313297748566,-0.03749080374836922
1761475525548179000,8.757178955078125,0.0009572200360707939,-0.023046862334012985,-0.023232344537973404
1761475525558155800,8.76715576171875,0.004705619532614946,-0.006314486265182495,0.00043756526429206133
1761475525568132900,8.7771328125,0.01466837152838707,0.013934176415205002,0.016425911337137222
1761475525578109700,8.787109619140624,0.016385843977332115,0.01221004594117403,0.028005601838231087
1761475525588086800,8.797086669921875,0.016659099608659744,0.006641804240643978,0.027566155418753624
1761475525598063900,8.80706396484375,0.014417250640690327,-0.005666794255375862,0.021812129765748978
1761475525608040700,8.817040771484375,0.011609049513936043,-0.01838545873761177,0.018081413581967354
1761475525618017800,8.827017822265624,0.0091866385191679,-0.0274623092263937,0.013796386308968067
1761475525627995000,8.836994873046875,0.01097431592643261,-0.020312316715717316,0.016841338947415352
1761475525637972000,8.846971923828125,0.007938845083117485,-0.011146781034767628,0.01918731816112995
1761475525647948800,8.85694873046875,0.008496495895087719,-0.004379583522677422,0.019641676917672157
1761475525657926000,8.86692578125,0.0069457367062568665,-0.003508995985612273,0.020550880581140518
1761475525667903000,8.876903076171875,0.006663825828582048,0.001084380317479372,0.01943669654428959
1761475525677879800,8.8868798828125,0.0004890208947472274,0.011748476885259151,0.025446385145187378
1761475525687857000,8.89685693359375,-0.0009393206564709544,0.025167712941765785,0.031022649258375168
1761475525697833700,8.906833740234376,-0.0056643011048436165,0.02645614929497242,0.036063216626644135
1761475525707810800,8.916810791015624,-0.003297432092949748,0.010746384039521217,0.03744334727525711
1761475525717787600,8.92678759765625,-0.007442642003297806,0.0012703244574368,0.04322240874171257
1761475525727764700,8.9367646484375,-0.015285754576325417,0.0009954250417649746,0.04348009452223778
1761475525737742800,8.946742919921874,-0.0189135130494833,0.009876534342765808,0.04011306166648865
1761475525747719700,8.9567197265625,-0.028788425028324127,0.014225143007934093,0.03202611580491066
1761475525757696800,8.96669677734375,-0.02869308367371559,0.016710404306650162,0.020570263266563416
1761475525767673900,8.976673828125,-0.028714744374155998,0.01313810795545578,0.008759931661188602
1761475525777651000,8.98665087890625,-0.025641189888119698,-0.009861750528216362,-0.0005438215448521078
1761475525787628000,8.9966279296875,-0.022338367998600006,-0.02407962456345558,-0.00910024531185627
1761475525797604900,9.00660498046875,-0.013412516564130783,-0.029888244345784187,-0.010156987234950066
1761475525807582000,9.01658203125,-0.00655598659068346,-0.012792564928531647,-0.015710141509771347
1761475525817558800,9.026558837890626,-0.004465671256184578,0.010173204354941845,-0.013191324658691883
1761475525827536000,9.036535888671875,-0.005083983764052391,0.020130770280957222,-0.016950223594903946
1761475525837512700,9.0465126953125,-0.007917320355772972,0.02168898470699787,-0.01686047576367855
1761475525847489800,9.05648974609375,-0.010282947681844234,0.011015679687261581,-0.01841212622821331
1761475525857467000,9.066466796875,-0.0060077751986682415,-0.018492145463824272,-0.014432298950850964
1761475525867443700,9.076443603515624,-0.0007914415909908712,-0.05075421184301376,-0.0021119830198585987
1761475525877420800,9.0864208984375,0.007141849026083946,-0.06497735530138016,0.0017083216225728393
1761475525887398000,9.09639794921875,0.01383162196725607,-0.04405040293931961,0.010484907776117325
1761475525897375000,9.106375,0.023151885718107224,-0.005936572328209877,0.015207490883767605
1761475525907351800,9.116351806640624,0.028987834230065346,0.0235043466091156,0.009784658439457417
1761475525917329000,9.126328857421875,0.03028213046491146,0.036698974668979645,0.008732710033655167
1761475525927306000,9.136305908203125,0.031783781945705414,0.03462774306535721,-0.002331914147362113
1761475525937282800,9.14628271484375,0.02959306724369526,0.017323054373264313,-0.007836934179067612
1761475525947260000,9.156260009765624,0.023525720462203026,-0.00981999933719635,-0.010121185332536697
1761475525957236700,9.16623681640625,0.023924395442008972,-0.024889230728149414,-0.004610572941601276
1761475525967213800,9.1762138671875,0.02258291468024254,-0.022972002625465393,0.01126631535589695
1761475525977190700,9.186190673828126,0.02284310571849346,-0.015440850518643856,0.014725761488080025
1761475525987167700,9.196167724609374,0.024699004366993904,-0.006023224908858538,0.016171416267752647
1761475525997144800,9.206144775390625,0.02201959863305092,0.001389683922752738,0.007249560672789812
1761475526007122000,9.216121826171875,0.02319498360157013,-0.00412027956917882,-0.004683737643063068
1761475526017099000,9.22609912109375,0.015294183045625687,-0.01915914937853813,-0.01827091909945011
1761475526027076600,9.23607666015625,0.007485263980925083,-0.022351715713739395,-0.0340244323015213
1761475526037053700,9.2460537109375,0.006610948126763105,-0.013146499171853065,-0.04202163964509964
1761475526047031000,9.256031005859375,0.0038736616261303425,-0.0012716628843918443,-0.04525019973516464
1761475526057007900,9.2660078125,0.005971699953079224,0.003472225973382592,-0.04806862398982048
1761475526066985000,9.27598486328125,0.001959247048944235,-0.0005383772077038884,-0.04171080142259598
1761475526076961800,9.2859619140625,-0.0013950043357908726,-0.008367804810404778,-0.03890755772590637
1761475526086939000,9.29593896484375,-0.0038236433174461126,-0.013785001821815968,-0.025937270373106003
1761475526096915700,9.305915771484376,-0.004044951871037483,-0.014442004263401031,-0.015733901411294937
1761475526106892800,9.315892822265624,-0.0007907769759185612,-0.01999298483133316,-0.006372980773448944
1761475526116870000,9.325869873046875,-0.0036033412907272577,-0.01986675150692463,-0.006612132769078016
1761475526126846700,9.3358466796875,-0.0024363130796700716,-0.01892976276576519,-0.009954032488167286
1761475526136823800,9.34582373046875,0.0012537629809230566,-0.019026169553399086,-0.015474232845008373
1761475526146800600,9.355800537109374,-0.005872812122106552,-0.016876250505447388,-0.019063709303736687
1761475526156778000,9.365778076171875,-0.007760993205010891,-0.008773315697908401,-0.021162014454603195
1761475526166754800,9.3757548828125,-0.0119246831163764,0.005404194351285696,-0.021805154159665108
1761475526176732000,9.38573193359375,-0.018370332196354866,0.014210736379027367,-0.02975602075457573
1761475526186709000,9.395708984375,-0.017067601904273033,0.021001629531383514,-0.02611108124256134
1761475526196685800,9.405685791015625,-0.011111176572740078,0.02680865116417408,-0.017852885648608208
1761475526206663000,9.415662841796875,0.004514448810368776,0.018770042806863785,-0.006280594505369663
1761475526216639700,9.4256396484375,0.008257254958152771,0.008293701335787773,0.0065529122948646545
1761475526226616800,9.435616943359374,0.008438925258815289,-0.008492019027471542,0.012942150235176086
1761475526236593700,9.44559375,0.00709349662065506,-0.007059771567583084,0.025148216634988785
1761475526246570800,9.45557080078125,0.00337989698164165,0.008399445563554764,0.03022007644176483
1761475526256547800,9.4655478515625,-0.002719008130952716,-0.0002750025596469641,0.02864508330821991
1761475526266524700,9.475524658203126,-0.006865520495921373,-0.0038241418078541756,0.024419400840997696
1761475526276502000,9.485501953125,-0.009923095814883709,-0.0037876565475016832,0.01993037760257721
1761475526286478800,9.495478759765625,-0.00650417385622859,-0.005547955632209778,0.010008039884269238
1761475526296456000,9.5054560546875,-0.0024734793696552515,0.0010399054735898972,-0.004348262213170528
1761475526306432800,9.515432861328126,0.0021130458917468786,-0.001960356254130602,-0.018914734944701195
1761475526316409900,9.525409912109374,0.004793783649802208,0.004069040529429913,-0.034848425537347794
1761475526326387000,9.535386962890625,0.009342803619801998,0.015084178186953068,-0.04341977834701538
1761475526336363800,9.54536376953125,0.005069762002676725,0.018770260736346245,-0.044165462255477905
1761475526346340900,9.5553408203125,0.004749189130961895,0.019602471962571144,-0.040599752217531204
1761475526356319000,9.565319091796875,0.008220885880291462,0.016164064407348633,-0.029241636395454407
1761475526366295800,9.5752958984375,0.01340918242931366,0.009867280721664429,-0.016001615673303604
1761475526376273000,9.58527294921875,0.016583938151597977,0.0018690091092139482,0.0022061492782086134
1761475526386249700,9.595249755859374,0.016088206321001053,-0.0018812105990946293,0.020620493218302727
1761475526396226800,9.605226806640625,0.010347229428589344,-0.0063808877021074295,0.02887655980885029
1761475526406203600,9.61520361328125,0.004988194443285465,-0.014859377406537533,0.034709349274635315
1761475526416180700,9.6251806640625,0.0013692250940948725,-0.022377481684088707,0.02786262519657612
1761475526426157800,9.63515771484375,-0.007615200709551573,-0.02680535614490509,0.015292482450604439
1761475526436135000,9.645135009765625,-0.007336101029068232,-0.024927295744419098,0.004259271547198296
1761475526446112000,9.655112060546875,-0.0018628607504069805,-0.01566259190440178,-0.004338872153311968
1761475526456088800,9.6650888671875,-0.0021363673731684685,0.009443026967346668,-0.010313673876225948
1761475526466066000,9.67506591796875,-0.002418987452983856,0.034077953547239304,-0.007047747261822224
1761475526476042800,9.685042724609374,-0.009554927237331867,0.048178594559431076,-0.005189393647015095
1761475526486019800,9.695019775390625,-0.016281940042972565,0.03778545930981636,-0.004905708134174347
1761475526495997000,9.704996826171875,-0.016223350539803505,0.016561929136514664,-0.004632733762264252
1761475526505973800,9.714973876953126,-0.010660850442945957,-0.006425362080335617,-0.0055975280702114105
1761475526515950800,9.724950927734374,-0.0027685724198818207,-0.014618311077356339,0.011174794286489487
1761475526525927700,9.734927734375,-0.0023344478104263544,-0.007435443811118603,0.02033602073788643
1761475526535904800,9.74490478515625,-0.008061842061579227,-0.0006507745711132884,0.04028096795082092
1761475526545881900,9.7548818359375,-0.011959541589021683,0.018106995150446892,0.05047352612018585
1761475526555859000,9.76485888671875,-0.012959824874997139,0.03168858587741852,0.04544973745942116
1761475526565836000,9.7748359375,-0.014819909818470478,0.02329365164041519,0.03241509944200516
1761475526575812900,9.784812744140625,-0.00980704091489315,0.005215048789978027,0.011869345791637897
1761475526585790000,9.7947900390625,-0.0028993189334869385,-0.003694129642099142,-0.004895541816949844
1761475526595766800,9.804766845703124,0.006386591121554375,0.0030021227430552244,-0.018428394570946693
1761475526605743900,9.814743896484375,0.009614727459847927,0.014014014974236488,-0.02107055112719536
1761475526615720700,9.824720703125,0.005218913778662682,0.01474851556122303,-0.019499553367495537
1761475526625697800,9.83469775390625,-0.005030187778174877,0.0005730476696044207,-0.020931649953126907
1761475526635675000,9.8446748046875,-0.017090313136577606,-0.019565509632229805,-0.02154977060854435
1761475526645651700,9.854651611328125,-0.02682187408208847,-0.016479000449180603,-0.020164912566542625
1761475526655628800,9.86462890625,-0.0258634015917778,-0.003983448259532452,-0.020291946828365326
1761475526665606000,9.87460595703125,-0.015023048035800457,0.009462635032832623,-0.012028620578348637
1761475526675583000,9.8845830078125,-0.003225511871278286,0.012293575331568718,-0.004345668014138937
1761475526685560800,9.894560791015625,-0.0005032141925767064,-0.00026945979334414005,-0.005753171630203724
1761475526695538000,9.904537841796875,0.00040545640513300896,-0.007297009229660034,-0.003063112497329712
1761475526705515000,9.914514892578126,-0.004686908796429634,-0.010785100050270557,-0.005781339947134256
1761475526715491800,9.924491943359374,-0.011219908483326435,-0.009434078820049763,-0.004735782742500305
1761475526725469000,9.934468994140625,-0.005796615965664387,-0.007286950945854187,-0.003742057830095291
1761475526735445800,9.94444580078125,-0.007972684688866138,0.005939106456935406,0.0019504489609971642
1761475526745422800,9.9544228515625,0.0038023036904633045,0.014578300528228283,0.0019846658688038588
1761475526755400000,9.96439990234375,0.0015593895222991705,0.0176534540951252,0.00010820263560162857
1761475526765376800,9.974376708984375,0.0002314932062290609,0.01216073427349329,-0.002204151125624776
1761475526775353900,9.984353759765625,-0.009330320172011852,0.008568395860493183,-0.006726997904479504
1761475526785330700,9.99433056640625,-0.01618269458413124,0.0035596457310020924,-0.0035933097824454308
1761475526795307800,10.004307861328124,-0.023616641759872437,-0.005343568045645952,-0.003748039249330759
1761475526805284900,10.014284912109375,-0.016604792326688766,-0.000885808258317411,0.00444994680583477
1761475526815262000,10.024261962890625,-0.00665202597156167,0.013841206207871437,0.009279589168727398
1761475526825239000,10.034239013671876,-0.0021348134614527225,0.03885050117969513,0.012277457863092422
1761475526835216000,10.0442158203125,-0.0037644016556441784,0.025107258930802345,0.002572898752987385
1761475526845193000,10.05419287109375,-0.008223039098083973,0.008543485775589943,-0.014247551560401917
1761475526855169800,10.064169677734375,-0.016737964004278183,-0.0008108679903671145,-0.02401522733271122
1761475526865147000,10.07414697265625,-0.027241012081503868,0.0033178243320435286,-0.03193055838346481
1761475526875123700,10.084123779296876,-0.03182191401720047,0.013235703110694885,-0.034300774335861206
1761475526885100800,10.094100830078125,-0.04197230190038681,0.02699396386742592,-0.021249664947390556
1761475526895078000,10.104077880859375,-0.04046282172203064,0.02693936973810196,-0.008006563410162926
1761475526905054700,10.1140546875,-0.03122064843773842,0.006695238873362541,0.00009832599607761949
1761475526915031800,10.12403173828125,-0.0039378926157951355,-0.014180215075612068,0.0005217685829848051
1761475526925009000,10.1340087890625,0.018451020121574402,-0.0212196446955204,-0.002245232928544283
1761475526934986000,10.143986083984375,0.026099352166056633,-0.03410082310438156,-0.006960892118513584
1761475526944962800,10.153962890625,0.01383662037551403,-0.026328274980187416,-0.002110834699124098
1761475526954940000,10.16393994140625,-0.0038933739997446537,-0.0045007397420704365,0.006424330174922943
1761475526964917000,10.1739169921875,-0.00912195909768343,0.005595836788415909,0.01675686240196228
1761475526974894000,10.18389404296875,-0.006827378645539284,0.006841929629445076,0.015181869268417358
1761475526984871000,10.193870849609375,-0.002193151507526636,0.003492349060252309,0.007096567191183567
1761475526994848000,10.203847900390626,-0.0032219309359788895,-0.011809375137090683,-0.004783527925610542
1761475527004824800,10.213824951171874,-0.0077467747032642365,-0.021033117547631264,-0.009151585400104523
1761475527014802000,10.223802001953125,-0.006290825083851814,-0.012595158070325851,-0.007274323608726263
1761475527024779000,10.233779052734375,-0.0019404030172154307,0.0012381442356854677,-0.009937033988535404
1761475527034756900,10.2437568359375,0.005881301127374172,-0.0019267563475295901,-0.001082023256458342
1761475527044734000,10.25373388671875,0.009856215678155422,-0.006996604613959789,0.004387080669403076
1761475527054710800,10.263710693359375,0.01008205208927393,-0.004700160585343838,0.00651760958135128
1761475527064687900,10.27368798828125,0.010048671625554562,0.0009431454818695784,0.009398875758051872
1761475527074665000,10.2836650390625,0.013204784132540226,0.002891780575737357,0.009591156616806984
1761475527084642000,10.29364208984375,0.017166828736662865,0.0049052732065320015,0.011247162707149982
1761475527094619100,10.303619140625,0.01323680393397808,0.006902377121150494,0.01400113757699728
1761475527104596000,10.313595947265625,0.008508820086717606,-0.000016520963981747627,0.012592441402375698
1761475527114573000,10.323572998046876,0.004979332908987999,0.005222981795668602,0.009367353282868862
1761475527124550000,10.3335498046875,0.004089849069714546,0.015222215093672276,-0.0030769682489335537
1761475527134527000,10.34352685546875,-0.0014023882104083896,0.00406277272850275,-0.015928583219647408
1761475527144504000,10.353504150390625,-0.008086832240223885,-0.014729359187185764,-0.031660135835409164
1761475527154481000,10.36348095703125,-0.00974385067820549,-0.011872319504618645,-0.036294035613536835
1761475527164458000,10.3734580078125,-0.0072412192821502686,0.003180244006216526,-0.03218087553977966
1761475527174434800,10.383434814453125,0.000020421925000846386,0.01841139607131481,-0.028714772313833237
1761475527184412000,10.393411865234375,-0.005482348147779703,0.022261250764131546,-0.02852705679833889
1761475527194389000,10.403388916015626,-0.014616457745432854,-0.0037897927686572075,-0.043606407940387726
1761475527204366000,10.413365966796874,-0.02922913432121277,-0.025820625945925713,-0.0591554120182991
1761475527214343200,10.42334326171875,-0.03358367085456848,-0.03616274520754814,-0.06809590756893158
1761475527224320000,10.433320068359375,-0.025354458019137383,-0.02605929598212242,-0.07506520301103592
1761475527234297000,10.443297119140626,-0.01660703867673874,-0.00509515730664134,-0.07687854766845703
1761475527244274000,10.45327392578125,-0.004067618399858475,0.01587270200252533,-0.06220414862036705
1761475527254251000,10.4632509765625,-0.0037128853145986795,0.0349087119102478,-0.048632413148880005
1761475527264227800,10.473227783203125,-0.005877801217138767,0.041320182383060455,-0.03640434145927429
1761475527274205000,10.483204833984376,-0.0036050593480467796,0.019801577553153038,-0.02400759607553482
1761475527284182000,10.49318212890625,0.0009558730525895953,-0.0037726927548646927,-0.008233015425503254
1761475527294158800,10.503158935546875,0.005442234221845865,-0.011709178797900677,0.013819023035466671
1761475527304136000,10.513135986328125,0.008072682656347752,-0.0033991015516221523,0.03185281530022621
1761475527314113000,10.523113037109376,0.0013713702792301774,0.007553148083388805,0.04888053238391876
1761475527324090000,10.533090087890624,-0.00084572599735111,0.014684665948152542,0.049394018948078156
1761475527334067000,10.54306689453125,-0.009323365986347198,0.010135721415281296,0.040792275220155716
1761475527344044000,10.5530439453125,-0.013733163475990295,0.01171189732849598,0.028246447443962097
1761475527354021000,10.563021240234375,-0.01532520167529583,0.0201991256326437,0.014658200554549694
1761475527363998000,10.572998046875,-0.02037808857858181,0.019422009587287903,0.008458741940557957
1761475527373975000,10.58297509765625,-0.015854977071285248,0.021404998376965523,0.010150115936994553
1761475527383952000,10.592951904296875,-0.013644746504724026,0.023309696465730667,0.017172224819660187
1761475527393929000,10.602928955078125,-0.0176224447786808,0.0137590691447258,0.012851777486503124
1761475527403907000,10.612906982421874,-0.014197217300534248,0.015604788437485695,0.009042598307132721
1761475527413884000,10.6228837890625,-0.011373467743396759,0.000026095425710082054,0.014082896523177624
1761475527423861000,10.632861083984375,-0.019194817170500755,-0.020458772778511047,0.02084958553314209
1761475527433837800,10.642837890625,-0.015943629667162895,-0.014433637261390686,0.026776183396577835
1761475527443815000,10.65281494140625,-0.012222439981997013,-0.0047330232337117195,0.022367123514413834
1761475527453791700,10.662791748046875,-0.011220558546483517,0.017758436501026154,0.01094455923885107
1761475527463768800,10.672768798828125,0.000595014716964215,-0.0012544076889753342,-0.016933828592300415
1761475527473746200,10.68274609375,0.002564688678830862,-0.03795623034238815,-0.031056305393576622
1761475527483723000,10.692722900390624,-0.004001502878963947,-0.05210743471980095,-0.03800239786505699
1761475527493700000,10.7027001953125,0.013030744157731533,-0.048235733062028885,-0.0415009930729866
1761475527503677000,10.712677001953125,0.025356583297252655,-0.03453134745359421,-0.035582926124334335
1761475527513654000,10.722654052734375,0.014112451113760471,-0.012265192344784737,-0.027447503060102463
1761475527523630800,10.732630859375,0.010940104722976685,-0.004422318655997515,-0.03813573345541954
1761475527533608000,10.74260791015625,0.006718994118273258,0.05543915182352066,-0.051042743027210236
1761475527543585000,10.7525849609375,0.011031082831323147,0.1020238995552063,-0.06787296384572983
1761475527553561900,10.762561767578125,0.016904419288039207,0.10285080969333649,-0.08795347064733505
1761475527563539000,10.7725390625,-0.021431179717183113,0.1178596019744873,0.022963086143136024
1761475527573515800,10.782515869140624,-0.017637772485613823,-0.02877059020102024,0.09218583256006241
1761475527583493000,10.7924931640625,0.00686856172978878,-0.1553298681974411,0.14204750955104828
1761475527593470000,10.802469970703125,0.05595168471336365,-0.21186478435993195,0.1869359016418457
1761475527603447000,10.812447021484376,0.09942726045846939,-0.17846421897411346,0.1878003627061844
1761475527613424000,10.822424072265624,0.08614207804203033,-0.14296294748783112,0.12438249588012695
1761475527623401000,10.83240087890625,0.01705220900475979,-0.08468915522098541,0.045993175357580185
1761475527633378000,10.8423779296875,-0.0009859135607257485,0.019923010841012,-0.04293909668922424
1761475527643355000,10.85235498046875,0.05021122470498085,0.16210731863975525,-0.10265088826417923
