time,seconds_elapsed,z,y,x
1761475468209471200,0.06047119140625,-0.029847372323274612,0.07786202430725098,0.16777123510837555
1761475468219448300,0.0704482421875,-0.04886229336261749,0.1088830977678299,0.22008547186851501
1761475468229425200,0.080425048828125,-0.05458329617977142,0.11250073462724686,0.2508324980735779
1761475468239403300,0.0904033203125,-0.05110664665699005,0.09982073307037354,0.26869961619377136
1761475468249380400,0.10038037109375,-0.0514824204146862,0.0850047692656517,0.2624441087245941
1761475468259357200,0.110357177734375,-0.05112672597169876,0.07049020379781723,0.23243260383605957
1761475468269335300,0.120335205078125,-0.052289728075265884,0.06930483132600784,0.18490849435329437
1761475468279312100,0.13031201171875,-0.05599801242351532,0.07569190114736557,0.1179567351937294
1761475468289289200,0.140289306640625,-0.058305639773607254,0.07209397107362747,0.04887646809220314
1761475468299267300,0.150267333984375,-0.04723246395587921,0.0820143073797226,-0.012970363721251488
1761475468309244200,0.160244140625,-0.024136995896697044,0.11362709850072861,-0.0725008025765419
1761475468319222300,0.17022216796875,-0.006828716024756432,0.13349077105522156,-0.13216090202331543
1761475468329199400,0.180199462890625,0.003524588653817773,0.12773248553276062,-0.18368586897850037
1761475468339176200,0.19017626953125,0.0047746505588293076,0.16353081166744232,-0.20492880046367645
1761475468349154300,0.200154296875,0.007382684387266636,0.23025737702846527,-0.21065671741962433
1761475468359131400,0.21013134765625,0.01745275780558586,0.25537043809890747,-0.21264952421188354
1761475468369108200,0.220108154296875,0.030712636187672615,0.23143312335014343,-0.22366222739219666
1761475468379086300,0.23008642578125,0.03557581454515457,0.1751822978258133,-0.2266298234462738
1761475468389063400,0.2400634765625,0.03323462978005409,0.08439380675554276,-0.21436624228954315
1761475468399040300,0.250040283203125,0.013499698601663113,0.010963376611471176,-0.17947669327259064
1761475468409018400,0.260018310546875,-0.006163218058645725,-0.014112414792180061,-0.1361641138792038
1761475468418995200,0.2699951171875,-0.019188785925507545,-0.014212234877049923,-0.08346173912286758
1761475468428972300,0.27997216796875,-0.017749080434441566,-0.017745982855558395,-0.0353701077401638
1761475468438950400,0.289950439453125,-0.0032178140245378017,-0.02026275545358658,0.0030889390036463737
1761475468448927200,0.29992724609375,0.005287523381412029,-0.022958407178521156,0.03173283487558365
1761475468458904300,0.309904296875,0.022397534921765327,-0.03830913454294205,0.04120250418782234
1761475468468882400,0.31988232421875,0.03142218664288521,-0.06506218016147614,0.04635145887732506
1761475468478859300,0.329859375,0.035131968557834625,-0.08706042170524597,0.05073928087949753
1761475468488836400,0.33983642578125,0.03286908194422722,-0.0923880785703659,0.060945313423871994
1761475468498814500,0.349814453125,0.027053212746977806,-0.09537333995103836,0.0682087242603302
1761475468508791300,0.359791259765625,0.023968206718564034,-0.10601986199617386,0.07439471036195755
1761475468518768400,0.369768310546875,0.009174947626888752,-0.08489004522562027,0.07299837470054626
1761475468528746200,0.379746337890625,-0.0043381983414292336,-0.01936349831521511,0.0645737275481224
1761475468538723300,0.389723388671875,-0.007207678165286779,0.05717824399471283,0.04227288067340851
1761475468548700400,0.399700439453125,-0.0001457740436308086,0.09873341768980026,0.013531249016523361
1761475468558678300,0.40967822265625,0.014038189314305782,0.10689923167228699,-0.025398187339305878
1761475468568655400,0.4196552734375,0.030408907681703568,0.08334702998399734,-0.054459668695926666
1761475468578632400,0.429632568359375,0.04171280190348625,0.04063967242836952,-0.0851118415594101
1761475468588610000,0.439610107421875,0.04018041864037514,-0.005721968598663807,-0.10170520097017288
1761475468598587400,0.44958740234375,0.027730567380785942,-0.041039638221263885,-0.10054593533277512
1761475468608564200,0.459564208984375,0.0031743571162223816,-0.023286737501621246,-0.06958828121423721
1761475468618542000,0.4695419921875,-0.014453742653131485,0.028241893276572227,-0.02164534479379654
1761475468628519400,0.47951953125,-0.02399345114827156,0.06315033882856369,0.02841356210410595
1761475468638496300,0.489496337890625,-0.02312140166759491,0.060030676424503326,0.06768457591533661
1761475468648474000,0.49947412109375,-0.018270455300807953,0.03647874295711517,0.09281229972839355
1761475468658451200,0.509451171875,-0.0028690441977232695,0.008745919913053513,0.09975414723157883
1761475468668428300,0.51942822265625,-0.0031534696463495493,-0.001885419012978673,0.10469324886798859
1761475468678406100,0.52940625,-0.008937595412135124,-0.0011155831161886454,0.09937844425439835
1761475468688383200,0.53938330078125,-0.014184289611876011,-0.021789703518152237,0.09031251817941666
1761475468698361000,0.549361083984375,-0.01583869569003582,-0.05100967362523079,0.06450364738702774
1761475468708338200,0.559338134765625,-0.006665438879281282,-0.07501913607120514,0.03828589245676994
1761475468718315000,0.56931494140625,0.004552250728011131,-0.09247741103172302,0.007900958880782127
1761475468728293000,0.579293212890625,0.01562008261680603,-0.1063343733549118,-0.02482476457953453
1761475468738270200,0.589270263671875,0.015352600254118443,-0.11678434163331985,-0.059880904853343964
1761475468748247000,0.5992470703125,0.016731850802898407,-0.1029534786939621,-0.08134305477142334
1761475468758225200,0.60922509765625,0.014379878528416157,-0.0461333803832531,-0.07109011709690094
1761475468768202200,0.6192021484375,0.01876317709684372,0.02342412620782852,-0.050764068961143494
1761475468778179000,0.629178955078125,0.020125221461057663,0.05199512466788292,-0.027669323608279228
1761475468788157200,0.6391572265625,0.016992278397083282,0.04780038073658943,-0.01482942420989275
1761475468798134300,0.64913427734375,0.01234810147434473,0.04432351142168045,-0.005061737727373838
1761475468808111000,0.659111083984375,0.016094369813799858,0.038388125598430634,-0.009040766395628452
1761475468818089200,0.669089111328125,0.021298343315720558,0.02570812590420246,-0.007800276856869459
1761475468828066300,0.67906640625,0.03808371350169182,0.0015090461820363998,-0.008434109389781952
1761475468838043100,0.689043212890625,0.05678323656320572,-0.013928457163274288,-0.003427135990932584
1761475468848021200,0.699021240234375,0.06726570427417755,-0.023939546197652817,-0.0010318886488676071
1761475468857998000,0.708998046875,0.06611321866512299,-0.029090408235788345,0.00025365481269545853
1761475468867975200,0.71897509765625,0.06741071492433548,-0.018435366451740265,0.005182366818189621
1761475468877953300,0.728953369140625,0.061859142035245895,-0.0016871574334800243,0.003914539236575365
1761475468887930000,0.73893017578125,0.05863858014345169,0.014667848125100136,-0.0015292282914742827
1761475468897907200,0.7489072265625,0.059646133333444595,0.02700725756585598,-0.0019549403805285692
1761475468907884800,0.758884765625,0.06275830417871475,0.029125269502401352,-0.0005674334242939949
1761475468917862000,0.76886181640625,0.05816631764173508,0.020133178681135178,-0.0018685722025111318
1761475468927840000,0.778840087890625,0.06054505333304405,0.007283426821231842,0.004707571119070053
1761475468937816800,0.78881689453125,0.05808783322572708,0.007191735319793224,0.006290948949754238
1761475468947794000,0.7987939453125,0.05204885080456734,-0.003670766018331051,0.006374572403728962
1761475468957772000,0.80877197265625,0.042052652686834335,-0.012604671530425549,0.005208082962781191
1761475468967748900,0.818748779296875,0.025805506855249405,-0.01354769617319107,0.015346203930675983
1761475468977726000,0.828725830078125,0.012379394844174385,-0.009261907078325748,0.0195050910115242
1761475468987703800,0.838703857421875,0.012191908434033394,-0.00870104506611824,0.023190639913082123
1761475468997681000,0.848680908203125,0.01244391780346632,-0.016496548429131508,0.020910637453198433
1761475469007658000,0.858657958984375,0.012580538168549538,-0.030202241614460945,0.018046675249934196
1761475469017635800,0.8686357421875,0.007280820980668068,-0.027998894453048706,0.010285469703376293
1761475469027613000,0.878613037109375,-0.00483096856623888,-0.012863616459071636,-0.0021517581772059202
1761475469037590000,0.888590087890625,-0.014807327650487423,0.003319772193208337,-0.010986785404384136
1761475469047568000,0.89856787109375,-0.017327742651104927,0.028726594522595406,-0.021130764856934547
1761475469057545000,0.908544921875,-0.011999688111245632,0.04516500234603882,-0.029854781925678253
1761475469067521800,0.918521728515625,-0.0030924794264137745,0.0392937958240509,-0.04059451445937157
1761475469077500000,0.9285,0.00236689206212759,0.03586241975426674,-0.05054888501763344
1761475469087477000,0.93847705078125,-0.0021687373518943787,0.030421849340200424,-0.05527013912796974
1761475469097453800,0.948453857421875,-0.011313687078654766,0.03655849024653435,-0.047685861587524414
1761475469107432000,0.958431884765625,-0.015839463099837303,0.05004873126745224,-0.041909463703632355
1761475469117409000,0.968408935546875,-0.014195175841450691,0.05749683454632759,-0.030345046892762184
1761475469127385900,0.9783857421875,-0.010441983118653297,0.0363079234957695,-0.016308855265378952
1761475469137364000,0.988364013671875,-0.005276568233966827,0.006074884906411171,-0.012242916040122509
1761475469147341000,0.998341064453125,-0.007372475694864988,-0.01877400651574135,-0.0035069487057626247
1761475469157319000,1.00831884765625,-0.01092651579529047,-0.04800250381231308,-0.00023649487411603332
1761475469167296000,1.0182958984375,-0.015812883153557777,-0.06832081824541092,0.006317277904599905
1761475469177272800,1.02827294921875,-0.016489379107952118,-0.0576932467520237,0.019966870546340942
1761475469187251000,1.0382509765625,-0.020367739722132683,-0.02533264458179474,0.02559492737054825
1761475469197228000,1.04822802734375,-0.02143114060163498,0.015051528811454773,0.029922831803560257
1761475469207204900,1.058204833984375,-0.021537933498620987,0.046709589660167694,0.03035586141049862
1761475469217183000,1.068182861328125,-0.02167377807199955,0.05574936047196388,0.01929919421672821
1761475469227160000,1.07816015625,-0.02130759507417679,0.03906359151005745,0.007615907117724419
1761475469237137000,1.088136962890625,-0.021176543086767197,0.01635567843914032,-0.004155510105192661
1761475469247115000,1.098114990234375,-0.02095523290336132,0.010095919482409954,-0.01694161258637905
1761475469257092000,1.108092041015625,-0.014886584132909775,0.007702608592808247,-0.023268403485417366
1761475469267069000,1.11806884765625,-0.006650226656347513,0.022600864991545677,-0.01944064162671566
1761475469277047000,1.128047119140625,-0.004062725231051445,0.053382594138383865,-0.017718594521284103
1761475469287024000,1.138024169921875,0.003455911297351122,0.0721307173371315,-0.018326329067349434
1761475469297001000,1.1480009765625,0.007912549190223217,0.0668601244688034,-0.024975894019007683
1761475469306978800,1.157978759765625,0.011438041925430298,0.03969535231590271,-0.03438324108719826
1761475469316956000,1.167955810546875,0.012852809391915798,0.022544847801327705,-0.043478045612573624
1761475469326933000,1.17793310546875,0.022295845672488213,0.005503813736140728,-0.034343134611845016
1761475469336910800,1.187910888671875,0.032639939337968826,-0.01651584357023239,-0.031850945204496384
1761475469346888000,1.197887939453125,0.03652016445994377,-0.027718964964151382,-0.02917366661131382
1761475469356865000,1.207864990234375,0.040096450597047806,-0.011050608940422535,-0.029993589967489243
1761475469366843000,1.2178427734375,0.037199731916189194,0.019652709364891052,-0.029726475477218628
1761475469376820000,1.227820068359375,0.0364936962723732,0.04655439406633377,-0.034045472741127014
1761475469386797000,1.237797119140625,0.03542869910597801,0.053496189415454865,-0.02915351092815399
1761475469396775000,1.24777490234375,0.038338553160429,0.062477435916662216,-0.022765599191188812
1761475469406751700,1.257751708984375,0.04333410784602165,0.05643259733915329,-0.010854876600205898
1761475469416729900,1.267729736328125,0.04378615692257881,0.02981339395046234,0.0016739754937589169
1761475469426706700,1.277706787109375,0.03864758834242821,0.0009793504141271114,0.005571511574089527
1761475469436683800,1.287683837890625,0.022561877965927124,-0.02471088245511055,0.010735094547271729
1761475469446662000,1.297661865234375,0.00780743220821023,-0.024968143552541733,0.011898895725607872
1761475469456638700,1.307638671875,0.0013364889891818166,0.0048875752836465836,0.018896810710430145
1761475469466615800,1.31761572265625,0.0004850763943977654,0.03622153028845787,0.02440635859966278
1761475469476594000,1.327593994140625,-0.00029642664594575763,0.04396631196141243,0.023926956579089165
1761475469486570800,1.33757080078125,0.0017299726605415344,0.03233415633440018,0.018468009307980537
1761475469496547800,1.3475478515625,0.004523789510130882,0.022507820278406143,0.010433437302708626
1761475469506526000,1.35752587890625,0.0028212303295731544,0.013793157413601875,-0.0038187350146472454
1761475469516502800,1.367502685546875,0.00023335515288636088,0.004667828790843487,-0.01682647131383419
1761475469526480000,1.37747998046875,-0.003479357808828354,0.008593861013650894,-0.024091308936476707
1761475469536458000,1.3874580078125,-0.0034743284340947866,0.009446633979678154,-0.022271454334259033
1761475469546434800,1.397434814453125,0.0037588169798254967,0.005737649276852608,-0.0073873125948011875
1761475469556412000,1.407411865234375,0.01520191878080368,-0.0033277799375355244,0.0014500037068501115
1761475469566389800,1.4173896484375,0.020823052152991295,-0.00481915008276701,0.007714823819696903
1761475469576366800,1.427366943359375,0.0250269565731287,-0.00434237252920866,0.013238833285868168
1761475469586344000,1.437343994140625,0.028857382014393806,-0.0023942701518535614,0.011493131518363953
1761475469596321800,1.44732177734375,0.023588500916957855,0.006675118580460548,0.006397383753210306
1761475469606299000,1.457298828125,0.012352623976767063,0.022600023075938225,0.007192603778094053
1761475469616276000,1.46727587890625,0.005754882004112005,0.036300770938396454,0.004601127468049526
1761475469626253800,1.47725390625,0.0034515142906457186,0.01864268071949482,0.0015355627983808517
1761475469636231000,1.48723095703125,0.004255339503288269,-0.006061061285436153,0.003479460021480918
1761475469646207700,1.497207763671875,0.009626402519643307,-0.01486254297196865,0.008657177910208702
1761475469656185900,1.507185791015625,0.013737790286540985,-0.011353028938174248,0.013256190344691277
1761475469666163000,1.517162841796875,0.01569920964539051,-0.00971039105206728,0.012308105826377869
1761475469676141000,1.52714111328125,0.016894513741135597,-0.014823206700384617,0.005720105022192001
1761475469686118000,1.537117919921875,0.008093832060694695,-0.02052423544228077,-0.004985003266483545
1761475469696095000,1.547094970703125,-0.0016833218978717923,-0.024196309968829155,-0.008771474473178387
1761475469706072800,1.55707275390625,-0.015253725461661816,-0.036118216812610626,-0.018186548724770546
1761475469716050000,1.5670498046875,-0.018515193834900856,-0.05444362387061119,-0.019130555912852287
1761475469726027000,1.577027099609375,-0.0160128865391016,-0.056695591658353806,-0.022862177342176437
1761475469736004900,1.5870048828125,-0.0027632906567305326,-0.06001807749271393,-0.02820705994963646
1761475469745982000,1.59698193359375,0.00049668486462906,-0.07023130357265472,-0.04373009502887726
1761475469755958800,1.606958740234375,0.003443581983447075,-0.07586132735013962,-0.06212081015110016
1761475469765937000,1.61693701171875,0.0016912220744416118,-0.06675145775079727,-0.07666406035423279
1761475469775914000,1.6269140625,0.0014396057231351733,-0.0433046855032444,-0.08523394167423248
1761475469785890800,1.636890869140625,0.011344168335199356,-0.014193139038980007,-0.080563023686409
1761475469795869000,1.646868896484375,0.029540805146098137,0.018540162593126297,-0.060374561697244644
1761475469805846000,1.656845947265625,0.04438260197639465,0.06303305923938751,-0.03532087430357933
1761475469815822800,1.66682275390625,0.04541563615202904,0.09554458409547806,-0.012540125288069248
1761475469825801000,1.676801025390625,0.038293544203042984,0.10757381469011307,-0.0029551417101174593
1761475469835778000,1.686778076171875,0.024908175691962242,0.1122502014040947,-0.004148871172219515
1761475469845755000,1.6967548828125,0.018072105944156647,0.10523330420255661,-0.01285634282976389
1761475469855733000,1.70673291015625,0.019940268248319626,0.09009488672018051,-0.015824150294065475
1761475469865710000,1.7167099609375,0.02754918485879898,0.06159186735749245,-0.02265063114464283
1761475469875687000,1.72668701171875,0.044556815177202225,0.026786772534251213,-0.016199059784412384
1761475469885665000,1.7366650390625,0.060012467205524445,-0.002349274232983589,-0.006123255006968975
1761475469895641900,1.746641845703125,0.06431073695421219,-0.022028986364603043,0.008976861834526062
1761475469905618400,1.756618408203125,0.05748585984110832,-0.03428991138935089,0.01690882071852684
1761475469915596500,1.766596435546875,0.04443195089697838,-0.042465392500162125,0.018481165170669556
1761475469925573400,1.776573486328125,0.03163759410381317,-0.04651899263262749,0.024684200063347816
1761475469935550500,1.786550537109375,0.02091863378882408,-0.034744974225759506,0.03351530805230141
1761475469945528300,1.7965283203125,0.01687542162835598,-0.008800992742180824,0.04303504154086113
1761475469955505400,1.80650537109375,0.02224411442875862,0.009581893682479858,0.0511041097342968
1761475469965483500,1.8164833984375,0.03262538090348244,0.0014525942970067263,0.052351001650094986
1761475469975460400,1.82646044921875,0.044733814895153046,-0.01695297285914421,0.04000253602862358
1761475469985437400,1.8364375,0.045629434287548065,-0.03433329612016678,0.013467599637806416
1761475469995415600,1.84641552734375,0.03927212953567505,-0.028347140178084373,-0.005617606453597546
1761475470005392400,1.856392333984375,0.027516404166817665,-0.006826402619481087,-0.020937973633408546
1761475470015369500,1.866369384765625,0.024512356147170067,0.03482801094651222,-0.024809610098600388
1761475470025347600,1.87634765625,0.030327634885907173,0.06827598065137863,-0.019601797685027122
1761475470035324400,1.886324462890625,0.0365820936858654,0.08288650959730148,-0.013173240236938
1761475470045301500,1.896301513671875,0.041640233248472214,0.0679863840341568,-0.00812575127929449
1761475470055279400,1.906279296875,0.03497468680143356,0.0371658056974411,-0.013344885781407356
1761475470065256400,1.91625634765625,0.019991744309663773,0.019096791744232178,-0.02510727010667324
1761475470075233500,1.926233642578125,0.005509526468813419,0.005854259245097637,-0.036071062088012695
1761475470085211400,1.93621142578125,-0.005097843706607819,-0.0005596973933279514,-0.047865938395261765
1761475470095188500,1.9461884765625,-0.006219671573489904,-0.019535858184099197,-0.057089343667030334
1761475470105165600,1.95616552734375,-0.004410586319863796,-0.04339431971311569,-0.05910163000226021
1761475470115143400,1.966143310546875,-0.000663143873680383,-0.049988146871328354,-0.049974698573350906
1761475470125120500,1.97612060546875,0.004683418199419975,-0.024076387286186218,-0.03328973054885864
1761475470135097300,1.986097412109375,0.0010438075987622142,0.016500821337103844,-0.01867373287677765
1761475470145075200,1.9960751953125,-0.0025346819311380386,0.044970810413360596,-0.012916245497763157
1761475470155052500,2.006052490234375,0.00041287843487225473,0.06261730194091797,-0.021827934309840202
1761475470165029400,2.016029296875,-0.0032305922359228134,0.08484990149736404,-0.03632325306534767
1761475470175007200,2.02600732421875,0.0015401113778352737,0.1002618744969368,-0.05517023429274559
1761475470184984300,2.035984375,0.00840680580586195,0.11747334897518158,-0.0758582055568695
1761475470194962200,2.045962158203125,0.02126828022301197,0.13979898393154144,-0.09105879813432693
1761475470204939300,2.055939208984375,0.03420671448111534,0.13647402822971344,-0.10384410619735718
1761475470214916400,2.065916259765625,0.04470616951584816,0.11325407028198242,-0.10050806403160095
1761475470224894200,2.075894287109375,0.04392879456281662,0.07896533608436584,-0.08684524893760681
1761475470234871300,2.085871337890625,0.03869517520070076,0.04315449669957161,-0.057383012026548386
1761475470244848000,2.09584814453125,0.023928748443722725,0.021088605746626854,-0.013095705769956112
1761475470254826200,2.105826171875,0.011917760595679283,0.013086382299661636,0.031417131423950195
1761475470264803300,2.11580322265625,0.0020922941621392965,0.01208929531276226,0.06733439117670059
1761475470274780200,2.1257802734375,-0.0017999159172177315,0.012850426137447357,0.09049297124147415
1761475470284758300,2.13575830078125,-0.0008526293677277863,0.003535488387569785,0.09249167144298553
1761475470294735400,2.1457353515625,-0.004393700044602156,-0.018957793712615967,0.08203739672899246
1761475470304712200,2.155712158203125,-0.0038807750679552555,-0.0484488382935524,0.06261469423770905
1761475470314690300,2.165690185546875,0.007431162055581808,-0.06890704482793808,0.03754441812634468
1761475470324667400,2.17566748046875,0.017422011122107506,-0.07513591647148132,0.019681265577673912
1761475470334644200,2.185644287109375,0.0294675063341856,-0.06467876583337784,0.0004980785888619721
1761475470344622300,2.195622314453125,0.0405459888279438,-0.04488029330968857,-0.006421079859137535
1761475470354599400,2.205599365234375,0.03946222364902496,-0.014587244018912315,-0.012565100565552711
1761475470364576300,2.215576171875,0.03629758954048157,0.015163995325565338,-0.014657014049589634
1761475470374554400,2.225554443359375,0.024382205680012703,0.014712012372910976,-0.02397298254072666
1761475470384531200,2.23553125,0.015105350874364376,-0.0016840050229802728,-0.03112463466823101
1761475470394508300,2.24550830078125,0.010976014658808708,-0.027163337916135788,-0.024363217875361443
1761475470404486400,2.255486328125,0.009868672117590904,-0.0444917269051075,-0.019691500812768936
1761475470414463200,2.265463134765625,0.011513357050716877,-0.06433974206447601,-0.00215570698492229
1761475470424440300,2.2754404296875,0.016166165471076965,-0.0764419436454773,0.01290952879935503
1761475470434418400,2.28541845703125,0.019847510382533073,-0.06833382695913315,0.02366853691637516
1761475470444395300,2.295395263671875,0.022374849766492844,-0.05596504360437393,0.03225483372807503
1761475470454373400,2.305373291015625,0.01664561778306961,-0.04342992603778839,0.030700301751494408
1761475470464350500,2.3153505859375,0.014014680869877338,-0.04756714776158333,0.029069913551211357
1761475470474327300,2.325327392578125,0.010623062960803509,-0.043462954461574554,0.029686111956834793
1761475470484305400,2.335305419921875,0.010619600303471088,-0.031029455363750458,0.030971352010965347
1761475470494282500,2.345282470703125,0.007067637983709574,-0.016283871605992317,0.029119575396180153
1761475470504259300,2.35525927734375,0.00299672968685627,-0.010874992236495018,0.023888060823082924
1761475470514237400,2.365237548828125,-0.002879995619878173,-0.011786488816142082,0.012493663467466831
1761475470524214300,2.37521435546875,-0.009283033199608326,-0.026134533807635307,0.0058022052980959415
1761475470534191400,2.38519140625,-0.01192887406796217,-0.03258826956152916,-0.005795739125460386
1761475470544169500,2.39516943359375,-0.010841239243745804,-0.023463480174541473,-0.001171958982013166
1761475470554146300,2.405146240234375,-0.01207771897315979,-0.008061468601226807,0.003245646134018898
1761475470564123400,2.415123291015625,-0.019570255652070045,0.011696789413690567,0.008469702675938606
1761475470574101500,2.4251015625,-0.015363340266048908,0.02075987122952938,0.009099946357309818
1761475470584078300,2.435078369140625,-0.015380383469164371,0.019119098782539368,0.006007750518620014
1761475470594055400,2.445055419921875,-0.0234493687748909,0.011314840987324715,-0.0038314596749842167
1761475470604033500,2.455033447265625,-0.028008166700601578,0.010465559549629688,-0.0050072455778717995
1761475470614010400,2.46501025390625,-0.027884885668754578,0.015296467579901218,-0.009239832870662212
1761475470623987500,2.474987548828125,-0.02531706541776657,0.02260870859026909,-0.008999881334602833
1761475470633965300,2.48496533203125,-0.026707615703344345,0.025402389466762543,-0.01717412658035755
1761475470643942400,2.4949423828125,-0.026523057371377945,0.004737856797873974,-0.021407220512628555
1761475470653919500,2.50491943359375,-0.02844470739364624,-0.009360825642943382,-0.032989323139190674
1761475470663897300,2.5148974609375,-0.033097248524427414,-0.012007741257548332,-0.036779534071683884
1761475470673874400,2.52487451171875,-0.029309650883078575,-0.0025833111722022295,-0.040456388145685196
1761475470683852500,2.5348525390625,-0.019799768924713135,0.005907112266868353,-0.04288865253329277
1761475470693829400,2.544829345703125,-0.007782332599163055,0.004904511850327253,-0.04200034961104393
1761475470703806500,2.554806396484375,-0.002945232903584838,-0.005420031026005745,-0.041667986661195755
1761475470713784600,2.56478466796875,-0.006038848776370287,-0.010409822687506676,-0.043080247938632965
1761475470723761400,2.574761474609375,-0.008420247584581375,-0.009857483208179474,-0.040666356682777405
1761475470733738500,2.584738525390625,-0.008652814663946629,-0.006595212034881115,-0.03876559063792229
1761475470743716400,2.59471630859375,-0.012035828083753586,-0.009127079509198666,-0.035383112728595734
1761475470753693400,2.604693359375,-0.01346558053046465,-0.010294622741639614,-0.025179853662848473
1761475470763670500,2.61467041015625,-0.0074127474799752235,-0.0036463066935539246,-0.013110674917697906
1761475470773648400,2.6246484375,-0.0020835998002439737,0.00036380812525749207,-0.004100218415260315
1761475470783625500,2.63462548828125,0.005251278169453144,-0.0009808219037950039,0.009370050393044949
1761475470793602600,2.6446025390625,0.01418589148670435,-0.002173270331695676,0.018441887572407722
1761475470803580200,2.654580078125,0.0137070557102561,0.007172560319304466,0.030992034822702408
1761475470813557500,2.6645576171875,0.011766908690333366,0.016134927049279213,0.03996540978550911
1761475470823534300,2.674534423828125,0.007770037278532982,0.025106584653258324,0.03794007748365402
1761475470833512200,2.68451220703125,0.008417061530053616,0.030495617538690567,0.036469101905822754
1761475470843489500,2.694489501953125,0.015015308745205402,0.019836049526929855,0.031054893508553505
1761475470853466400,2.70446630859375,0.017933683469891548,-0.0036274571903049946,0.024268420413136482
1761475470863444200,2.7144443359375,0.012421739287674427,-0.03077838569879532,0.01522698812186718
1761475470873421300,2.72442138671875,0.004551587626338005,-0.04728778451681137,0.010356356389820576
1761475470883398400,2.7343984375,-0.0010676819365471601,-0.05066520720720291,0.010696708224713802
1761475470893376300,2.744376220703125,-0.0021387345623224974,-0.03163735195994377,0.015000049024820328
1761475470903353300,2.754353271484375,0.000009903800673782825,-0.005176449194550514,0.014026396907866001
1761475470913332000,2.76433203125,-0.0006106268847361207,0.023404613137245178,0.011744499206542969
1761475470923309000,2.77430908203125,-0.0021691089496016502,0.02599933184683323,0.007211000192910433
1761475470933286000,2.784285888671875,-0.003624766133725643,0.013061313889920712,0.00029898545471951365
1761475470943264000,2.794263916015625,-0.005351293366402388,-0.004824742674827576,-0.010248996317386627
1761475470953241000,2.804240966796875,-0.006535230204463005,-0.026548873633146286,-0.022982819005846977
1761475470963218000,2.814218017578125,-0.0030068079940974712,-0.03760845214128494,-0.02841486781835556
1761475470973196000,2.824196044921875,0.0023505892604589462,-0.035640913993120193,-0.02398209273815155
1761475470983172900,2.8341728515625,0.007177036255598068,-0.018993493169546127,-0.016206461936235428
1761475470993150000,2.84414990234375,0.009734527207911015,-0.0016234362265095115,-0.011700557544827461
1761475471003128000,2.854128173828125,0.004422586411237717,0.005006769672036171,-0.007352947723120451
1761475471013105000,2.86410498046875,0.003430907381698489,0.009426292032003403,-0.0065374295227229595
1761475471023082000,2.87408203125,0.001275877351872623,-0.0009405941236764193,-0.0018348197918385267
1761475471033060000,2.88406005859375,-0.0010114371543750167,-0.012283694930374622,0.00257317628711462
1761475471043037000,2.894036865234375,-0.0007610999746248126,-0.01711360365152359,0.009242264553904533
1761475471053014000,2.904013916015625,0.0025365385226905346,-0.010436547920107841,0.01786126010119915
1761475471062992100,2.9139921875,0.009627471677958965,-0.0015479815192520618,0.018385637551546097
1761475471072969000,2.923968994140625,0.010056479834020138,0.006504734046757221,0.012316073291003704
1761475471082946000,2.933946044921875,0.005555737763643265,0.00041195424273610115,0.01033441536128521
1761475471092924000,2.943923828125,0.00009835913078859448,-0.016521994024515152,0.004953079391270876
1761475471102901000,2.95390087890625,-0.005792286712676287,-0.027062784880399704,0.005023919511586428
1761475471112878000,2.963878173828125,-0.0008126296452246606,-0.023049745708703995,0.012300335802137852
1761475471122856000,2.97385595703125,0.004694787785410881,-0.003648352576419711,0.024464057758450508
1761475471132833000,2.9838330078125,0.005692699924111366,0.009587708860635757,0.0291794054210186
1761475471142811100,2.99381103515625,0.0018763903062790632,0.021202022209763527,0.03394406661391258
1761475471152788000,3.0037880859375,0.0009418870322406292,0.014245578087866306,0.024881063029170036
1761475471162765000,3.01376513671875,-0.0031820181757211685,0.003803855972364545,0.013332530856132507
1761475471172743200,3.0237431640625,-0.005840756464749575,-0.0011238630395382643,0.010286858305335045
1761475471182720000,3.033719970703125,-0.008951062336564064,-0.012657481245696545,0.011210708878934383
1761475471192697000,3.043697021484375,-0.013370736502110958,-0.00650115916505456,0.008265265263617039
1761475471202675200,3.05367529296875,-0.010906247422099113,0.00789109617471695,0.019027099013328552
1761475471212652000,3.063652099609375,-0.005750528071075678,0.017557643353939056,0.026988433673977852
1761475471222629000,3.073629150390625,-0.00014430738519877195,0.0218525230884552,0.028644919395446777
1761475471232607000,3.08360693359375,-0.000748578691855073,0.02324189431965351,0.029359711334109306
1761475471242584000,3.093583984375,0.0017627822235226631,0.026212384924292564,0.029892077669501305
1761475471252561200,3.10356103515625,0.0029522315599024296,0.017073754221200943,0.026268107816576958
1761475471262539000,3.1135390625,0.004333346616476774,-0.00911390595138073,0.01791217364370823
1761475471272516000,3.12351611328125,-0.004761401563882828,-0.03916159272193909,0.009162184782326221
1761475471282493000,3.133492919921875,-0.007101787254214287,-0.054971180856227875,0.001141010201536119
1761475471292471000,3.143470947265625,-0.011322738602757454,-0.05046979710459709,-0.004782938864082098
1761475471302448000,3.1534482421875,-0.011712359264492989,-0.02675301767885685,-0.011708489619195461
1761475471312426000,3.163426025390625,-0.010565157979726791,0.0015091551467776299,-0.008361414074897766
1761475471322403000,3.173403076171875,-0.0050604031421244144,0.02554178796708584,-0.005963769741356373
1761475471332380200,3.183380126953125,-0.0030490700155496597,0.03423592075705528,-0.0017509766621515155
1761475471342357800,3.193357666015625,0.0027829864993691444,0.017645493149757385,-0.002888679038733244
1761475471352335000,3.203335205078125,0.00048273196443915367,-0.01008707657456398,-0.0034565229434520006
1761475471362312200,3.213312255859375,-0.00022593518951907754,-0.01852184161543846,0.0018666033865883946
1761475471372289800,3.223289794921875,0.005184036213904619,-0.011636353097856045,0.018695073202252388
1761475471382267000,3.233266845703125,0.0035930639132857323,0.0014693287666887045,0.029381273314356804
1761475471392244200,3.243244140625,-0.0032537353690713644,0.0032388123217970133,0.027877788990736008
1761475471402221800,3.253221923828125,-0.005037786904722452,-0.005497154779732227,0.02296372503042221
1761475471412199000,3.263198974609375,-0.005035526119172573,0.0005617598071694374,0.014763887971639633
1761475471422176000,3.273176025390625,0.00246127275750041,0.017290672287344933,0.004637217614799738
1761475471432153900,3.28315380859375,0.012980889528989792,0.030975017696619034,-0.0007628367748111486
1761475471442131000,3.293130859375,0.022565606981515884,0.03616604954004288,-0.015595579519867897
1761475471452108000,3.30310791015625,0.02004719153046608,0.035188980400562286,-0.030339142307639122
1761475471462086000,3.3130859375,0.019699381664395332,0.014228569343686104,-0.044623006135225296
1761475471472063000,3.32306298828125,0.01059019472450018,-0.011309171095490456,-0.051932062953710556
1761475471482039800,3.333039794921875,0.00962879415601492,-0.018463486805558205,-0.05578991770744324
1761475471492018000,3.343017822265625,0.008894243277609348,-0.00607290118932724,-0.051278695464134216
1761475471501995000,3.3529951171875,0.01897377520799637,-0.0022853531409054995,-0.0408921018242836
1761475471511972900,3.362972900390625,0.021939899772405624,-0.00851136352866888,-0.03728839382529259
1761475471521950000,3.372949951171875,0.024351125583052635,-0.017407653853297234,-0.033116552978754044
1761475471531927000,3.382927001953125,0.024190271273255348,-0.014927717857062817,-0.023857275024056435
1761475471541905000,3.39290478515625,0.027415890246629715,-0.006745154969394207,-0.008722263388335705
1761475471551882000,3.402882080078125,0.02258193865418434,0.008053015917539597,0.009744384326040745
1761475471561858800,3.41285888671875,0.00957532599568367,0.017016416415572166,0.01774478703737259
1761475471571837000,3.4228369140625,0.0013467702083289623,0.014877020381391048,0.020014725625514984
1761475471581814000,3.43281396484375,-0.0034871334210038185,0.010923025198280811,0.021223269402980804
1761475471591790800,3.442790771484375,-0.0011861887760460377,-0.0028155746404081583,0.01752551645040512
1761475471601769000,3.45276904296875,0.004376622382551432,-0.014541206881403923,0.0073618278838694096
1761475471611746000,3.46274609375,0.01108669675886631,-0.026977255940437317,0.0034169338177889585
1761475471621723000,3.472722900390625,0.016115009784698486,-0.029623905196785927,-0.003682520939037204
1761475471631701000,3.482700927734375,0.009790447540581226,-0.026454035192728043,-0.00823837611824274
1761475471641678000,3.492677978515625,0.00728760939091444,-0.0068750083446502686,-0.01545314583927393
1761475471651655000,3.502655029296875,0.006923743523657322,0.020524736493825912,-0.010883555747568607
1761475471661633000,3.512633056640625,0.0064875176176428795,0.04812174290418625,-0.0021803458221256733
1761475471671609900,3.52260986328125,-0.0005003765691071749,0.05804932489991188,0.0084419846534729
1761475471681587000,3.5325869140625,-0.006255733780562878,0.042010169476270676,0.009081675671041012
1761475471691565000,3.54256494140625,-0.00828324630856514,0.014844379387795925,0.00921272486448288
1761475471701542000,3.5525419921875,-0.007442752830684185,-0.002204112708568573,0.013192019425332546
1761475471711520000,3.56252001953125,-0.00001514411997050047,-0.012963248416781425,0.012696047313511372
1761475471721497000,3.5724970703125,0.005659252870827913,-0.016636280342936516,0.010542881675064564
1761475471731474000,3.582473876953125,0.007433393970131874,-0.014963936991989613,0.006702232640236616
1761475471741452000,3.5924521484375,0.012773565016686916,0.005581552162766457,-0.0002696563315112144
1761475471751429000,3.60242919921875,0.01598462089896202,0.02301674149930477,-0.01483682356774807
1761475471761406000,3.612406005859375,0.020042479038238525,0.030973736196756363,-0.03308666869997978
1761475471771384000,3.622384033203125,0.027734193950891495,0.023165196180343628,-0.05540231615304947
1761475471781361200,3.632361083984375,0.03607068955898285,0.013977555558085442,-0.07213415950536728
1761475471791338000,3.642337890625,0.03907116875052452,0.005376805551350117,-0.08016127347946167
1761475471801316000,3.652316162109375,0.03693158179521561,0.009511362761259079,-0.08149018883705139
1761475471811293000,3.66229296875,0.03510481119155884,0.010366345755755901,-0.07225115597248077
1761475471821270000,3.67227001953125,0.03355804830789566,0.008303727023303509,-0.06596449762582779
1761475471831248100,3.682248046875,0.037154003977775574,0.0008110315538942814,-0.057373955845832825
1761475471841225000,3.692224853515625,0.03970877453684807,-0.010720722377300262,-0.04779190197587013
1761475471851202000,3.7022021484375,0.03978286683559418,-0.012121155858039856,-0.03392019122838974
1761475471861180200,3.71218017578125,0.030749691650271416,-0.015988333150744438,-0.015912961214780807
1761475471871157000,3.722156982421875,0.016406971961259842,-0.03273002803325653,0.002421038458123803
1761475471881134000,3.732134033203125,0.005922373384237289,-0.0462181381881237,0.015997834503650665
1761475471891112200,3.7421123046875,0.006386317312717438,-0.04392482712864876,0.0370623953640461
1761475471901089000,3.752089111328125,0.013445558957755566,-0.03123646229505539,0.0530293807387352
1761475471911065300,3.7620654296875,0.020472386851906776,-0.014021335169672966,0.05839524418115616
1761475471921043500,3.77204345703125,0.02278241328895092,0.0018721441738307476,0.05466229096055031
1761475471931020300,3.782020263671875,0.019650250673294067,0.0045654200948774815,0.04069924354553223
1761475471940998400,3.791998291015625,0.015892265364527702,0.0019470001570880413,0.02766573429107666
1761475471950975500,3.8019755859375,0.010448196902871132,-0.0038001593202352524,0.017992254346609116
1761475471960952300,3.811952392578125,0.006712581031024456,-0.012315350584685802,0.010828884318470955
1761475471970930400,3.821930419921875,0.004021727945655584,-0.014235137961804867,0.013287441805005074
1761475471980907500,3.831907470703125,0.006283284164965153,-0.0083010820671916,0.014600913040339947
1761475471990884400,3.84188427734375,0.002601092681288719,-0.0028643105179071426,0.01441867183893919
1761475472000862500,3.851862548828125,-0.0065492624416947365,-0.007222839631140232,0.007459299638867378
1761475472010839600,3.861839599609375,-0.018202466890215874,-0.013859608210623264,-0.0028001167811453342
1761475472020816400,3.87181640625,-0.0241977758705616,-0.014813818968832493,-0.003236875170841813
1761475472030794500,3.88179443359375,-0.020724469795823097,-0.01183996256440878,-0.0033576618880033493
1761475472040771600,3.891771484375,-0.006461378186941147,-0.004243028815835714,0.012627962045371532
1761475472050748400,3.90174853515625,-0.005422034300863743,0.0010272746440023184,0.023379957303404808
1761475472060726500,3.9117265625,0.00034956808667629957,0.005051843822002411,0.026733145117759705
1761475472070703400,3.921703369140625,0.0007664108416065574,0.007089016027748585,0.026852553710341454
1761475472080680400,3.931680419921875,-0.003318878123536706,0.0038346333894878626,0.01858397200703621
1761475472090658300,3.941658203125,-0.01576436311006546,0.013040382415056229,-0.0013332768576219678
1761475472100635400,3.951635498046875,-0.018909288570284843,0.017283065244555473,-0.018021443858742714
1761475472110613200,3.96161328125,-0.011471002362668514,0.013176657259464264,-0.031311020255088806
1761475472120590300,3.97159033203125,-0.005651462823152542,-0.005813811905682087,-0.039010483771562576
1761475472130567400,3.9815673828125,-0.007190607953816652,-0.023414980620145798,-0.05189866945147514
1761475472140545300,3.991545166015625,-0.008055602200329304,-0.03300528973340988,-0.053113337606191635
1761475472150522400,4.0015224609375,-0.012415170669555664,-0.03196091577410698,-0.04526957497000694
1761475472160499500,4.01149951171875,-0.016027482226490974,-0.015872227028012276,-0.03834588825702667
1761475472170477300,4.021477294921875,-0.01280289702117443,-0.001960167195647955,-0.030087808147072792
1761475472180454100,4.0314541015625,-0.009477407671511173,0.011604909785091877,-0.015317119657993317
1761475472190431200,4.04143115234375,-0.0063424487598240376,0.008933516219258308,-0.0036004805006086826
1761475472200409300,4.051409423828125,-0.004146939143538475,-0.0025196748320013285,-0.0011479754466563463
1761475472210386200,4.06138623046875,0.0009735262719914317,-0.010866468772292137,0.006284833420068026
1761475472220363300,4.07136328125,0.01289782952517271,-0.006963873282074928,0.01525995321571827
1761475472230341400,4.08134130859375,0.015735987573862076,-0.0008648167131468654,0.025061672553420067
1761475472240318200,4.091318115234375,0.012139921076595783,0.012436075136065483,0.029671337455511093
1761475472250295300,4.10129541015625,0.00832169409841299,0.022518234327435493,0.03174283355474472
1761475472260273400,4.1112734375,0.0057469503954052925,0.026275156065821648,0.02921948954463005
1761475472270250200,4.121250244140625,0.008923511952161789,0.012185846455395222,0.02119475044310093
1761475472280228400,4.131228271484375,0.011914507485926151,-0.005902343429625034,0.016547268256545067
1761475472290205400,4.141205322265625,0.014566806145012379,0.004757612943649292,0.009419952519237995
1761475472300182300,4.151182373046875,0.022808492183685303,0.017833733931183815,0.006872905883938074
1761475472310160400,4.161160400390625,0.02588561177253723,0.017597317695617676,-0.0015260897343978286
1761475472320137200,4.17113720703125,0.023306075483560562,0.008313537575304508,-0.00776827335357666
1761475472330114300,4.1811142578125,0.012211349792778492,0.008639328181743622,-0.011151090264320374
1761475472340092400,4.191092529296875,0.0031006752979010344,0.00024105049669742584,-0.013325028121471405
1761475472350069200,4.2010693359375,-0.0013842352200299501,-0.0008888747543096542,-0.011433467268943787
1761475472360046300,4.21104638671875,-0.0011062012054026127,-0.003984000533819199,-0.010338908061385155
1761475472370024400,4.2210244140625,0.0012851106002926826,-0.001117254258133471,-0.010836821980774403
1761475472380001300,4.231001220703125,0.00014847348211333156,0.00769061828032136,-0.005969895049929619
1761475472389978400,4.240978271484375,-0.0050728097558021545,0.012471682392060757,-0.0010832520201802254
1761475472399956500,4.25095654296875,-0.004824336618185043,0.014394218102097511,0.004771174862980843
1761475472409933300,4.260933349609375,-0.008275418542325497,0.0025289286859333515,0.006815427914261818
1761475472419910400,4.270910400390625,-0.006591235287487507,-0.006692532915621996,0.006867093034088612
1761475472429888300,4.28088818359375,-0.0022456205915659666,-0.013285411521792412,0.016209429129958153
1761475472439865300,4.290865234375,-0.0015417470131069422,-0.0007840002654120326,0.018610801547765732
1761475472449842400,4.300842529296875,-0.0006863696034997702,0.014403236098587513,0.025235796347260475
1761475472459820300,4.3108203125,-0.005437449086457491,0.015567569993436337,0.0225587859749794
1761475472469797400,4.32079736328125,-0.008471478708088398,-0.002971067326143384,0.014284622855484486
1761475472479775500,4.330775390625,-0.013875299133360386,-0.014405349269509315,0.005304443184286356
1761475472489752300,4.34075244140625,-0.009518313221633434,0.0030829536262899637,-0.0015056859701871872
1761475472499729400,4.3507294921875,-0.0013250980991870165,0.02209632657468319,-0.003106512129306793
1761475472509707500,4.36070751953125,0.0015218656044453382,0.025702375918626785,-0.010206185281276703
1761475472519684400,4.370684326171875,0.003908057697117329,0.01189175434410572,-0.017663834616541862
1761475472529661400,4.380661376953125,-0.0018780780956149101,-0.011281231418251991,-0.025062156841158867
1761475472539639600,4.3906396484375,-0.003763596061617136,-0.023050270974636078,-0.03478403016924858
1761475472549616400,4.400616455078125,-0.0074935974553227425,-0.016139570623636246,-0.03097834624350071
1761475472559593500,4.410593505859375,-0.005340698175132275,0.01268675085157156,-0.019144855439662933
1761475472569571300,4.4205712890625,0.004068385809659958,0.028031926602125168,-0.009794000536203384
1761475472579548400,4.43054833984375,0.011300732381641865,0.019510876387357712,-0.00542402034625411
1761475472589525500,4.440525390625,0.017275027930736542,-0.0008914482314139605,-0.00012224528472870588
1761475472599503400,4.45050341796875,0.015017732977867126,-0.03420279920101166,0.0006849588826298714
1761475472609480400,4.46048046875,0.006491141859441996,-0.049749501049518585,0.00738351559266448
1761475472619457500,4.47045751953125,0.004484183620661497,-0.027729684486985207,0.022394955158233643
1761475472629435400,4.480435302734375,0.001732177333906293,-0.00038214330561459064,0.03701872006058693
1761475472639412500,4.49041259765625,0.002649103756994009,0.011725652031600475,0.048483897000551224
1761475472649389300,4.500389404296875,0.004586422815918922,0.005071787163615227,0.040163345634937286
1761475472659367400,4.510367431640625,0.004738755989819765,0.002641918370500207,0.03590042516589165
1761475472669344500,4.520344482421875,0.003619423136115074,0.008742603473365307,0.029824230819940567
1761475472679322400,4.530322265625,0.009663467295467854,0.018498294055461884,0.022885099053382874
1761475472689299500,4.540299560546875,0.014873257838189602,0.018998946994543076,0.01916593126952648
1761475472699276500,4.550276611328125,0.024079006165266037,0.0228770412504673,0.017663907259702682
1761475472709254100,4.560254150390625,0.022999973967671394,0.016677921637892723,0.006638015154749155
1761475472719231500,4.5702314453125,0.016794275492429733,0.0007697956170886755,0.0012975783320143819
1761475472729208600,4.58020849609375,0.007172142155468464,-0.01515613030642271,-0.0006423027371056378
1761475472739186200,4.590186279296875,-0.0062786852940917015,-0.017967894673347473,0.008081946521997452
1761475472749163300,4.600163330078125,-0.013172203674912453,-0.01484736893326044,0.02047649584710598
1761475472759140400,4.610140380859375,-0.020480716601014137,-0.012730422429740429,0.03671245649456978
1761475472769118200,4.6201181640625,-0.019676733762025833,-0.001489370595663786,0.04996093362569809
1761475472779095300,4.63009521484375,-0.013175691477954388,0.004326440393924713,0.05568992719054222
1761475472789072400,4.640072265625,-0.012243768200278282,0.009034116752445698,0.04993648827075958
1761475472799050200,4.65005029296875,-0.012904765084385872,0.0075467415153980255,0.03585422411561012
1761475472809027300,4.66002734375,-0.016020476818084717,0.0034143938682973385,0.017548592761158943
1761475472819005200,4.670005126953125,-0.0175991989672184,-0.0028501597698777914,0.005906317383050919
1761475472828982300,4.679982177734375,-0.01407530251890421,-0.015080993995070457,-0.0055418130941689014
1761475472838959400,4.68995947265625,-0.009720767848193645,-0.018418999388813972,-0.009422038681805134
1761475472848937200,4.699937255859375,-0.003486793488264084,-0.008358159102499485,-0.008742420002818108
1761475472858914300,4.709914306640625,-0.005393616855144501,0.004828216508030891,-0.009166128933429718
1761475472868891400,4.719891357421875,-0.009622106328606606,0.02014664001762867,-0.0063672843389213085
1761475472878869200,4.729869140625,-0.006148012354969978,0.027225589379668236,-0.004611195996403694
1761475472888846300,4.739846435546875,-0.007491999305784702,0.014395168982446194,-0.0014028772711753845
1761475472898823200,4.7498232421875,-0.004392879083752632,-0.01330916304141283,-0.0029339285101741552
1761475472908802300,4.75980224609375,0.0003984448267146945,-0.0437946617603302,0.0061798240058124065
1761475472918779400,4.769779296875,0.008168749511241913,-0.054652370512485504,0.01801091805100441
1761475472928756500,4.779756591796875,0.015047905035316944,-0.04083840921521187,0.03302518278360367
1761475472938734300,4.789734375,0.01589292474091053,-0.015004683285951614,0.04680890589952469
1761475472948711400,4.79971142578125,0.013131066225469112,0.014521855860948563,0.05154648795723915
1761475472958688300,4.809688232421875,0.012320132926106453,0.03348010033369064,0.053074341267347336
1761475472968666400,4.819666259765625,0.007037465460598469,0.0344904400408268,0.04164749011397362
1761475472978643500,4.8296435546875,0.007296058349311352,0.01560196839272976,0.030482720583677292
1761475472988621600,4.83962158203125,0.013246036134660244,-0.00440381933003664,0.02677842788398266
1761475472998598400,4.849598388671875,0.01921258307993412,-0.023064056411385536,0.02382817678153515
1761475473008575500,4.859575439453125,0.02514765039086342,-0.029449554160237312,0.030701354146003723
1761475473018553300,4.86955322265625,0.02925051748752594,-0.019898924976587296,0.032034002244472504
1761475473028530400,4.879530517578125,0.02908260188996792,-0.0024781660176813602,0.02728215977549553
1761475473038507500,4.889507568359375,0.020920012146234512,0.010456274263560772,0.01987324468791485
1761475473048485400,4.8994853515625,0.013330458663403988,0.005237356759607792,0.008281974121928215
1761475473058462500,4.90946240234375,0.011197266168892384,-0.013172809034585953,-0.0038452623412013054
1761475473068439600,4.919439453125,0.010105292312800884,-0.028405744582414627,-0.008268634788691998
1761475473078417400,4.92941748046875,0.009400352835655212,-0.04441747069358826,-0.009981313720345497
1761475473088394500,4.93939453125,0.012627676129341125,-0.050479281693696976,-0.008754579350352287
1761475473098371300,4.949371337890625,0.01807943359017372,-0.043204326182603836,-0.006826451048254967
1761475473108349400,4.959349365234375,0.0188145749270916,-0.039443254470825195,-0.005253311712294817
1761475473118326500,4.969326416015625,0.015441414900124073,-0.028371959924697876,-0.003071916289627552
1761475473128303400,4.979303466796875,0.011021790094673634,-0.015027283690869808,0.004131125286221504
1761475473138281500,4.989281494140625,0.00877168495208025,-0.0006986780790612102,0.006493082735687494
1761475473148258600,4.999258544921875,0.01363067515194416,-0.0035628715995699167,0.009852036833763123
1761475473158235400,5.0092353515625,0.016622737050056458,-0.008241246454417706,0.005189906340092421
1761475473168213200,5.019213134765625,0.01853576861321926,-0.011050608940422535,-0.001184580265544355
1761475473178190600,5.029190673828125,0.020947527140378952,-0.017458174377679825,-0.0002468812162987888
1761475473188168200,5.039168212890625,0.016156557947397232,-0.025711365044116974,0.0012362729758024216
1761475473198145300,5.049145263671875,0.012521608732640743,-0.025913499295711517,0.006851015146821737
1761475473208122400,5.059122314453125,0.00645436393097043,-0.015161579474806786,0.014231614768505096
1761475473218100200,5.069100341796875,0.00645463028922677,0.002655767137184739,0.023204069584608078
1761475473228077300,5.079077392578125,0.010044841095805168,0.02384689263999462,0.026914050802588463
1761475473238054400,5.089054443359375,0.012712529860436916,0.03358474373817444,0.033130668103694916
1761475473248032300,5.0990322265625,0.012424934655427933,0.017988355830311775,0.021993814036250114
1761475473258009300,5.10900927734375,0.006218970753252506,-0.014990633353590965,0.012810967862606049
1761475473267986200,5.118986083984375,-0.000721789663657546,-0.03843121603131294,0.0061063095927238464
1761475473277964300,5.12896435546875,-0.0037881536409258842,-0.03789272531867027,0.00564584881067276
1761475473287941400,5.13894140625,0.001313293119892478,-0.019673312082886696,0.0032683636527508497
1761475473297919200,5.148919189453125,0.007682509254664183,0.0035489192232489586,0.004587427247315645
1761475473307896300,5.158896240234375,0.013070965185761452,0.00625390000641346,-0.00010447077511344105
1761475473317873400,5.168873291015625,0.006708140484988689,0.003349988954141736,-0.0017119547119364142
1761475473327851300,5.178851318359375,0.0009248689748346806,0.004088698886334896,-0.005428419914096594
1761475473337828400,5.188828369140625,-0.001444545341655612,0.0019613660406321287,0.0017149773193523288
1761475473347805200,5.19880517578125,0.0031505292281508446,-0.0030971860978752375,0.011042536236345768
1761475473357783300,5.208783203125,0.008285369724035263,-0.002581598237156868,0.015939557924866676
1761475473367760400,5.218760498046875,0.009407198056578636,0.0006992218550294638,0.017342856153845787
1761475473377737200,5.2287373046875,0.015968428924679756,0.0029623762238770723,0.017464030534029007
1761475473387715300,5.23871533203125,0.014368103817105293,0.004628479480743408,0.011211047880351543
1761475473397692400,5.2486923828125,0.00824256706982851,0.019542714580893517,0.005951570346951485
1761475473407669200,5.258669189453125,0.0008801278308965266,0.009328735060989857,-0.004339986015111208
1761475473417647400,5.2686474609375,0.0017746835947036743,-0.008571702055633068,-0.015820074826478958
1761475473427624400,5.27862451171875,0.003763641230762005,-0.0284349974244833,-0.019244356080889702
1761475473437601300,5.288601318359375,0.011957389302551746,-0.035571470856666565,-0.020095501095056534
1761475473447579400,5.298579345703125,0.018028169870376587,-0.017530879005789757,-0.013382124714553356
1761475473457556200,5.30855615234375,0.017253190279006958,0.01268880907446146,-0.00015873057418502867
1761475473467533300,5.318533203125,0.017126239836215973,0.039302051067352295,0.005386028904467821
1761475473477511400,5.328511474609375,0.010052084922790527,0.035756319761276245,0.007199109066277742
1761475473487488300,5.33848828125,0.004228253848850727,0.002838877262547612,0.004772285930812359
1761475473497466400,5.34846630859375,-0.0008216320420615375,-0.02661248855292797,-0.0034153361339122057
1761475473507443500,5.358443359375,0.0017581757856532931,-0.03798436373472214,0.0006973138079047203
1761475473517420300,5.368420166015625,0.013374085538089275,-0.04479246959090233,0.0037564870435744524
1761475473527398400,5.3783984375,0.01980596035718918,-0.04288288205862045,0.009027346968650818
1761475473537375500,5.38837548828125,0.02283264324069023,-0.03299110382795334,0.007440901827067137
1761475473547352300,5.398352294921875,0.021407296881079674,-0.0218501016497612,0.0007275809184648097
1761475473557330400,5.408330322265625,0.012846033088862896,-0.014696584083139896,-0.005909549072384834
1761475473567307500,5.4183076171875,0.00467294966802001,-0.023584242910146713,-0.018038926646113396
1761475473577284400,5.428284423828125,0.0005948510370217264,-0.02561277523636818,-0.02414209395647049
1761475473587262500,5.438262451171875,0.00866076722741127,-0.018713589757680893,-0.022183338180184364
1761475473597239300,5.4482392578125,0.0159359909594059,-0.02026301622390747,-0.016635706648230553
1761475473607216400,5.45821630859375,0.02249887026846409,-0.02709638513624668,-0.008558166213333607
1761475473617194500,5.468194580078125,0.023940173909068108,-0.030717484652996063,-0.005709649529308081
1761475473627171300,5.47817138671875,0.012926753610372543,-0.057726722210645676,0.003711340017616749
1761475473637149400,5.4881494140625,0.002316187135875225,-0.0460282564163208,0.009389200247824192
1761475473647126500,5.49812646484375,-0.003841761266812682,-0.026695119217038155,0.022674238309264183
1761475473657103400,5.508103271484375,-0.008901234716176987,-0.013354545459151268,0.020660890266299248
1761475473667081500,5.51808154296875,-0.010380496270954609,-0.010715746320784092,0.017903298139572144
1761475473677058600,5.52805859375,-0.00963401235640049,-0.009865931235253811,0.005674594547599554
1761475473687035400,5.538035400390625,-0.008832101710140705,-0.007477372884750366,-0.00799846276640892
1761475473697013500,5.548013427734375,-0.0012250486761331558,-0.01231766864657402,-0.02021491341292858
1761475473706990600,5.557990478515625,0.0005892006447538733,-0.015589023008942604,-0.0290988702327013
1761475473716967400,5.567967529296875,-0.004190374631434679,-0.016814876347780228,-0.030806489288806915
1761475473726945300,5.5779453125,-0.0036572616081684828,-0.0007294195238500834,-0.025402311235666275
1761475473736922400,5.58792236328125,0.0007819615420885384,0.02706253156065941,-0.0007832515402697027
1761475473746899500,5.5978994140625,0.006764997728168964,0.041806790977716446,0.016879606992006302
1761475473756877300,5.607877197265625,0.0035910424776375294,0.036448512226343155,0.022693553939461708
1761475473766854400,5.6178544921875,-0.001915628556162119,0.009891165420413017,0.021700819954276085
1761475473776831500,5.62783154296875,-0.011011389084160328,-0.0009859829442575574,0.01907334476709366
1761475473786809300,5.637809326171875,-0.013562063686549664,0.03931402042508125,0.01010423805564642
1761475473796786400,5.647786376953125,-0.005288688465952873,0.04964788630604744,0.0034244973212480545
1761475473806764300,5.657764404296875,0.004548093304038048,0.03691740334033966,-0.0053473846055567265
1761475473816741400,5.667741455078125,0.01142357662320137,0.014757237397134304,-0.012071866542100906
1761475473826718200,5.67771826171875,0.014282140880823135,0.006755933631211519,-0.014738691970705986
1761475473836696300,5.6876962890625,0.014506645500659943,0.012962697073817253,-0.01060786284506321
1761475473846673200,5.697673095703125,0.014859671704471111,0.010878083296120167,-0.006148410029709339
1761475473856650200,5.707650146484375,0.010298209264874458,0.011563580483198166,-0.010044881142675877
1761475473866628400,5.71762841796875,0.010915905237197876,0.009747462347149849,-0.003319057635962963
1761475473876605200,5.727605224609375,0.012271454557776451,-0.003278857097029686,-0.0013688247418031096
1761475473886582300,5.737582275390625,0.011662764474749565,-0.010143795050680637,0.00798287708312273
1761475473896560400,5.747560302734375,0.008960188366472721,-0.0033492720685899258,0.017361199483275414
1761475473906537200,5.757537109375,0.00563211040571332,0.004981995560228825,0.0270979143679142
1761475473916513800,5.767513671875,0.0034120995551347733,0.007034228183329105,0.028312847018241882
1761475473926492000,5.777491943359375,0.0031572608277201653,-0.000820348272100091,0.025142576545476913
1761475473936468700,5.78746875,0.0014544357545673847,-0.01961374282836914,0.01314583420753479
1761475473946445800,5.79744580078125,0.0031371416989713907,-0.027245420962572098,0.010438049212098122
1761475473956424000,5.807423828125,0.0027797454968094826,-0.012206018902361393,0.011398118920624256
1761475473966400800,5.81740087890625,0.005686710122972727,0.02215787209570408,0.0206732340157032
1761475473976379000,5.82737890625,0.005162067245692015,0.04606746509671211,0.023341987282037735
1761475473986356000,5.83735595703125,-0.00014090852346271276,0.047357410192489624,0.02264026179909706
1761475473996332800,5.847332763671875,-0.002134284470230341,0.028511283919215202,0.015001517720520496
1761475474006311000,5.857310791015625,-0.0014196689007803798,0.003979668021202087,0.004736877046525478
1761475474016287700,5.867287841796875,0.007818304002285004,-0.0004528975114226341,0.011372409760951996
1761475474026264800,5.877264892578125,0.007277922239154577,0.009719960391521454,0.015198619104921818
1761475474036243000,5.887242919921875,0.0004937859484925866,0.019290829077363014,0.01998724974691868
1761475474046219800,5.8972197265625,-0.011839447543025017,0.022139567881822586,0.022060023620724678
1761475474056196900,5.90719677734375,-0.021294469013810158,0.010272788815200329,0.017034105956554413
1761475474066175000,5.917175048828125,-0.024598436430096626,-0.004157763905823231,0.008263541385531425
1761475474076151800,5.92715185546875,-0.02624320425093174,-0.02499406971037388,-0.00855645164847374
1761475474086129000,5.93712890625,-0.021174466237425804,-0.0314350500702858,-0.02128060907125473
1761475474096107000,5.94710693359375,-0.01735842227935791,-0.02038506045937538,-0.01996047981083393
1761475474106083800,5.957083740234375,-0.009016425348818302,-0.003021607408300042,-0.02633526921272278
1761475474116062000,5.96706201171875,-0.004835795145481825,0.005596381612122059,-0.02796192839741707
1761475474126038800,5.977038818359375,-0.003442178713157773,0.006333830300718546,-0.025423236191272736
1761475474136016000,5.987015869140625,0.0011637582210823894,0.003628325182944536,-0.0180425513535738
1761475474145994000,5.996993896484375,0.0022603082470595837,0.006034894846379757,-0.009380513802170753
1761475474155970800,6.006970703125,-0.005728376097977161,-0.003998031839728355,0.005585652310401201
1761475474165948000,6.016947998046875,-0.004366409499198198,-0.01827402040362358,0.015596961602568626
1761475474175926000,6.026926025390625,0.0013039930490776896,-0.02169671654701233,0.020225800573825836
1761475474185902800,6.03690283203125,0.010052477940917015,-0.013743451796472073,0.02608528919517994
1761475474195880000,6.0468798828125,0.011209353804588318,-0.009450436569750309,0.027935385704040527
1761475474205858000,6.056858154296875,0.013460102491080761,-0.007306700572371483,0.022713469341397285
1761475474215835000,6.0668349609375,0.01435066293925047,-0.00882070790976286,0.01671629771590233
1761475474225812000,6.07681201171875,0.019274873659014702,-0.008501776494085789,0.01423232164233923
1761475474235790000,6.0867900390625,0.026113072410225868,-0.013697603717446327,0.007759774103760719
1761475474245767000,6.096766845703125,0.03970840200781822,-0.014326181262731552,0.011483058333396912
1761475474255744000,6.106743896484375,0.04546402767300606,-0.023926079273223877,0.019517814740538597
1761475474265721900,6.116721923828125,0.04028894752264023,-0.04417824000120163,0.027020517736673355
1761475474275699000,6.126698974609375,0.02863309159874916,-0.05698351562023163,0.03091113083064556
1761475474285676000,6.136676025390625,0.01468297652900219,-0.0550408810377121,0.03803732246160507
1761475474295654000,6.14665380859375,-0.003853157628327608,-0.052390504628419876,0.03430969640612602
1761475474305631000,6.156630859375,-0.014100315049290657,-0.04682793840765953,0.030575735494494438
1761475474315609000,6.166609130859375,-0.014245190657675266,-0.030433252453804016,0.02673093043267727
1761475474325586000,6.1765859375,-0.00676365103572607,-0.012457902543246746,0.017477648332715034
1761475474335563000,6.18656298828125,0.002246888354420662,0.0009644296951591969,0.015726353973150253
1761475474345541000,6.196541015625,0.014241037890315056,0.013390576466917992,0.0109187550842762
1761475474355518000,6.20651806640625,0.01317870244383812,0.018408771604299545,0.003144987626001239
1761475474365495000,6.2164951171875,0.0028321202844381332,0.017771415412425995,-0.002611409639939666
1761475474375473000,6.226472900390625,-0.005599181167781353,0.007435954175889492,-0.010088234208524227
1761475474385450000,6.236449951171875,-0.011840973980724812,-0.003482867032289505,-0.007212175987660885
1761475474395427000,6.246427001953125,-0.007389766629785299,-0.007122608833014965,0.0014361734502017498
1761475474405405000,6.256405029296875,-0.0008670937968418002,-0.007499326020479202,0.00451195752248168
1761475474415382000,6.266382080078125,0.0002618201542645693,-0.0030736851040273905,0.0072925640270113945
1761475474425359000,6.276359130859375,-0.0018180565675720572,0.007082847878336906,0.011008913628757
1761475474435336700,6.286336669921875,-0.008420831523835659,0.005259914323687553,0.0068482570350170135
1761475474445314000,6.29631396484375,-0.021227680146694183,-0.008262932300567627,-0.0021191847044974566
1761475474455291000,6.306290771484375,-0.029473094269633293,-0.021018940955400467,-0.00744310999289155
1761475474465268700,6.316268798828125,-0.024956243112683296,-0.014230852946639061,-0.0014823847450315952
1761475474475246000,6.32624609375,-0.01583092287182808,0.00794875156134367,0.007949733175337315
1761475474485224000,6.336223876953125,-0.0047300346195697784,0.02546379715204239,0.02034289948642254
1761475474495200800,6.34620068359375,-0.002639453625306487,0.03508872911334038,0.027239421382546425
1761475474505177900,6.356177734375,-0.0029524497222155333,0.025848258286714554,0.025496983900666237
1761475474515155700,6.36615576171875,0.0016676019877195358,0.011231232434511185,0.02201756276190281
1761475474525132800,6.3761328125,0.008295673877000809,-0.006837869994342327,0.012073388323187828
1761475474535110000,6.38610986328125,0.012281361036002636,-0.012517593801021576,0.0074064647778868675
1761475474545087700,6.396087646484375,0.008354549296200275,-0.005251091439276934,-0.005264560226351023
1761475474555064800,6.40606494140625,0.008900231681764126,0.01407546829432249,-0.00782838650047779
1761475474565042000,6.4160419921875,0.003711860626935959,0.020336028188467026,-0.006652333773672581
1761475474575019800,6.426019775390625,-0.0037439248990267515,0.014900249429047108,-0.011737373657524586
1761475474584996900,6.435996826171875,-0.0037612959276884794,0.004340697079896927,-0.014895180240273476
1761475474594973700,6.4459736328125,0.0022699651308357716,-0.003163025714457035,-0.016165241599082947
1761475474604951800,6.455951904296875,0.00373628968372941,-0.013212181627750397,-0.016198638826608658
1761475474614929000,6.465928955078125,0.007660723756998777,-0.012720296159386635,-0.009881884790956974
1761475474624907000,6.475906982421875,0.01582360453903675,-0.0031886911019682884,-0.005005417391657829
1761475474634883800,6.4858837890625,0.015614280477166176,0.0061249155551195145,0.005382774863392115
1761475474644861000,6.49586083984375,0.010949325747787952,0.002625594614073634,0.0042001474648714066
1761475474654838800,6.5058388671875,0.002392056630924344,-0.00032758479937911034,0.00837198831140995
1761475474664815900,6.51581591796875,-0.004879445303231478,0.001173022435978055,0.008551029488444328
1761475474674793000,6.52579296875,-0.0037361502181738615,-0.005507783032953739,0.009965966455638409
1761475474684770800,6.535770751953125,-0.0052178483456373215,-0.020283794030547142,0.002158430404961109
1761475474694748000,6.545747802734375,-0.00206546438857913,-0.02442714013159275,0.0027635006699711084
1761475474704725000,6.55572509765625,0.003473116783425212,-0.009750906378030777,0.001531716319732368
1761475474714702800,6.565702880859375,0.00320573546923697,0.005995565094053745,-0.0010374351404607296
1761475474724680000,6.575679931640625,0.0008141642319969833,0.006230154540389776,-0.004521289840340614
1761475474734656800,6.58565673828125,0.0010549139697104692,0.0083718691021204,-0.005364446435123682
1761475474744635000,6.595634765625,0.00033106683986261487,0.0210674237459898,-0.0032746640499681234
1761475474754612000,6.605612060546875,0.0043191504664719105,0.027101347222924232,0.001979752676561475
1761475474764588800,6.6155888671875,0.00744459917768836,0.013709054328501225,0.006745671853423119
1761475474774567000,6.62556689453125,0.010216416791081429,0.007522531785070896,0.0008020293898880482
1761475474784544000,6.6355439453125,0.009410927072167397,0.013131656683981419,0.008195963688194752
1761475474794520800,6.645520751953125,0.006007140967994928,0.01419452391564846,0.003997491206973791
1761475474804499000,6.6554990234375,0.004900806117802858,0.00459663663059473,0.007824617438018322
1761475474814476000,6.66547607421875,0.004378027748316526,-0.001349403290078044,0.011733339168131351
1761475474824454000,6.675453857421875,0.0033444599248468876,-0.0029775742441415787,0.004397857002913952
1761475474834431000,6.685430908203125,-0.0013078161282464862,-0.008442646823823452,0.004032471217215061
1761475474844407800,6.69540771484375,-0.007149523589760065,-0.007521665655076504,0.005049238447099924
1761475474854386000,6.705385986328125,-0.006190252956002951,-0.00017533591017127037,0.0024601134937256575
1761475474864363000,6.715363037109375,-0.002202435862272978,0.005615175701677799,-0.0038965854328125715
1761475474874339800,6.72533984375,0.007382014766335487,-0.0019505990203469992,-0.008066562935709953
1761475474884318000,6.73531787109375,0.015996839851140976,-0.0066457828506827354,-0.015306222252547741
1761475474894295000,6.745294921875,0.022487496957182884,-0.01136730145663023,-0.022170519456267357
1761475474904272000,6.75527197265625,0.030542712658643723,-0.00621802918612957,-0.02212788723409176
1761475474914249500,6.76524951171875,0.034834131598472595,0.013859276659786701,-0.0158231183886528
1761475474924226600,6.7752265625,0.03429890051484108,0.030192194506525993,-0.006009628530591726
1761475474934203600,6.78520361328125,0.02791583724319935,0.030675822868943214,0.001976925181224942
1761475474944181500,6.795181396484375,0.028023118153214455,0.023695725947618484,0.013953974470496178
1761475474954158600,6.80515869140625,0.03341761603951454,0.015343786217272282,0.029377406463027
1761475474964135700,6.8151357421875,0.036768462508916855,0.013470642268657684,0.04117344692349434
1761475474974113500,6.825113525390625,0.04474276676774025,0.010745162144303322,0.049642033874988556
1761475474984090600,6.835090576171875,0.045891907066106796,0.00691536720842123,0.04830500856041908
1761475474994068700,6.84506884765625,0.04368548095226288,0.004533702507615089,0.04816359654068947
1761475475004045600,6.855045654296875,0.041816771030426025,0.013554595410823822,0.044034507125616074
1761475475014022700,6.865022705078125,0.043547824025154114,0.016233203932642937,0.04150610417127609
1761475475024000800,6.875000732421875,0.04254775494337082,0.011914584785699844,0.02991718240082264
1761475475033977600,6.8849775390625,0.04554940387606621,0.007511048577725887,0.024717627093195915
1761475475043954700,6.89495458984375,0.05216272175312042,0.005606198683381081,0.02044697478413582
1761475475053932500,6.9049326171875,0.05370229482650757,-0.007552746683359146,0.01289850939065218
1761475475063909600,6.91490966796875,0.04132499545812607,-0.030217759311199188,0.00746904918923974
1761475475073886700,6.92488671875,0.0221497043967247,-0.012956748716533184,-0.0012951475800946355
1761475475083864600,6.934864501953125,0.010469949804246426,0.03731025382876396,-0.013962268829345703
1761475475093841700,6.944841552734375,0.00039441260742023587,0.06472031027078629,-0.03271704912185669
1761475475103818500,6.954818603515625,-0.00615027267485857,0.066311776638031,-0.0555172897875309
1761475475113796400,6.96479638671875,-0.0020958762615919113,0.05113043263554573,-0.08120401203632355
1761475475123773700,6.974773681640625,0.003027161816135049,0.029727399349212646,-0.08806836605072021
1761475475133750500,6.98475048828125,0.015019110403954983,0.031823039054870605,-0.07564258575439453
1761475475143728400,6.994728271484375,0.030983831733465195,0.043357498943805695,-0.04409082233905792
1761475475153705500,7.00470556640625,0.037424687296152115,0.040118031203746796,-0.008969055488705635
1761475475163683300,7.014683349609375,0.033282067626714706,0.02279406413435936,0.03613137826323509
1761475475173660400,7.024660400390625,0.013941657729446888,-0.006133455783128738,0.07108083367347717
1761475475183637500,7.034637451171875,-0.006017621606588364,-0.03087400645017624,0.10486488044261932
1761475475193615400,7.044615478515625,-0.021328933537006378,-0.03888559341430664,0.12645885348320007
1761475475203592400,7.054592529296875,-0.03396259620785713,-0.026000265032052994,0.12905839085578918
1761475475213569500,7.064569580078125,-0.03329920023679733,-0.012358487583696842,0.11253346502780914
1761475475223547400,7.07454736328125,-0.03523409739136696,-0.012861449271440506,0.07894619554281235
1761475475233524500,7.0845244140625,-0.03308998793363571,-0.012662511318922043,0.03093952313065529
1761475475243501300,7.094501220703125,-0.02954050526022911,0.008618876338005066,-0.016968315467238426
1761475475253479400,7.1044794921875,-0.019583744928240776,0.03908757120370865,-0.0514618419110775
1761475475263456500,7.11445654296875,-0.01842411421239376,0.05922461673617363,-0.0776444673538208
1761475475273433300,7.124433349609375,-0.02244974672794342,0.05579473450779915,-0.10067681968212128
1761475475283411500,7.134411376953125,-0.03107514977455139,0.038084130734205246,-0.10929056257009506
1761475475293388500,7.144388427734375,-0.040425509214401245,0.014351372607052326,-0.09855829179286957
1761475475303365400,7.154365478515625,-0.050252001732587814,-0.0004988907603546977,-0.08079545944929123
1761475475313343500,7.164343505859375,-0.0618484728038311,-0.01205328106880188,-0.052742790430784225
1761475475323320600,7.174320556640625,-0.06337224692106247,-0.015077212825417519,-0.0246123056858778
1761475475333298400,7.18429833984375,-0.06795687973499298,-0.007721295580267906,-0.0015788907185196877
1761475475343275500,7.194275634765625,-0.06720375269651413,0.0008007492870092392,0.017925798892974854
1761475475353252600,7.204252685546875,-0.057850997895002365,0.01440737210214138,0.026436995714902878
1761475475363230500,7.21423046875,-0.03907239809632301,0.01765337772667408,0.023475416004657745
1761475475373207600,7.22420751953125,-0.025592809543013573,0.004910684656351805,0.02309565059840679
1761475475383184400,7.234184326171875,-0.026672488078475,-0.01748477667570114,0.018075520172715187
1761475475393162500,7.24416259765625,-0.03296101093292236,-0.032434165477752686,0.008148053660988808
1761475475403139600,7.2541396484375,-0.04300113394856453,-0.03794991970062256,-0.003318373579531908
1761475475413116400,7.264116455078125,-0.03975900262594223,-0.04176995903253555,-0.01333478931337595
1761475475423094500,7.274094482421875,-0.03579946234822273,-0.030491691082715988,-0.019813446328043938
1761475475433071600,7.284071533203125,-0.03452593833208084,-0.021377023309469223,-0.024482501670718193
1761475475443048400,7.29404833984375,-0.03329957649111748,-0.004848530516028404,-0.0324261337518692
1761475475453026600,7.304026611328125,-0.02760094404220581,0.013029003515839577,-0.031042620539665222
1761475475463003600,7.314003662109375,-0.02206614427268505,0.03177983686327934,-0.02442118152976036
1761475475472980500,7.32398046875,-0.014075329527258873,0.026203177869319916,-0.014179729856550694
1761475475482958600,7.33395849609375,-0.011713375337421894,0.013430838473141193,-0.0033925247844308615
1761475475492935400,7.343935302734375,-0.013805022463202477,-0.0009278611978515983,0.013899113051593304
1761475475502913500,7.35391357421875,-0.017720557749271393,-0.00789213553071022,0.030210452154278755
1761475475512890600,7.363890625,-0.022471904754638672,-0.009306007996201515,0.04588795080780983
1761475475522867500,7.373867431640625,-0.02210487425327301,-0.00984108541160822,0.05638584494590759
1761475475532845600,7.383845458984375,-0.018032634630799294,-0.015005221590399742,0.061082061380147934
1761475475542822700,7.39382275390625,-0.006129552610218525,-0.015925072133541107,0.059953201562166214
1761475475552799500,7.403799560546875,0.0012255660258233547,-0.024822693318128586,0.0462147556245327
1761475475562777600,7.413777587890625,-0.0005744970985688269,-0.033642251044511795,0.03388470783829689
1761475475572754700,7.423754638671875,-0.007796190679073334,-0.023099862039089203,0.014663606882095337
1761475475582731500,7.4337314453125,-0.009016314521431923,-0.0008320661727339029,0.0050064148381352425
1761475475592709600,7.443709716796875,-0.007277270313352346,0.012823824770748615,-0.014632799662649632
1761475475602686700,7.453686767578125,-0.004953980445861816,0.010283399373292923,-0.026446491479873657
1761475475612663600,7.46366357421875,-0.0013552512973546982,0.0009602049831300974,-0.04115459695458412
1761475475622641700,7.4736416015625,0.008691809140145779,-0.019143396988511086,-0.048194896429777145
1761475475632618500,7.483618408203125,0.009111257269978523,-0.03950033336877823,-0.047180499881505966
1761475475642595600,7.493595703125,0.006208411417901516,-0.0501476526260376,-0.039054661989212036
1761475475652573700,7.50357373046875,0.0006226971745491028,-0.040328044444322586,-0.021845849230885506
1761475475662550500,7.513550537109375,-0.0064754001796245575,-0.0226447694003582,-0.0006213000160641968
1761475475672528400,7.5235283203125,-0.010285851545631886,-0.0015000703278928995,0.0239277184009552
1761475475682505700,7.533505615234375,-0.014880173839628696,0.02217908576130867,0.03720056265592575
1761475475692482600,7.543482666015625,-0.015674328431487083,0.03307301178574562,0.03786049410700798
1761475475702460400,7.55346044921875,-0.015474246814846992,0.016922727227211,0.03475537896156311
1761475475712437500,7.5634375,-0.01281641237437725,-0.015065565705299377,0.019252052530646324
1761475475722414600,7.57341455078125,-0.007750650867819786,-0.039549410343170166,0.0028719292022287846
1761475475732392400,7.583392333984375,-0.005398014094680548,-0.041397109627723694,-0.002040803898125887
1761475475742369500,7.59336962890625,0.0002944146981462836,-0.020672844722867012,-0.006901468615978956
1761475475752346600,7.6033466796875,0.003401524852961302,0.016145622357726097,-0.005139787681400776
1761475475762324500,7.613324462890625,0.008218186907470226,0.04698779806494713,-0.004220521543174982
1761475475772301300,7.62330126953125,0.014322684146463871,0.06136833503842354,-0.009303431026637554
1761475475782278700,7.633278564453125,0.011450706049799919,0.05018903315067291,-0.014619588851928711
1761475475792256500,7.643256591796875,0.0038047705311328173,0.03048643283545971,-0.023235447704792023
1761475475802233300,7.6532333984375,-0.0010803942568600178,0.01836642622947693,-0.010521822609007359
1761475475812210400,7.66321044921875,-0.0036974826361984015,0.010841664858162403,0.0041426075622439384
1761475475822188500,7.6731884765625,-0.004540158435702324,-0.010874052532017231,0.01578737050294876
1761475475832165400,7.683165283203125,-0.002318283310160041,-0.023134980350732803,0.020969348028302193
1761475475842143500,7.6931435546875,0.0038843038491904736,-0.023963751271367073,0.02734501101076603
1761475475852120600,7.70312060546875,0.009952849708497524,-0.01007643062621355,0.023943621665239334
1761475475862097400,7.713097412109375,0.00684658158570528,0.014984401874244213,0.015216694213449955
1761475475872075500,7.723075439453125,0.00037856242852285504,0.03254315257072449,0.011060298420488834
1761475475882052400,7.73305224609375,-0.0017909184098243713,0.035394761711359024,-0.006016629282385111
1761475475892029400,7.743029541015625,0.004466444719582796,0.02327977679669857,-0.01408467534929514
1761475475902007600,7.753007568359375,0.014836391434073448,0.011661694385111332,-0.016225552186369896
1761475475911985400,7.7629853515625,0.02875247411429882,0.00128495367243886,-0.02142484113574028
1761475475921962200,7.772962158203125,0.03641758859157562,0.002181191695854068,-0.022364214062690735
1761475475931940400,7.7829404296875,0.0328604020178318,0.0031284780707210302,-0.02257966250181198
1761475475941917400,7.79291748046875,0.018933294340968132,0.008236262947320938,-0.01856069639325142
1761475475951894300,7.802894287109375,0.005750913172960281,0.010412598960101604,-0.009420461021363735
1761475475961872400,7.812872314453125,0.003206658875569701,0.009737711399793625,0.0005453916965052485
1761475475971849500,7.822849365234375,0.002646596170961857,0.007682017982006073,0.015802906826138496
1761475475981826300,7.832826416015625,0.011431013233959675,0.016117781400680542,0.029610304161906242
1761475475991804400,7.842804443359375,0.022333728149533272,0.01748824305832386,0.03511505946516991
1761475476001781500,7.852781494140625,0.020198192447423935,0.020736802369356155,0.03985112905502319
1761475476011759400,7.86275927734375,0.012897668406367302,0.0140908844769001,0.03579380363225937
1761475476021736400,7.872736328125,0.006802691146731377,0.014490421861410141,0.031578533351421356
1761475476031713300,7.88271337890625,0.01289973221719265,0.013110637664794922,0.02431396208703518
1761475476041691400,7.89269140625,0.015900779515504837,-0.0035315610002726316,0.023883920162916183
1761475476051668500,7.90266845703125,0.012804854661226273,-0.011514652520418167,0.017084868624806404
1761475476061645300,7.912645263671875,0.00772117218002677,-0.01259654387831688,0.014372660778462887
1761475476071623400,7.92262353515625,0.005279319826513529,0.0009024871978908777,0.012912183068692684
1761475476081600500,7.9326005859375,0.001701482804492116,0.010743276216089725,0.009745803661644459
1761475476091577300,7.942577392578125,-0.005346839316189289,0.010373363271355629,-0.004951382987201214
1761475476101555500,7.952555419921875,-0.006290491670370102,0.007952825166285038,-0.016271580010652542
1761475476111532500,7.962532470703125,-0.008687603287398815,-0.005431157536804676,-0.02943318895995617
1761475476121509400,7.97250927734375,-0.009126595221459866,-0.0155339315533638,-0.03598065301775932
1761475476131487500,7.982487548828125,-0.009640319272875786,-0.005950280465185642,-0.03458169475197792
1761475476141464600,7.992464599609375,-0.009894152171909809,0.004560981877148151,-0.033766910433769226
1761475476151441400,8.00244140625,-0.006584375165402889,0.0022434985730797052,-0.028753245249390602
1761475476161419300,8.012419189453125,-0.002037190832197666,0.0014816417824476957,-0.02972627803683281
1761475476171396400,8.022396240234375,0.0017173334490507841,0.0009202475193887949,-0.025187453255057335
1761475476181373400,8.03237353515625,0.004549021366983652,-0.0029877121560275555,-0.021038690581917763
1761475476191351300,8.042351318359374,0.0006948945811018348,-0.0030859827529639006,-0.014891315251588821
1761475476201328400,8.052328369140625,-0.0002000049571506679,-0.00473227072507143,-0.005131760146468878
1761475476211306200,8.06230615234375,-0.004380368627607822,-0.012666625902056694,0.004209277685731649
1761475476221283300,8.072283447265624,-0.007543087005615234,-0.021915215998888016,0.010030324570834637
1761475476231260400,8.082260498046875,-0.00763683021068573,-0.021130116656422615,0.014665289781987667
1761475476241238300,8.09223828125,-0.00013044476509094238,-0.013645567931234837,0.01995459571480751
1761475476251215400,8.10221533203125,-0.00014402694068849087,-0.004466717131435871,0.020990829914808273
1761475476261192400,8.1121923828125,0.0038625355809926987,-0.004404058679938316,0.013891726732254028
1761475476271170300,8.12217041015625,-0.0028419725131243467,0.001502832630649209,0.011653873138129711
1761475476281147400,8.1321474609375,-0.00422657560557127,0.021086767315864563,0.00387562345713377
1761475476291124200,8.142124267578126,-0.0025083040818572044,0.028094610199332237,-0.0018927835626527667
1761475476301102300,8.152102294921875,-0.010356261394917965,0.014638612046837807,-0.009635385125875473
1761475476311079200,8.1620791015625,-0.017798466607928276,0.006096256896853447,-0.013016801327466965
1761475476321056300,8.17205615234375,-0.02164711244404316,0.011185668408870697,-0.013623742386698723
1761475476331034400,8.182034423828124,-0.020410073921084404,0.01571250893175602,-0.008376781828701496
1761475476341011200,8.19201123046875,-0.015760065987706184,0.01929628476500511,-0.0050390008836984634
1761475476350988300,8.20198828125,-0.011984768323600292,0.018174828961491585,0.000747515179682523
1761475476360966400,8.21196630859375,-0.011430400423705578,0.019193146377801895,0.008046887814998627
1761475476370943200,8.221943115234374,-0.013449342921376228,0.011740823276340961,0.012984653934836388
1761475476380921300,8.23192138671875,-0.013300061225891113,0.005375459790229797,0.02100704424083233
1761475476390898400,8.2418984375,-0.010163123719394207,-0.0034036508295685053,0.027113938704133034
1761475476400875300,8.251875244140624,-0.014613299630582333,-0.013397397473454475,0.027063192799687386
1761475476410853400,8.261853271484375,-0.015271898359060287,-0.026045016944408417,0.028384387493133545
1761475476420830200,8.271830322265625,-0.022961672395467758,-0.02504812180995941,0.024009432643651962
1761475476430807300,8.281807373046876,-0.021606124937534332,-0.007525054272264242,0.023058950901031494
1761475476440785400,8.291785400390625,-0.017411621287465096,0.014973216690123081,0.016747213900089264
1761475476450762200,8.30176220703125,-0.008057799190282822,0.034217216074466705,0.011941805481910706
1761475476460739300,8.3117392578125,-0.0022641359828412533,0.03056180849671364,0.0027927954215556383
1761475476470717400,8.321717529296874,0.00021713104797527194,0.01714773289859295,-0.0018858459079638124
1761475476480694300,8.3316943359375,-0.002984400372952223,-0.0017882650718092918,-0.006322554778307676
1761475476490672400,8.34167236328125,-0.005483776796609163,-0.010742345824837685,-0.012126115150749683
1761475476500649500,8.3516494140625,-0.01366414874792099,-0.011765679344534874,-0.0028126791585236788
1761475476510626300,8.361626220703124,-0.014643658883869648,0.00006008753553032875,-0.0011865529231727123
1761475476520604400,8.3716044921875,-0.01069645769894123,0.007374144159257412,0.005170312710106373
1761475476530581500,8.38158154296875,-0.009253823198378086,-0.005341916810721159,0.008501128293573856
1761475476540558300,8.391558349609374,-0.011241823434829712,-0.02373392879962921,0.009999738074839115
1761475476550536400,8.401536376953125,-0.01083462592214346,-0.01801479049026966,0.010023972950875759
1761475476560513300,8.41151318359375,-0.004528810270130634,0.006071034818887711,0.011494536884129047
1761475476570490400,8.421490478515626,0.003385039046406746,0.03539030998945236,0.016332168132066727
1761475476580468500,8.431468505859375,0.00820088479667902,0.04350845888257027,0.02021736279129982
1761475476590445300,8.4414453125,0.008090363815426826,0.02854335866868496,0.01804928295314312
1761475476600422400,8.45142236328125,0.0026162362191826105,0.011778225190937519,0.011059285141527653
1761475476610400500,8.461400390625,0.001787726767361164,0.0017282550688832998,0.010194823145866394
1761475476620377300,8.47137744140625,0.0023125060833990574,-0.002436088165268302,0.008881581015884876
1761475476630354400,8.4813544921875,0.0007087506237439811,-0.010671647265553474,0.006709772627800703
1761475476640332500,8.49133251953125,0.0017062508268281817,-0.010985605418682098,0.0017076297663152218
1761475476650309400,8.501309326171874,0.00821767933666706,-0.005052615888416767,0.0012098848819732666
1761475476660287500,8.51128759765625,0.0076688374392688274,-0.006771453656256199,0.0012142867781221867
1761475476670264600,8.5212646484375,0.0016426362562924623,-0.013456519693136215,-0.005493417382240295
1761475476680241400,8.531241455078124,-0.008748382329940796,-0.015627721324563026,-0.00807100534439087
1761475476690219500,8.541219482421875,-0.01045626774430275,-0.003617930458858609,-0.0056246258318424225
1761475476700196400,8.5511962890625,-0.007406518328934908,0.012314623221755028,-0.005249471869319677
1761475476710173400,8.56117333984375,-0.010673152282834053,0.016215620562434196,-0.006207410711795092
1761475476720151600,8.571151611328125,-0.013264992274343967,0.005711011588573456,-0.0074960230849683285
1761475476730128400,8.58112841796875,-0.009142152033746243,-0.011809391900897026,-0.008733861148357391
1761475476740105500,8.59110546875,-0.0037908824160695076,-0.024929193779826164,-0.008191692642867565
1761475476750083300,8.601083251953124,-0.004251875914633274,-0.02388070710003376,-0.002008897252380848
1761475476760060400,8.611060302734375,-0.004252056125551462,-0.015272300690412521,0.0027712618466466665
1761475476770037500,8.62103759765625,-0.0034174213651567698,-0.001402557361871004,0.00932396948337555
1761475476780015400,8.631015380859376,-0.00005691580008715391,0.013218422420322895,0.0029646463226526976
1761475476789992400,8.640992431640624,-0.001425247872248292,0.006823639385402203,0.0009038923308253288
1761475476799969500,8.650969482421875,-0.006164291873574257,0.003607110818848014,-0.0048049502074718475
1761475476809947100,8.660947021484375,-0.012103939428925514,0.008275631815195084,-0.005672075320035219
1761475476819924500,8.670924560546876,-0.013084851205348969,0.007323181256651878,0.00454813102260232
1761475476829902300,8.68090234375,-0.012655816040933132,0.004531389102339745,0.0063937013037502766
1761475476839879200,8.690879150390625,-0.01509118266403675,-0.00042103498708456755,0.011004061438143253
1761475476849856300,8.700856201171876,-0.007847916334867477,-0.000009842915460467339,0.019215118139982224
1761475476859834400,8.71083447265625,-0.0045730192214250565,0.008025528863072395,0.021135445684194565
1761475476869811200,8.720811279296875,0.00008671404793858528,0.01647760346531868,0.027470041066408157
1761475476879788300,8.730788330078125,-0.00673204381018877,0.021866509690880775,0.02531634271144867
1761475476889766400,8.740766357421874,-0.013361983001232147,0.020221475511789322,0.023071298375725746
1761475476899743200,8.7507431640625,-0.010552039369940758,0.021020911633968353,0.014064742252230644
1761475476909720300,8.76072021484375,-0.005547426175326109,0.01979745551943779,0.00991633627563715
1761475476919697400,8.770697509765625,-0.0049558524042367935,0.02695843204855919,0.0027029484044760466
1761475476929674800,8.7806748046875,-0.002525451360270381,0.014850104227662086,-0.004975211340934038
1761475476939651800,8.79065185546875,-0.00247752433642745,-0.0037718648090958595,-0.009481998160481453
1761475476949629400,8.80062939453125,0.00031373498495668173,-0.012697448953986168,-0.003244874533265829
1761475476959606500,8.8106064453125,-0.0023400539066642523,-0.02261475846171379,-0.0002515711821615696
1761475476969583600,8.82058349609375,-0.0007722511072643101,-0.019380347803235054,0.007656686007976532
1761475476979561500,8.8305615234375,0.008701851591467857,-0.0028085545636713505,0.009801428765058517
1761475476989538600,8.84053857421875,0.011910161934792995,0.00909311231225729,0.006032523233443499
1761475476999515600,8.850515625,0.016219284385442734,0.007493309676647186,-0.0005880558164790273
1761475477009493500,8.860493408203125,0.02294456586241722,-0.00040029932279139757,-0.008365551009774208
1761475477019470600,8.870470703125,0.02829480543732643,0.0015901103615760803,-0.007033081259578466
1761475477029448400,8.880448486328126,0.03338730335235596,0.004084426909685135,-0.002455906243994832
1761475477039425500,8.890425537109374,0.030866704881191254,0.004115590825676918,0.006301152519881725
1761475477049402600,8.900402587890625,0.025357156991958618,0.009449370205402374,0.01032944954931736
1761475477059380500,8.91038037109375,0.02301574870944023,0.017208177596330643,0.011645038612186909
1761475477069357600,8.920357666015626,0.02739904634654522,0.00021641096100211143,0.011278587393462658
1761475477079334400,8.93033447265625,0.02291114628314972,-0.01795315369963646,0.008225902915000916
1761475477089312500,8.9403125,0.024873631075024605,-0.01729615032672882,0.01309309620410204
1761475477099289600,8.95028955078125,0.017568303272128105,-0.0003148524556308985,0.014669501222670078
1761475477109266400,8.960266357421874,0.016676411032676697,0.013650231063365936,0.015594150871038437
1761475477119244500,8.97024462890625,0.02325407601892948,0.019927913323044777,0.012755355797708035
1761475477129221600,8.9802216796875,0.022358721122145653,0.008550622500479221,0.006032472476363182
1761475477139198500,8.990198486328126,0.025280268862843513,-0.017525333911180496,-0.00036727366386912763
1761475477149176600,9.000176513671875,0.024456020444631577,-0.041937198489904404,-0.015086831524968147
1761475477159153700,9.010153564453125,0.02026788890361786,-0.05204048380255699,-0.020094431936740875
1761475477169130500,9.020130615234375,0.013666445389389992,-0.032986629754304886,-0.01638704538345337
1761475477179108600,9.030108642578124,0.013749314472079277,0.0005127880722284317,-0.0033348340075463057
1761475477189085700,9.040085693359375,0.01646680384874344,0.02277148887515068,0.007850175723433495
1761475477199063600,9.0500634765625,0.01579555869102478,0.027543116360902786,0.010579878464341164
1761475477209040600,9.06004052734375,0.015318586491048336,0.022842369973659515,0.012510670349001884
1761475477219017500,9.070017578125,0.013413507491350174,-0.0017638783901929855,0.01092190109193325
1761475477228995600,9.07999560546875,0.007152148522436619,-0.02663780376315117,0.007178294938057661
1761475477238972700,9.08997265625,0.00804820004850626,-0.036315273493528366,0.014558893628418446
1761475477248949500,9.099949462890624,0.011462639085948467,-0.027884770184755325,0.01913047768175602
1761475477258927600,9.109927734375,0.012296740896999836,-0.02641097642481327,0.014873945154249668
1761475477268904700,9.11990478515625,0.009868204593658447,-0.024556618183851242,0.007275148294866085
1761475477278881500,9.129881591796876,0.005954842548817396,-0.013631952926516533,-0.004827324766665697
1761475477288859600,9.139859619140625,-0.0020812456496059895,0.00437953881919384,-0.018513308838009834
1761475477298836700,9.149836669921875,-0.006857856176793575,0.01621885411441326,-0.02800946868956089
1761475477308813600,9.1598134765625,-0.005898052826523781,0.014132799580693245,-0.033457498997449875
1761475477318791700,9.169791748046874,0.008409857749938965,0.008953939191997051,-0.026035936549305916
1761475477328768800,9.179768798828125,0.02539736218750477,0.006475334987044334,-0.016625922173261642
1761475477338745600,9.18974560546875,0.028809696435928345,-0.0031289372127503157,-0.009105999954044819
1761475477348723700,9.1997236328125,0.025514833629131317,-0.006355090066790581,-0.00031703640706837177
1761475477358700500,9.209700439453124,0.013858633115887642,-0.00006995280273258686,0.015610400587320328
1761475477368677600,9.219677734375,0.0017151515930891037,0.001967099029570818,0.024568207561969757
1761475477378655700,9.22965576171875,-0.005645430646836758,-0.009522884152829647,0.031225087121129036
1761475477388632600,9.239632568359376,-0.006000696215778589,-0.01661701127886772,0.042645785957574844
1761475477398610700,9.249610595703125,0.0006184618687257171,-0.014123187400400639,0.042673446238040924
1761475477408587800,9.259587890625,0.007040941156446934,-0.006045820191502571,0.04070510342717171
1761475477418564600,9.269564697265626,0.012868924997746944,-0.013229086063802242,0.03058815374970436
1761475477428542700,9.279542724609374,0.0043707783333957195,-0.027641581371426582,0.013593991287052631
1761475477438519800,9.289519775390625,-0.002658455166965723,-0.017126893624663353,-0.0012912658276036382
1761475477448496600,9.29949658203125,-0.002544205402955413,0.011275187134742737,-0.004957106895744801
1761475477458474800,9.309474853515624,0.0025183865800499916,0.030854027718305588,-0.01399920228868723
1761475477468451600,9.31945166015625,0.010958210565149784,0.026146089658141136,-0.015607751905918121
1761475477478428700,9.3294287109375,0.013775025494396687,0.006719847209751606,-0.01775231398642063
1761475477488406800,9.33940673828125,0.011087629944086075,-0.014776656404137611,-0.01241826731711626
1761475477498383600,9.349383544921874,0.006029154639691114,-0.03194563090801239,-0.011881054379045963
1761475477508360700,9.359360595703125,-0.006044286303222179,-0.027926919981837273,-0.0028984781820327044
1761475477518338600,9.369338623046875,-0.013196230866014957,-0.00006374949589371681,0.010198194533586502
1761475477528315600,9.379315673828126,-0.014193585142493248,0.01785346493124962,0.017811106517910957
1761475477538292700,9.389292724609374,-0.009236161597073078,0.008833568543195724,0.018688442185521126
1761475477548270600,9.3992705078125,-0.003651513485237956,-0.00587666779756546,0.011287517845630646
1761475477558247700,9.40924755859375,0.001968838507309556,-0.019152723252773285,0.0054541644640266895
1761475477568224800,9.419224853515624,0.005662110634148121,-0.02905781753361225,-0.0057076760567724705
1761475477578202600,9.42920263671875,0.006550146266818047,-0.033552661538124084,-0.017736149951815605
1761475477588179700,9.4391796875,0.008141651749610901,-0.021561777219176292,-0.020795589312911034
1761475477598156800,9.44915673828125,0.007942626252770424,0.0044176215305924416,-0.015600076876580715
1761475477608134400,9.459134521484375,0.00800600927323103,0.018733710050582886,-0.015534297563135624
1761475477618111500,9.469111572265625,0.008098015561699867,0.022426143288612366,-0.012976022437214851
1761475477628089600,9.479089599609376,0.009728935547173023,0.010070141404867172,-0.009636950679123402
1761475477638066400,9.48906640625,0.0064568230882287025,-0.00797155499458313,-0.008614028804004192
1761475477648043500,9.49904345703125,0.0021638073958456516,-0.022999506443738937,-0.00851176306605339
1761475477658021600,9.509021728515625,0.001783799845725298,-0.0267323087900877,-0.0036480771377682686
1761475477667998500,9.51899853515625,0.0037140590138733387,-0.012029262259602547,0.0072133587673306465
1761475477677975600,9.5289755859375,0.005046335980296135,0.0055975946597754955,0.012912703678011894
1761475477687953700,9.53895361328125,0.00899127684533596,0.012874148786067963,0.016344185918569565
1761475477697930500,9.548930419921875,0.01687765307724476,0.009571874514222145,0.015942061319947243
1761475477707907600,9.558907470703126,0.01809205487370491,-0.0024003651924431324,0.012664775364100933
1761475477717885700,9.5688857421875,0.015938861295580864,-0.01020677387714386,0.013646195642650127
1761475477727862500,9.578862548828125,0.012532945722341537,-0.005052225664258003,0.012801707722246647
1761475477737839600,9.588839599609376,0.015256756916642189,0.004409251734614372,0.01966811902821064
1761475477747817500,9.5988173828125,0.012526217848062515,0.007659106515347958,0.01924494281411171
1761475477757794600,9.608794677734375,0.013176820240914822,0.00353255239315331,0.019417935982346535
1761475477767771600,9.618771728515625,0.011284111067652702,0.004332832060754299,0.01661282777786255
1761475477777749500,9.62874951171875,0.009061540476977825,0.0075041973032057285,0.00981466006487608
1761475477787726600,9.6387265625,0.00891160499304533,0.012386037036776543,0.008461507968604565
1761475477797703400,9.648703369140625,0.01209252793341875,0.007276717107743025,0.004987935535609722
1761475477807681500,9.658681640625,0.009734565392136574,-0.006740298587828875,-0.004538191482424736
1761475477817658600,9.66865869140625,0.011297978460788727,-0.012091347016394138,-0.00418376550078392
1761475477827635500,9.678635498046875,0.010034042410552502,-0.008659064769744873,-0.009757761843502522
1761475477837613600,9.688613525390625,0.010467594489455223,0.002167668892070651,-0.01788005605340004
1761475477847590700,9.698590576171876,0.0028938311152160168,0.003439594293013215,-0.025786714628338814
1761475477857568500,9.708568603515625,0.0019671637564897537,-0.00873196218162775,-0.03906096890568733
1761475477867545600,9.718545654296875,0.002173026092350483,-0.016202129423618317,-0.04197979345917702
1761475477877522700,9.728522705078126,0.0009901875164359808,-0.012252353131771088,-0.03756671026349068
1761475477887500500,9.73850048828125,0.003344421973451972,-0.0001584063284099102,-0.02777027152478695
1761475477897477600,9.7484775390625,0.008355374448001385,0.009242248721420765,-0.016753748059272766
1761475477907454700,9.758454833984375,0.008404376916587353,0.0041196588426828384,-0.003275491064414382
1761475477917432600,9.7684326171875,0.003839795710518956,-0.012013583444058895,0.008015376515686512
1761475477927409700,9.77840966796875,0.0008469353197142482,-0.02627134881913662,0.00908543448895216
1761475477937386500,9.788386474609375,-0.006963593885302544,-0.02387671358883381,0.008103076368570328
1761475477947364600,9.798364501953126,-0.009159902110695839,-0.011705802753567696,0.01221073605120182
1761475477957341400,9.808341552734374,-0.012403341010212898,0.00859322864562273,0.013286874629557133
1761475477967318500,9.818318603515625,-0.016111260280013084,0.024122919887304306,0.013155047781765461
1761475477977296600,9.828296630859375,-0.010433324612677097,0.028255270794034004,0.009816375561058521
1761475477987273500,9.8382734375,-0.008503864519298077,0.021801099181175232,0.0028684542048722506
1761475477997250600,9.84825048828125,-0.010129052214324474,-0.0023145831655710936,-0.006570097524672747
1761475478007228700,9.858228759765625,-0.008735419251024723,-0.02835816890001297,-0.019246477633714676
1761475478017205500,9.86820556640625,-0.015192304737865925,-0.027152858674526215,-0.02301422692835331
1761475478027183600,9.87818359375,-0.017465846613049507,-0.0016008929815143347,-0.017995500937104225
1761475478037160700,9.88816064453125,-0.015505097806453705,0.025296993553638458,-0.010276020504534245
1761475478047137500,9.898137451171875,-0.016648126766085625,0.02664295583963394,-0.008276784792542458
1761475478057115600,9.90811572265625,-0.013152606785297394,0.022323278710246086,0.001451132702641189
1761475478067092500,9.918092529296874,-0.016218971461057663,0.010983537882566452,0.0021880294661968946
1761475478077069600,9.928069580078125,-0.014994054101407528,0.0009066283237189054,0.0038906275294721127
1761475478087047700,9.938047607421876,-0.016978373751044273,-0.0035195453092455864,0.007591622415930033
1761475478097024500,9.9480244140625,-0.02245870605111122,-0.015543906018137932,0.005613029468804598
1761475478107001600,9.958001708984375,-0.02443130873143673,-0.02383352816104889,0.007312925532460213
1761475478116979700,9.967979736328125,-0.019549520686268806,-0.010332935489714146,0.010159935802221298
1761475478126956500,9.97795654296875,-0.012276160530745983,0.009301751852035522,0.011199367232620716
1761475478136933600,9.98793359375,-0.00954701378941536,0.026122957468032837,0.0016486428212374449
1761475478146911700,9.997911865234375,-0.007999450899660587,0.03286661207675934,-0.004675299394875765
1761475478156888600,10.007888671875,-0.0025983040686696768,0.03381035849452019,-0.013245267793536186
1761475478166865700,10.01786572265625,0.0011809876887127757,0.017301157116889954,-0.01629032753407955
1761475478176843500,10.027843505859375,0.004721988923847675,-0.011881379410624504,-0.013861697167158127
1761475478186820600,10.037820556640625,0.009535119868814945,-0.031067322939634323,-0.00985044427216053
1761475478196797700,10.047797607421876,0.0071319956332445145,-0.035330623388290405,-0.0002465479774400592
1761475478206775600,10.057775634765624,-0.005066880024969578,-0.02122652158141136,0.0014775824965909123
1761475478216752600,10.067752685546875,-0.013717180117964745,-0.006495516747236252,0.006934083066880703
1761475478226729700,10.077729736328125,-0.021069636568427086,0.00886106863617897,0.0016655517974868417
1761475478236707300,10.087707275390626,-0.019719600677490234,0.017005471512675285,-0.0033157593570649624
1761475478246684700,10.0976845703125,-0.012225733138620853,0.008220767602324486,-0.009412799961864948
1761475478256662500,10.10766259765625,0.002654078882187605,-0.007863234728574753,-0.01684536226093769
1761475478266639400,10.117639404296876,0.014871064573526382,-0.012470503337681293,-0.01334410347044468
1761475478276616400,10.127616455078124,0.01945856586098671,-0.01013050228357315,-0.010532168671488762
1761475478286594600,10.137594482421875,0.0189733374863863,-0.0028677957598119974,0.000014748336980119348
1761475478296571400,10.1475712890625,0.00925792008638382,-0.007338858209550381,0.010167613625526428
1761475478306548500,10.157548583984376,-0.010271572507917881,-0.07653789967298508,0.01499619148671627
1761475478316526600,10.167526611328125,-0.02603325992822647,-0.08531538397073746,0.01662643626332283
1761475478326503400,10.17750341796875,-0.01983581855893135,-0.05353614687919617,0.03661985322833061
1761475478336480500,10.18748046875,-0.008278662338852882,-0.014900264330208302,0.04982895404100418
1761475478346458400,10.197458251953124,-0.013485142029821873,-0.008458610624074936,0.04237556457519531
1761475478356435500,10.207435546875,-0.012326477095484734,-0.0036344826221466064,0.03431271016597748
1761475478366412500,10.21741259765625,-0.009059310890734196,0.0033107749186456203,0.01873108744621277
1761475478376390400,10.227390380859376,0.0014101583510637283,-0.003947100602090359,-0.002596394857391715
1761475478386367500,10.237367431640624,0.002604852430522442,-0.010334160178899765,-0.01764431968331337
1761475478396344300,10.24734423828125,0.005765998736023903,-0.0017903584521263838,-0.027629263699054718
1761475478406322400,10.257322509765626,0.001894561923108995,0.0010837248992174864,-0.029133418574929237
1761475478416299500,10.267299560546874,0.0010716330725699663,-0.008688824251294136,-0.039613671600818634
1761475478426276400,10.2772763671875,-0.0038118052762001753,-0.01562822423875332,-0.04782552644610405
1761475478436254500,10.28725439453125,-0.005592648871243,-0.009621916338801384,-0.05563613027334213
1761475478446231600,10.2972314453125,0.0009478081483393908,-0.023748653009533882,-0.05591176822781563
1761475478456208400,10.30720849609375,0.0019120362121611834,-0.04131121188402176,-0.059298064559698105
1761475478466186500,10.3171865234375,0.006063371431082487,-0.04681570082902908,-0.056170716881752014
1761475478476163600,10.32716357421875,0.011875659227371216,-0.05123266950249672,-0.0411580353975296
1761475478486141400,10.337141357421874,0.018206525593996048,-0.045251742005348206,-0.027529044076800346
1761475478496118500,10.347118408203125,0.019815048202872276,-0.04127738997340202,-0.016992468386888504
1761475478506095600,10.357095703125,0.019703729078173637,-0.03824138641357422,0.002551938407123089
1761475478516073500,10.367073486328126,0.018560700118541718,-0.028966130688786507,0.011018394492566586
1761475478526050600,10.377050537109374,0.01420909445732832,-0.036116719245910645,0.005375954322516918
1761475478536027400,10.38702734375,0.02316058799624443,-0.05132610723376274,-0.00478786788880825
1761475478546005500,10.397005615234375,0.02712683379650116,-0.053392719477415085,-0.010599417611956596
1761475478555982600,10.406982666015624,0.030172385275363922,-0.02925511635839939,-0.008999117650091648
1761475478565959400,10.41695947265625,0.024222083389759064,-0.005861643701791763,-0.004944720771163702
1761475478575937500,10.4269375,0.022269558161497116,0.002320193452760577,-0.0028663042467087507
1761475478585914600,10.43691455078125,0.015483556315302849,0.007023868151009083,-0.004827189724892378
1761475478595891500,10.446891357421874,0.01670016534626484,0.008272813633084297,-0.005132523365318775
1761475478605869600,10.45686962890625,0.014778428710997105,0.00979294627904892,-0.007149068638682365
1761475478615846700,10.4668466796875,0.011746685951948166,0.009302391670644283,-0.007292346563190222
1761475478625823500,10.476823486328126,0.015765395015478134,0.005654393695294857,-0.005296041257679462
1761475478635801600,10.486801513671875,0.014924103394150734,-0.004214216023683548,-0.0044725919142365456
1761475478645778400,10.4967783203125,0.012217000126838684,-0.011365869082510471,-0.0017582979053258896
1761475478655755500,10.506755615234376,0.010344569571316242,-0.010302776470780373,0.002747235121205449
1761475478665733600,10.516733642578124,0.009926719591021538,-0.0050009554252028465,0.013441957533359528
1761475478675710500,10.52671044921875,-0.002325013279914856,0.003854626789689064,0.011765985749661922
1761475478685687600,10.5366875,-0.008198615163564682,0.007856825366616249,0.014408107846975327
1761475478695665700,10.546665771484374,-0.007901840843260288,0.007102170027792454,0.01572047919034958
1761475478705642500,10.556642578125,-0.003477531485259533,-0.007918857969343662,0.011065807193517685
1761475478715619600,10.56661962890625,0.0028196671046316624,-0.01862119324505329,0.006830576807260513
1761475478725597700,10.57659765625,0.006501753814518452,-0.024614371359348297,0.005688879638910294
1761475478735574500,10.586574462890624,0.00656766165047884,-0.014690141193568707,0.0038843629881739616
1761475478745552600,10.596552734375,-0.00430922070518136,0.007915036752820015,0.0035831592977046967
1761475478755529700,10.60652978515625,-0.008780389092862606,0.022596051916480064,-0.008321661502122879
1761475478765506600,10.616506591796876,-0.005158755928277969,0.034213557839393616,-0.008525392971932888
1761475478775484700,10.626484619140625,-0.009988668374717236,0.025087445974349976,-0.013348235748708248
1761475478785461500,10.63646142578125,-0.03187346085906029,-0.03973016515374184,-0.030447326600551605
1761475478795438600,10.6464384765625,-0.08255846053361893,-0.09431051462888718,-0.050394099205732346
1761475478805416700,10.656416748046874,-0.09534163028001785,-0.13372902572155,-0.053341154009103775
1761475478815393500,10.6663935546875,-0.088471420109272,-0.12913742661476135,-0.03921317309141159
1761475478825370600,10.67637060546875,-0.08842241764068604,-0.1238262876868248,-0.03290574252605438
1761475478835348500,10.686348388671876,-0.07032312452793121,-0.10545066744089127,-0.02829461358487606
1761475478845325600,10.69632568359375,-0.0576760396361351,-0.05212512984871864,-0.02721337042748928
1761475478855302700,10.706302734375,-0.04681863635778427,-0.01941268891096115,-0.028600212186574936
1761475478865280500,10.716280517578125,-0.043349068611860275,0.017037197947502136,-0.02813708782196045
1761475478875257600,10.726257568359374,-0.030902596190571785,0.04799092933535576,-0.015226216986775398
1761475478885234700,10.736234619140625,-0.0019343275343999267,0.08580648899078369,0.001632658182643354
1761475478895212500,10.746212646484375,0.022121954709291458,0.08727064728736877,0.009726094081997871
1761475478905189600,10.756189697265626,0.04638867825269699,0.07749179005622864,0.00702511565759778
1761475478915167000,10.7661669921875,0.06618984788656235,0.044005170464515686,-0.00402127206325531
1761475478925144800,10.776144775390625,0.07924626022577286,0.021685482934117317,-0.008464224636554718
1761475478935122000,10.786121826171875,0.0932612419128418,0.020324602723121643,-0.013229512609541416
1761475478945098800,10.7960986328125,0.09821365028619766,-0.003030254039913416,-0.029901431873440742
1761475478955076900,10.806076904296875,0.10745283961296082,-0.05707952752709389,-0.05258916690945625
1761475478965053700,10.8160537109375,0.11013304442167282,-0.10694988071918488,-0.07120945304632187
1761475478975030800,10.82603076171875,0.08615889400243759,-0.13875429332256317,-0.07223863899707794
1761475478985009000,10.8360087890625,0.04979582503437996,-0.11721491813659668,-0.06010287627577782
1761475478994985700,10.84598583984375,0.0276658833026886,-0.05191051959991455,-0.036577265709638596
1761475479004963800,10.8559638671875,0.011159611865878105,-0.014403624460101128,-0.034894149750471115
1761475479014941000,10.86594091796875,0.00731757003813982,0.0016414630226790905,-0.03957163542509079
1761475479024917800,10.875917724609375,0.009650498628616333,0.008551566861569881,-0.04341564327478409
1761475479034896000,10.885895751953125,0.0036739218048751354,0.0011546395253390074,-0.05538890138268471
1761475479044873000,10.895873046875,0.013782748952507973,-0.012545726262032986,-0.06356827169656754
1761475479054849800,10.905849853515624,0.03805605322122574,-0.04040177911520004,-0.06162375956773758
1761475479064828000,10.915827880859375,0.04818804934620857,-0.05298228561878204,-0.055159471929073334
1761475479074805000,10.925804931640625,0.03378672897815704,-0.028930295258760452,-0.04196635261178017
1761475479084781800,10.93578173828125,0.015518508851528168,0.006310516968369484,-0.025168197229504585
1761475479094760000,10.945760009765625,0.010976677760481834,0.025060579180717468,-0.010781933553516865
1761475479104736800,10.95573681640625,0.005730782635509968,0.05011612921953201,0.0017620878061279655
1761475479114713900,10.9657138671875,-0.005208862014114857,0.0413157194852829,0.010706361383199692
1761475479124692000,10.97569189453125,-0.013961606658995152,0.017160048708319664,0.02045086771249771
1761475479134668800,10.985668701171875,-0.020931657403707504,-0.00020844070240855217,0.035810161381959915
1761475479144646000,10.99564599609375,-0.0348605215549469,-0.006413605995476246,0.05869363993406296
1761475479154624000,11.0056240234375,-0.0569281205534935,0.005543833132833242,0.08042609691619873
1761475479164600800,11.015600830078125,-0.07507676631212234,0.02432044968008995,0.10373327881097794
1761475479174578000,11.025577880859375,-0.07657031714916229,0.04039685055613518,0.11458735167980194
1761475479184556000,11.03555615234375,-0.07188022881746292,0.03530887886881828,0.10513019561767578
1761475479194532900,11.045532958984374,-0.0553319938480854,-0.0019392988178879023,0.06801280379295349
1761475479204510000,11.055510009765625,-0.03685498237609863,-0.039648063480854034,0.03393739089369774
1761475479214487800,11.06548779296875,-0.02622007392346859,-0.035088133066892624,0.012798493728041649
1761475479224465000,11.07546484375,-0.024974513798952103,0.003039546078070998,-0.0016305133467540145
1761475479234442000,11.08544189453125,-0.024424076080322266,0.04309113323688507,-0.01949632726609707
1761475479244419800,11.095419921875,-0.02986012026667595,0.050823621451854706,-0.032533299177885056
1761475479254397000,11.10539697265625,-0.029157323762774467,0.04500959813594818,-0.04714304953813553
1761475479264375000,11.115375,-0.02586059831082821,0.060895886272192,-0.05817146599292755
1761475479274351900,11.125351806640625,-0.025357160717248917,0.08144891262054443,-0.059483110904693604
1761475479284329000,11.135328857421875,-0.03871184587478638,0.10716786235570908,-0.04597236216068268
1761475479294307000,11.14530712890625,-0.06005510687828064,0.14195607602596283,-0.027641162276268005
1761475479304284000,11.155283935546874,-0.07015886902809143,0.1408577859401703,-0.009731671772897243
1761475479314261000,11.165260986328125,-0.05664081871509552,0.13098880648612976,0.00928116962313652
1761475479324239000,11.175239013671876,-0.02715909108519554,0.10514096170663834,0.018342306837439537
1761475479334216000,11.1852158203125,0.0032772812992334366,0.09374050050973892,0.007724381983280182
1761475479344193000,11.195193115234375,0.02525341883301735,0.09681352227926254,-0.01900416612625122
1761475479354171000,11.2051708984375,0.03236495330929756,0.14083744585514069,-0.047019653022289276
1761475479364148000,11.21514794921875,0.03813788667321205,0.18871255218982697,-0.07319187372922897
1761475479374125000,11.225125,0.04243456944823265,0.1920110285282135,-0.07957529276609421
1761475479384103000,11.23510302734375,0.04814065992832184,0.138045534491539,-0.09382081031799316
1761475479394080000,11.245080078125,-0.017901524901390076,0.127803772687912,0.07791908085346222
1761475479404057000,11.25505712890625,-0.035598766058683395,-0.1465470939874649,0.14431115984916687
1761475479414035000,11.265034912109375,0.0178246907889843,-0.19437533617019653,0.15088751912117004
1761475479424012000,11.275011962890625,0.04586112126708031,-0.2933943271636963,0.1198880672454834
1761475479433988900,11.28498876953125,0.038604944944381714,-0.22513853013515472,0.08390471339225769
1761475479443967000,11.294967041015624,-0.052735354751348495,-0.10286002606153488,0.02554873190820217
1761475479453944000,11.304944091796875,-0.08105233311653137,-0.04875139519572258,-0.025554528459906578
1761475479463921000,11.3149208984375,-0.038409531116485596,0.0737161934375763,-0.04740390181541443
