time,seconds_elapsed,z,y,x
1761470348448035800,0.078035888671875,0.15506547402739523,0.024683181224530563,-0.07556392115876079
1761470348458012200,0.08801220703125,0.03691138828992843,0.08779742545378394,-0.04169367239670828
1761470348467989000,0.097989013671875,-0.04360241036117077,0.11664598272945731,0.02204009197037667
1761470348477965000,0.107965087890625,-0.03191138804554939,0.10400472875060512,0.06873655935674905
1761470348487942000,0.11794189453125,0.0027858313262462612,0.05953634920986369,0.028873865246865898
1761470348497918200,0.127918212890625,-0.004317278677225113,0.0018439473662525414,-0.06616159430220722
1761470348507894000,0.13789404296875,-0.02955167317688465,-0.04196850728271529,-0.09703912752168252
1761470348517871000,0.14787109375,-0.05510112497508526,0.007717698237858712,-0.0457396233192645
1761470348527847200,0.15784716796875,-0.09099427613317966,0.06889206957886926,0.04916747887609526
1761470348537824000,0.167823974609375,-0.18597265346646308,0.06622530262160581,0.06690088662849739
1761470348547800000,0.177800048828125,-0.20083646059930324,0.09365547643275932,0.05488927232269197
1761470348557777000,0.18777685546875,-0.05721943230330944,0.082497154488042,0.09178634895947761
1761470348567753000,0.1977529296875,0.15471768350303172,0.01874766739543993,0.1270719535453245
1761470348577729000,0.20772900390625,0.18884265594482422,-0.029205517487181348,0.09228080881237984
1761470348587706000,0.2177060546875,0.0017225860089063643,-0.0018439793322933837,-0.04638463409137912
1761470348597682000,0.227681884765625,-0.13265782738626003,0.0321529508496169,-0.11329511053212918
1761470348607659000,0.237658935546875,-0.10276362438201904,0.025060709300031885,-0.1013181291482877
1761470348617635000,0.247635009765625,0.0024584990680217743,-0.031072411904181352,-0.02826290287482552
1761470348627612200,0.257612060546875,0.03100654816031456,-0.1166106282882858,0.019600343268597498
1761470348637588000,0.267587890625,0.05969780511558056,-0.08259466004576534,-0.007561822689557448
1761470348647564000,0.27756396484375,0.08108136940598487,0.02595454373406246,0.03216355444202199
1761470348657541000,0.287541015625,0.062083238947391504,0.0487770091206301,0.04263281641034409
1761470348667517000,0.297516845703125,0.11580781487226485,0.021228108867211267,0.08840616846927442
1761470348677494000,0.307493896484375,0.2058621798068285,-0.004099245162506122,0.11422571504628284
1761470348687470000,0.317469970703125,0.18724223501086235,-0.04209683723696507,0.06453162761335261
1761470348697447200,0.327447265625,0.09455576800704002,-0.07192613547856454,0.014058975289668887
1761470348707423000,0.337423095703125,-0.02307750872671604,-0.02134939259274397,-0.025200291300658133
1761470348717398800,0.347398681640625,-0.09383914417028427,-0.009387553979107179,-0.07685371437412686
1761470348727376000,0.3573759765625,-0.13329612528979778,-0.05063174274237826,-0.11831840945370495
1761470348737352000,0.36735205078125,-0.08594692961573601,-0.07497991072572767,-0.11785994336279108
1761470348747329000,0.3773291015625,0.01705868682861328,-0.11058184211859479,-0.09472070364463142
1761470348757304800,0.387304931640625,0.10805763913691044,-0.1450817396868486,-0.09827157365977764
1761470348767282000,0.397281982421875,0.06884323460161686,-0.15786902367342262,-0.09882994732805526
1761470348777258000,0.407258056640625,-0.04786942015588283,-0.10259661551835014,-0.11581952357636764
1761470348787233800,0.41723388671875,-0.11172142234146594,0.0036050593042396936,-0.09633536316649988
1761470348797211000,0.4272109375,-0.08142682184278964,0.06417366275484673,-0.038477888687979425
1761470348807187000,0.43718701171875,0.007970540487766265,0.04810151644528377,-0.00920585443638265
1761470348817164000,0.4471640625,0.12082359720766543,0.03750571462099906,0.033710199362132695
1761470348827139800,0.457139892578125,0.16299860511422157,0.04915330878684763,0.07216865269728004
1761470348837117000,0.467116943359375,0.11297755988240242,0.05621444737869315,0.10255231058574281
1761470348847093000,0.477093017578125,-0.027234043884277342,0.09129330474552698,0.07807034188858233
1761470348857069000,0.487069091796875,-0.16094985589087007,0.10950586518384516,0.008950107843335718
1761470348867046000,0.4970458984375,-0.16849311087727545,0.09117672916115262,-0.10729084688234142
1761470348877022000,0.50702197265625,-0.10497311712503432,0.038239465405780354,-0.12251619907026179
1761470348886998800,0.516998779296875,-0.03295008344352245,-0.034964332175650634,-0.10910892002182081
1761470348896975000,0.52697509765625,0.01839724195599556,-0.08546852584849111,-0.15119977504257112
1761470348906951000,0.536950927734375,-0.007480711144208908,-0.10250205083638429,-0.1606859442576766
1761470348916928000,0.546927978515625,-0.08752280063033104,-0.08618283899715169,-0.17177832482671365
1761470348926904000,0.556904052734375,-0.10875438922941684,-0.05739658353507984,-0.1281870843135286
1761470348936881000,0.566880859375,-0.0746142192184925,-0.046524394188518635,-0.1276149926471524
1761470348946857000,0.57685693359375,0.012652560824155806,-0.04385507908114232,-0.11687503311182372
1761470348956833800,0.586833740234375,0.10948328802585601,-0.07795253332834691,-0.08466959402314386
1761470348966810000,0.59681005859375,0.16574761156141757,-0.09540135198570787,-0.08468560444302857
1761470348976786000,0.606785888671875,0.11562953569591045,-0.04643997644123155,-0.06302558869826606
1761470348986763000,0.616762939453125,0.03709375911951065,0.04433481172237079,-0.028242079282505436
1761470348996738800,0.62673876953125,-0.028568507358431815,0.10534148464654572,0.00984370481534861
1761470349006716000,0.6367158203125,-0.010724807631969452,0.09144943602215498,0.05077690053384285
1761470349016692000,0.64669189453125,0.05591185683608055,0.0823624769913964,0.07412649506705347
1761470349026669000,0.6566689453125,0.1167073940604925,0.025128440773999318,0.06756297183299903
1761470349036644900,0.666644775390625,0.177039405426383,-0.004678659335523844,0.01297380583488848
1761470349046621000,0.676620849609375,0.15744447811841963,-0.010166703391750343,0.0029936653906479475
1761470349056598000,0.686597900390625,0.05449380673170089,-0.006269791851332411,-0.00752732219833415
1761470349066573800,0.69657373046875,-0.02121756007373333,0.025499621307104824,-0.013284360488248057
1761470349076551000,0.706551025390625,-0.0156722009062767,0.013352475554705596,-0.005477230401267298
1761470349086527000,0.71652685546875,0.03626841421127319,-0.06398548323898576,-0.0008337702432880177
1761470349096504000,0.726504150390625,0.09898235227763652,-0.058871245497791096,-0.001025274227396585
1761470349106479900,0.73647998046875,0.1676718576222658,-0.07559226590383332,-0.03227588767611887
1761470349116456000,0.7464560546875,0.1630231550335884,-0.07956860848916694,-0.01813060407617595
1761470349126432800,0.756432861328125,0.025337854874134064,-0.04232377786063589,0.009632719812635332
1761470349136409000,0.7664091796875,-0.14854980852305888,0.0075707275152206415,-0.04230896388399415
1761470349146386000,0.776385986328125,-0.3266103736907244,0.07989831536756828,-0.11032735590087249
1761470349156362000,0.786362060546875,-0.37208150053322314,0.1048794657585211,-0.1749165497872047
1761470349166338800,0.7963388671875,-0.28706571428775784,0.07262002232712693,-0.19078578936923293
1761470349176315000,0.80631494140625,-0.11152911463975906,0.003561685953394044,-0.13391505177258514
1761470349186291000,0.816291015625,0.037352702316641805,-0.07488850611522793,-0.05660040992239956
1761470349196267800,0.826267822265625,0.051993222087621686,-0.10008455963218583,-0.02848113960223272
1761470349206244000,0.836244140625,-0.05801145946383476,-0.016685122542176394,-0.029335911534354088
1761470349216221000,0.846220947265625,-0.11712708077728748,0.07409640588946641,-0.055807583610853174
1761470349226197000,0.856197021484375,-0.06087269411385059,0.08951976486751809,-0.036750334243010725
1761470349236173800,0.866173828125,0.04954173728227615,0.0645319883729564,0.011705964156426489
1761470349246150100,0.876150146484375,0.1780734246492386,0.03753257522846106,0.07850401146495714
1761470349256126000,0.8861259765625,0.2524526660680771,0.04385672304895706,0.10443947603921405
1761470349266103000,0.89610302734375,0.22313830877840518,0.046170968507812354,0.08907405779347755
1761470349276078800,0.906078857421875,0.10374912828803062,0.052440280868532134,0.030840566776529885
1761470349286056000,0.916055908203125,-0.0014168810606002807,0.07155361237174365,-0.01789008701830171
1761470349296032000,0.926031982421875,-0.04493161313831806,0.07459479299881495,-0.07622965049191843
1761470349306009000,0.936009033203125,0.022120646393299102,0.035184902424039315,-0.08867290224721655
1761470349315985000,0.94598486328125,0.14064005831182003,-0.016676213149935937,-0.043406358066108076
1761470349325961700,0.955961669921875,0.25900983262658117,-0.05978592179045081,0.020733991507603786
1761470349335938000,0.96593798828125,0.23372283115684986,-0.09060549601130187,0.030028862234577534
1761470349345913900,0.975913818359375,0.04398410315513611,-0.05564053821456618,-0.029745328018884173
1761470349355891000,0.985890869140625,-0.12525018147826195,0.020288553861621764,-0.048713419532240364
1761470349365867000,0.995866943359375,-0.1844996583044529,0.03108166835629381,-0.08005255608120933
1761470349375844000,1.005843994140625,-0.14618892461061478,0.01845359808600042,-0.06347767528074327
1761470349385820000,1.01581982421875,-0.0861824919372797,0.0011787865719641558,-0.014617271326133049
1761470349395796000,1.0257958984375,-0.026927754414081573,-0.002134294915222563,0.021299530135607345
1761470349405772800,1.035772705078125,0.01241933659017086,0.007372117936890572,0.04535780722771305
1761470349415748900,1.045748779296875,-0.017666589593887328,0.01454888454832835,0.028807960403803734
1761470349425726000,1.055725830078125,-0.12211363701820373,0.04458551224754192,0.0053084405724657694
1761470349435701800,1.06570166015625,-0.1445540168851614,0.08039079332593828,0.0033238106604665516
1761470349445678800,1.075678955078125,-0.08543898009359836,0.050643716307962314,0.010268661362305283
1761470349455655000,1.085655029296875,0.017217092260718346,0.011439479256945197,0.05821316974812653
1761470349465632000,1.095632080078125,0.13183657413125038,-0.009109332976059523,0.06203974229895975
1761470349475607800,1.10560791015625,0.1782107872933149,-0.04144736035228706,0.0558246078108903
1761470349485584100,1.115584228515625,0.1723556315243244,-0.05044316136771813,0.05477834559439215
1761470349495561000,1.12556103515625,0.11203764868378639,-0.01582332721422426,0.042649740145681424
1761470349505537000,1.135537109375,0.023749124377965926,0.031090965907601638,-0.020757646377827038
1761470349515513900,1.145513916015625,-0.026674071913957594,0.030686079467716624,-0.0736449266617652
1761470349525490000,1.155489990234375,-0.022633272090554237,-0.0020842075541557276,-0.11238125622337683
1761470349535467000,1.165467041015625,-0.05256254640817642,-0.034861148079100526,-0.13245298899654298
1761470349545443000,1.175443115234375,-0.04882335987985134,-0.022916573410807176,-0.1430369359862525
1761470349555419000,1.1854189453125,-0.02264145539700985,-0.044016923145926555,-0.14376440087743103
1761470349565395700,1.195395751953125,-0.04838438394069671,-0.07735401031277142,-0.12417494432902894
1761470349575372000,1.2053720703125,-0.05781447558701038,-0.06446523414652329,-0.09945908467760309
1761470349585348900,1.215348876953125,-0.0844523071438074,-0.03569798477902077,-0.10891707811099477
1761470349595325000,1.225324951171875,-0.11512275521755218,-0.018618596514029195,-0.12036137739024125
1761470349605301800,1.2353017578125,-0.11406535511910915,-0.006177801577298669,-0.09057438848698511
1761470349615278000,1.245278076171875,-0.07231178749501704,-0.004978411750367377,-0.08651871988801285
1761470349625254000,1.25525390625,-0.01575461849272251,-0.01994555367680732,0.0032412469435483217
1761470349635231000,1.26523095703125,0.03974807302057743,-0.02364909806959331,0.08134351834035478
1761470349645207000,1.27520703125,0.031058570608496663,0.023832950753497423,0.08575429312046617
1761470349655184000,1.285183837890625,0.016086042404174803,0.02921476252285065,0.02566251568465959
1761470349665160000,1.295159912109375,-0.027167408388853072,0.012098564220184925,-0.0214074018237181
1761470349675136800,1.30513671875,-0.09076806616187096,0.022467313539655878,-0.060787997805350456
1761470349685112800,1.31511279296875,-0.08553893333673476,0.03713497932917671,-0.06623556828729342
1761470349695089000,1.3250888671875,-0.01402618726491928,0.021710869149165226,-0.03763661555824801
1761470349705066000,1.33506591796875,0.06616320173740387,0.023203148966957812,0.06059792772650253
1761470349715041800,1.345041748046875,0.12629998279213905,0.04241815987951122,0.09959374390793964
1761470349725019000,1.355018798828125,0.13585866925418377,0.009577304397546685,0.066494050260121
1761470349734995000,1.364994873046875,0.11355214489996432,0.0003596681918250397,0.012130770006333478
1761470349744972000,1.374971923828125,0.06072773268520832,0.0026337049378780644,-0.07145387832431588
1761470349754947800,1.38494775390625,0.0050648821741342545,-0.013382331836852245,-0.1737281254539266
1761470349764924000,1.394923828125,-0.042968788632750506,-0.011383787563932128,-0.21048983960747716
1761470349774901000,1.40490087890625,-0.023225977286696432,-0.016632648002845234,-0.14051723564974963
1761470349784876800,1.414876708984375,0.03391980525851249,-0.02093759692145977,-0.05847567944210022
1761470349794854000,1.42485400390625,0.04228606706559658,-0.004886324436566792,-0.03720288204979151
1761470349804830000,1.434829833984375,0.049609541821479794,-0.01655699351732619,-0.09169091662783176
1761470349814807000,1.44480712890625,0.024014497315883634,-0.029879726954316718,-0.1317989455346018
1761470349824782800,1.454782958984375,0.006805588361620903,-0.03172885738576296,-0.1297920170258265
1761470349834759000,1.464759033203125,-0.0015735329270362853,-0.016966556132328694,-0.07098809201004914
1761470349844735700,1.47473583984375,-0.009052490505576133,0.010937468568538314,-0.013836034987680613
1761470349854712000,1.484712158203125,-0.006198270118236542,0.05158380103651434,0.03383996322164312
1761470349864689000,1.49468896484375,0.03286298968195915,0.05733548273129854,0.05216437283686828
1761470349874664700,1.504664794921875,0.049016836625337595,0.04345782795844134,0.029860081538930532
1761470349884641800,1.514641845703125,-0.0707014296889305,0.043652268251730124,-0.0047749821497360245
1761470349894617900,1.524617919921875,-0.13550327994525432,0.06287795125534758,-0.038102968128095376
1761470349904594000,1.534593994140625,-0.1575157897889614,0.05322757248843554,-0.029712325365003196
1761470349914570800,1.54457080078125,-0.07463350844085216,0.047182022413611406,0.05090625796797685
1761470349924547000,1.554547119140625,-0.0014776713371276854,0.00946480220009107,0.052862716664839535
1761470349934524000,1.56452392578125,0.08110825741291046,-0.005075718661979772,0.012593620011419988
1761470349944500000,1.5745,0.12224690800905227,-0.014366410970757715,0.010866339561087079
1761470349954476800,1.584476806640625,0.14169512032270432,-0.03937728064653929,-0.023019531461782754
1761470349964452900,1.594452880859375,0.15351473745405672,-0.06856073699896223,-0.034548431151406836
1761470349974429000,1.604428955078125,0.09605682021975517,-0.07592588177237193,-0.0182898543250747
1761470349984406000,1.614406005859375,0.03442424764931202,-0.032801523551996795,0.015008677229937165
1761470349994381800,1.6243818359375,0.04492284530997276,0.012184957012138328,-0.010865695673692971
1761470350004359000,1.63435888671875,0.08370002747178078,-0.010994281356269493,-0.04206172482438851
1761470350014335000,1.6443349609375,0.07503507497906685,-0.006698168764659203,-0.05373614763165824
1761470350024312000,1.65431201171875,0.024608371555805204,0.017402321767667307,-0.016272404422285034
1761470350034287900,1.664287841796875,-0.0880646524220705,0.057438262685760855,-0.022388768410729242
1761470350044264000,1.674263916015625,-0.19998481220602987,0.08829115465432405,-0.04641631700443104
1761470350054241000,1.684240966796875,-0.2474111647695303,0.05713836185715627,-0.058111928730201906
1761470350064216800,1.694216796875,-0.20236615438461303,0.01746230376001913,-0.05852531357037369
1761470350074194000,1.70419384765625,-0.12800444862246513,0.0018366865084040909,-0.03400754747404717
1761470350084170000,1.714169921875,-0.04811433482766151,-0.04455788902167696,-0.03629913357652258
1761470350094147000,1.72414697265625,0.001093055933713913,-0.06105473614986986,-0.016344455878343433
1761470350104123000,1.734122802734375,-0.010158990442752838,-0.04445232802166137,0.03713219143375754
1761470350114100000,1.744099853515625,-0.09548749589920043,-0.010362111799418925,0.05865541079002432
1761470350124075800,1.75407568359375,-0.13652093255519865,0.060723659298289566,0.06021817572787404
1761470350134051800,1.7640517578125,-0.10497779330015182,0.09754055597148835,0.012712319054221734
1761470350144029000,1.77402880859375,-0.014924012887477875,0.11166485158232971,0.0060204384664539244
1761470350154004700,1.784004638671875,0.11358955430090427,0.07206034261775203,0.012519203068339264
1761470350163981800,1.79398193359375,0.2419599136263132,0.0006512121840380132,-0.01064618030465208
1761470350173958000,1.8039580078125,0.31003625550866126,-0.04075318580935709,-0.001618299083947204
1761470350183935000,1.81393505859375,0.2561719788521528,-0.0683908329253085,0.032197959035122764
1761470350193910800,1.823910888671875,0.15249299319088458,-0.04080958303855732,0.03743242105592508
1761470350203887000,1.83388720703125,0.09760872583687305,-0.007153077491885051,-0.004180486855306662
1761470350213864000,1.843864013671875,0.1482230607867241,0.00398331118223723,0.01938156768507324
1761470350223840000,1.853840087890625,0.16936229492723942,-0.059367198621458374,0.00018055333183147012
1761470350233816800,1.86381689453125,0.10745616611242294,-0.07915935183484107,-0.0879374275795184
1761470350243793000,1.87379296875,0.017705168038606642,-0.07247465447310823,-0.11218212605523877
1761470350253770000,1.88377001953125,-0.08313304123878479,-0.06148293496668338,-0.07081514202936086
1761470350263745800,1.893745849609375,-0.16856383802592753,0.0016978397267172112,-0.020996450969227587
1761470350273721900,1.903721923828125,-0.21509236496686934,0.04232473684186116,-0.006988356483425013
1761470350283698700,1.91369873046875,-0.21089666684269903,0.08396802162504755,0.0047965500941500065
1761470350293675000,1.923675048828125,-0.14968962620794773,0.06517094386362005,0.002634800916421227
1761470350303651800,1.93365185546875,-0.03655716802477836,0.030214817827311342,-0.026788464674400166
1761470350313628000,1.9436279296875,0.055773909670114516,-0.0017835909145651385,-0.019134990779170764
1761470350323604700,1.953604736328125,0.0553255813807249,-0.008733652081061154,-0.007252080886950716
1761470350333581000,1.9635810546875,-0.020989012014865874,0.005403594342898577,0.020936373078753238
1761470350343556900,1.973556884765625,-0.0651291825145483,0.0365134613137925,0.013502058359538204
1761470350353534000,1.983533935546875,-0.028613515543937682,0.04360238296170719,-0.026452519851457326
1761470350363510000,1.993510009765625,0.043217210435867306,0.022943196556251495,0.004307492502150126
1761470350373487000,2.003487060546875,0.1276128189563751,-0.01762459991595242,0.05515995162338949
1761470350383463000,2.013462890625,0.1305973877251148,-0.034520584163255985,0.02110408976189792
1761470350393440000,2.02343994140625,0.012971125254034994,-0.04154421745603904,-0.013009036978473887
1761470350403415800,2.033415771484375,-0.12904372854232787,-0.004992141164909117,-0.0710144502940122
1761470350413392000,2.043391845703125,-0.19937983205020426,0.011395030477154068,-0.12307375988778657
1761470350423369000,2.053368896484375,-0.17604747177958488,0.01717295172489248,-0.11620918048107996
1761470350433344800,2.0633447265625,-0.1085778636187315,0.01916826286111027,-0.05722872528804
1761470350443321900,2.07332177734375,-0.0071522098422050475,0.008703188444138504,4.5209114905446767e-7
1761470350453298000,2.0832978515625,0.07107435465455055,-0.0164217817311408,0.04227553197185043
1761470350463275000,2.09327490234375,0.04530278453826904,-0.009527076614229009,0.058391179496422405
1761470350473250800,2.103250732421875,0.03121522247493267,0.004202940715709701,-0.0282115517135011
1761470350483228000,2.113227783203125,0.020278817918896675,0.014567335803760215,-0.07349160383015405
1761470350493204000,2.123203857421875,0.09194938490092754,-0.010907087130006403,-0.08709017223357222
1761470350503179800,2.1331796875,0.16706453937888144,-0.0323840105259791,-0.07225372346511576
1761470350513156900,2.143156982421875,0.17125556132793426,-0.027019853144325316,-0.05716546449321322
1761470350523133000,2.1531328125,0.14806757796406744,-0.012234737270884215,-0.023185923837521112
1761470350533110000,2.163110107421875,0.036300562915205954,0.02186329236505553,0.010550848437706008
1761470350543085800,2.1730859375,-0.027575404667854308,0.062258632046915584,-0.05680889244077261
1761470350553063000,2.18306298828125,-0.021120529440045357,0.03763080687196925,-0.07352771175657398
1761470350563038700,2.193038818359375,-0.0070376435518264766,-0.01731118201864883,-0.06662408354768995
1761470350573015000,2.20301513671875,0.06315583661496639,-0.06396731282805558,-0.07839624024154618
1761470350582992000,2.212991943359375,0.08516133219599724,-0.09100384767912327,-0.047595192624651825
1761470350592968000,2.222968017578125,0.014689035087823868,-0.051786082142964006,0.023568584745866244
1761470350602944800,2.23294482421875,-0.0993318963676691,0.03311407836619765,0.04894152463311329
1761470350612921000,2.242921142578125,-0.18806816444098948,0.07588131197828334,0.004957330146431922
1761470350622898000,2.25289794921875,-0.1888221976786852,0.06655112334275617,-0.024900732965348286
1761470350632874200,2.262874267578125,-0.09156243140995501,0.05798700544259045,-0.02658665849198587
1761470350642850000,2.27285009765625,0.028147651597857475,0.013877782637020572,-0.02983457263833843
1761470350652827100,2.2828271484375,0.12136603352129459,0.0028083719516173,-0.04885931710922159
1761470350662803200,2.29280322265625,0.07347206344604491,-0.019229363664891568,-0.013297576162847689
1761470350672780300,2.3027802734375,0.011360182926058768,-0.00863401849833317,0.010558291958644985
1761470350682756000,2.312756103515625,-0.03877835120558738,0.02670421132389456,0.0009579217793419957
1761470350692733200,2.322733154296875,-0.01364800160229206,0.02751690681311302,-0.01795420632965397
1761470350702709200,2.332709228515625,0.07000175698697567,0.0025707272708415984,0.007231535855843685
1761470350712685300,2.342685302734375,0.12851882788538932,-0.01757573297265917,-0.020142889180080965
1761470350722662100,2.352662109375,0.12344459336102008,-0.05099848456238396,-0.09926779075604864
1761470350732638500,2.362638427734375,0.08155600118041038,-0.0721090953966137,-0.1300693452630192
1761470350742615300,2.372615234375,0.013920973324775696,-0.054172296859486956,-0.09712381013045086
1761470350752591400,2.38259130859375,-0.10295534756183623,-0.028495853114174678,-0.060640063534909854
1761470350762568200,2.392568115234375,-0.15219722511470318,0.02275017646849155,-0.04744005229528993
1761470350772544500,2.40254443359375,-0.08278057453930378,0.03186818822463974,-0.04541599455520045
1761470350782520300,2.412520263671875,0.00025602058768272397,0.0034001090333797036,-0.05607460051658563
1761470350792497400,2.422497314453125,0.026138065341114996,-0.017041123772459102,-0.059509200908034104
1761470350802473200,2.43247314453125,0.04933072488009929,-0.006440070384321734,-0.08201410194514319
1761470350812450000,2.442449951171875,0.07805413053929805,0.0024189890415407716,-0.05339422059250064
1761470350822426400,2.45242626953125,0.0530558828830719,0.009544594004610553,0.006874534545140341
1761470350832403200,2.4624033203125,0.006667056673765182,0.028921969571756197,0.044934727544011545
1761470350842379300,2.472379150390625,0.01699731203019619,0.0636174353778828,0.011698945327172987
1761470350852356000,2.482356201171875,0.03526829725801944,0.05428869434734806,-0.02502618597592227
1761470350862332400,2.49233251953125,0.062224108722805975,0.019694560890691354,-0.02470123747102916
1761470350872308200,2.50230810546875,0.10623685345053673,-0.025368651871196923,-0.02647421566003468
1761470350882285300,2.512285400390625,0.1132873564839363,-0.03762370127774775,-0.047537594385631377
1761470350892261400,2.522261474609375,0.13440437879264355,-0.057902423298521896,-0.02628716865533497
1761470350902238500,2.532238525390625,0.06484335131049156,-0.07234214153408539,-0.033775597315118644
1761470350912214300,2.54221435546875,-0.04735971706807613,-0.0163624664590694,-0.02146529689026065
1761470350922191400,2.55219140625,-0.08144728010892868,0.032826425097812896,-0.026171223258622922
1761470350932167200,2.562167236328125,-0.08591127378046512,0.0347344917754177,-0.02497486221406143
1761470350942143200,2.572143310546875,-0.062250996729731556,0.010056479916349052,-0.009464788500359282
1761470350952120300,2.582120361328125,-0.05116612361371517,-0.008316043156920932,0.006529214539076201
1761470350962096000,2.59209619140625,-0.02781798125207424,-0.031160702108987606,0.045964230421953835
1761470350972073200,2.6020732421875,-0.03380406992435455,-0.024544133513444102,0.07748677898012102
1761470350982049300,2.61204931640625,-0.03934066126346588,0.007121810137364082,0.10080657203011215
1761470350992026400,2.6220263671875,-0.035303368571400644,0.013920055442745797,0.0910246530051343
1761470351002002200,2.632002197265625,-0.037997429960966105,0.030749052568175828,0.02813355914042331
1761470351011978500,2.641978515625,-0.03350187210738659,0.013978416300169192,-0.01589222773197107
1761470351021955300,2.651955322265625,-0.021520926934480666,0.059865384801407344,-0.0015497958584222943
1761470351031931100,2.66193115234375,-0.047399464556574816,0.05377197699686512,-0.013348607663763687
1761470351041908200,2.671908203125,-0.024497312396764753,0.06681606245583388,-0.019167678339220583
1761470351051884300,2.68188427734375,0.05945756661891937,0.028371692444966172,-0.015505931828124448
1761470351061861400,2.691861328125,0.16361293762028217,-0.0341302285722224,0.0270768759946106
1761470351071837200,2.701837158203125,0.15763678582012652,-0.05337664840319194,0.038937669953145085
1761470351081814300,2.711814208984375,0.09989128381609916,-0.04074632224373054,-0.01899883827806916
1761470351091790000,2.7217900390625,0.03765840726494789,0.003961629073391668,-0.08817803140236065
1761470351101766400,2.731766357421875,-0.029516601863503453,0.030499457154702394,-0.12638430007472634
1761470351111743200,2.7417431640625,-0.15490356146395207,0.02672324481792748,-0.10946583456755615
1761470351121719300,2.75171923828125,-0.20592472364902495,0.024959386083716527,-0.15732434060378
1761470351131696000,2.761696044921875,-0.2044283476114273,0.008002999718952923,-0.13216006133141928
1761470351141672400,2.77167236328125,-0.11375380495190619,-0.0188160016576061,-0.056960909231286494
1761470351151649300,2.781649169921875,0.015075988578796386,-0.01717001541571226,0.023370087048679124
1761470351161625300,2.791625244140625,0.10425006354749203,-0.021888993061892688,0.048064714399119836
1761470351171601400,2.801601318359375,0.09900222602188587,-0.020427455442235804,0.03232850149605656
1761470351181578200,2.811578125,0.0588940875172615,-0.0005321934808278456,0.016716225499915888
1761470351191554300,2.82155419921875,0.05186170466244221,0.024778604423021895,0.002537665251456201
1761470351201531100,2.83153125,0.0288175136834383,0.03160319887921214,-0.002058206604863517
1761470351211507200,2.841507080078125,0.008014964151382446,0.05635942250706721,0.02426863875702256
1761470351221484300,2.851484375,-0.07474164499044418,0.035627851285412904,-0.002590009643335361
1761470351231460400,2.86146044921875,-0.10632628529965876,0.04878873609104194,-0.037237186178192494
1761470351241436200,2.871436279296875,-0.0765624306768179,0.04826211840105243,-0.07813316885856911
1761470351251413200,2.881413330078125,0.022930793732404708,-0.002716277787950821,-0.06520406524850987
1761470351261389300,2.891389404296875,0.07349369075596332,-0.014399299460207111,-0.015966966618748846
1761470351271366400,2.901366455078125,0.059414896520972246,-0.011339651594683527,-0.00015052351974882184
1761470351281342200,2.91134228515625,0.011371288841962814,0.0016615811032475902,-0.032867565392376855
1761470351291319300,2.9213193359375,-0.012877017229795455,-0.00641146991092246,-0.11064592033075168
1761470351301295400,2.93129541015625,0.011363105535507201,-0.006126570288627408,-0.11610961996358819
1761470351311271200,2.941271240234375,0.08543664200603962,-0.0061965713514946395,-0.09787614460140466
1761470351321248300,2.951248291015625,0.11955986088216304,-0.017168974236096254,-0.04336322217728011
1761470351331224300,2.961224365234375,0.0927829131156206,0.01898955442649312,-0.01208380504247034
1761470351341201400,2.971201416015625,0.03847323077917099,0.04373816100347321,-0.0237582301330287
1761470351351177200,2.98117724609375,-0.014343582651019095,0.02992442461256869,-0.08935189748732372
1761470351361154300,2.991154296875,-0.032146950367093086,-0.0023419097839156165,-0.09622133573223836
1761470351371130000,3.001130126953125,-0.020918869388103483,-0.008449181717028841,-0.06826476799338124
1761470351381107500,3.011107421875,0.02487958971261978,-0.027031721678632308,-0.09455338425370864
1761470351391083300,3.021083251953125,0.0706803869009018,-0.02547797573087737,-0.021078937054332343
1761470351401059300,3.031059326171875,0.08341185818016529,-0.03616377565986477,0.02708427156648831
1761470351411036200,3.0410361328125,0.027909751188755032,-0.0029554385723778976,0.022858301601640412
1761470351421012200,3.05101220703125,-0.030291677889227864,0.036137563506374135,-0.004357544472243171
1761470351430989300,3.0609892578125,-0.15134849933087824,0.03358174611029681,-0.025266337707615456
1761470351440965000,3.070965087890625,-0.19789456192851065,0.0397566581858322,-0.051023947797203435
1761470351450942200,3.080942138671875,-0.09375789562761783,0.008672660875134169,-0.013389736541884485
1761470351460918300,3.090918212890625,0.007089666000008582,-0.034764064929774026,0.03578463101601228
1761470351470894300,3.100894287109375,0.10480068316757678,-0.02930886826380156,0.08407009376003406
1761470351480871200,3.11087109375,0.11572598180770874,-0.027164220917923376,0.11046734889345243
1761470351490847200,3.12084716796875,0.07607610846459865,-0.01907365707994904,0.08605407065148465
1761470351500824300,3.13082421875,-0.0246259072124958,0.04648186108788941,0.03079202634351095
1761470351510800400,3.14080029296875,-0.12488368625342845,0.08033970245951787,-0.03671332898415858
1761470351520777200,3.150777099609375,-0.1103723458200693,0.09307391368513926,-0.06950179897504859
1761470351530753300,3.160753173828125,-0.0003933832317590713,0.048494794645765796,-0.03092491830844665
1761470351540730000,3.170730224609375,0.10120879615545272,-0.021423521841457113,0.03418823323661927
1761470351550706400,3.18070654296875,0.08459317691922187,-0.03742672653407789,0.06393072997760027
1761470351560682200,3.19068212890625,-0.0574257685303688,-0.011567829760792665,0.021014687595528082
1761470351570659000,3.2006591796875,-0.1831441520422697,0.02277269882755354,-0.05044165439722128
1761470351580635400,3.210635498046875,-0.18976035531163216,0.02454426137760747,-0.08098046631477773
1761470351590612200,3.2206123046875,-0.1039022730231285,0.007435136703122407,-0.08339079712582752
1761470351600588300,3.23058837890625,0.04630407053530216,-0.04697887365748174,-0.006132420074101537
1761470351610565000,3.240565185546875,0.13187281448841096,-0.05205704457145184,0.02398812304890016
1761470351620541400,3.25054150390625,0.08681085296869277,-0.016832248528441413,0.022879079528187865
1761470351630517200,3.260517333984375,0.020196400332450865,0.008088011121284216,-0.005682822276232764
1761470351640493300,3.270493408203125,-0.04432546393871307,0.04864542776336893,-0.00448227368032094
1761470351650469600,3.2804697265625,-0.057227031087875364,0.07165710471225901,-0.04632219984703697
1761470351660446500,3.290446533203125,0.016366028389334677,0.080619606246287,-0.04387153702559881
1761470351670422500,3.300422607421875,0.12528642183542252,0.023225548028433695,0.018754330031666905
1761470351680399400,3.3103994140625,0.24081483524441719,0.00928611659836024,0.06970513039426877
1761470351690375400,3.32037548828125,0.2954629557549953,-0.04281522377254441,0.07163695697337388
1761470351700351500,3.3303515625,0.2483651044934988,-0.07071077290601097,0.017909152478375472
1761470351710328300,3.340328369140625,0.12809504951536654,-0.052020475420728324,-0.04585276940411422
1761470351720304400,3.350304443359375,0.019941548788547515,0.004605630631931126,-0.04716902593472041
1761470351730281500,3.360281494140625,-0.14703005160987376,0.04324191561886109,-0.08125791328297928
1761470351740257500,3.370257568359375,-0.23396306965351105,0.053711086255637926,-0.09639648223659023
1761470351750234400,3.380234375,-0.23277239856421947,0.042808182110404595,-0.08499571157181635
1761470351760210400,3.39021044921875,-0.13537293156385422,0.025652702110121026,-0.03134817608866142
1761470351770187300,3.400187255859375,-0.053987026253342625,-0.014715311173396185,-0.0029758169234148225
1761470351780163600,3.41016357421875,-0.021387071421742437,-0.022896699666557833,-0.013469194986263755
1761470351790139400,3.420139404296875,-0.047747839602828024,0.002843077938817441,-0.02217313006578479
1761470351800116500,3.430116455078125,-0.09535773203969002,0.0526459229758475,-0.012873073990328701
1761470351810092500,3.440092529296875,-0.06695639794170856,0.0634453302139882,0.015071785044425632
1761470351820069600,3.450069580078125,0.00020166005194187164,0.033810983722331,0.02644287980685476
1761470351830045400,3.46004541015625,0.09894318931102752,0.006117551298532635,0.0052982753714779385
1761470351840022300,3.470022216796875,0.17420739687085152,-0.016163455021940172,-0.037008485138986726
1761470351849998600,3.47999853515625,0.20294950723052024,-0.03665315747885033,-0.06675535894427448
1761470351859974400,3.489974365234375,0.1953390322268009,-0.055188045206712555,-0.07106313000763766
1761470351869951500,3.499951416015625,0.1397007316350937,-0.03375420290064066,-0.05115073424833826
1761470351879927300,3.50992724609375,0.10172785159349441,-0.012950968381995335,-0.04484840096742846
1761470351889904400,3.519904296875,0.08755728742182255,-0.015738461942365393,-0.03054341502743773
1761470351899880400,3.52988037109375,0.08550912272036075,-0.017942118599638342,-0.0355453035515151
1761470351909857500,3.539857421875,0.06340659650564193,-0.020412161974981427,-0.057546189172798766
1761470351919833300,3.549833251953125,0.00343465062379837,-0.0029808013424975797,-0.06611208347151987
1761470351929810400,3.559810546875,-0.10428221225142478,0.009194538457924499,-0.05815599620079156
1761470351939786500,3.569786376953125,-0.20796938121914862,0.03041342283906415,-0.02562455829444807
1761470351949762300,3.57976220703125,-0.23295593843758106,0.03960350888415705,-0.01629858917631209
1761470351959739400,3.589739501953125,-0.13808628217577934,0.027958572466275654,0.03082437597684329
1761470351969715500,3.599715576171875,0.002570142748951912,-0.04419007862259168,0.0691581092370674
1761470351979692500,3.609692626953125,0.05015665431022644,-0.058552996161743066,0.0685611753903795
1761470351989668400,3.61966845703125,0.041622050198912616,-0.024722261992748826,0.051605419213278214
1761470351999645400,3.6296455078125,-0.10608487775921821,0.02507167365204077,-0.00958672752972925
1761470352009621500,3.63962158203125,-0.20981179421544074,0.054756928347027854,-0.029845589505985842
1761470352019597600,3.64959765625,-0.20611118613183496,0.05485165285919793,-0.06736439878728706
1761470352029574400,3.659574462890625,-0.11787409975230694,0.02680891380738467,-0.06356805697793606
1761470352039550500,3.669550537109375,0.05626373901367187,-0.01974107604669407,0.00953272204537061
1761470352049527300,3.67952734375,0.21440905887782571,-0.06688397202631459,0.07034262458020821
1761470352059503600,3.689503662109375,0.23789397936165332,-0.06918677820912562,0.05732068245438859
1761470352069480400,3.69948046875,0.14047873027026653,-0.03880793349309824,-0.007164669748267624
1761470352079456300,3.709456298828125,0.023459786042571068,0.01945950089264661,-0.054221437797416
1761470352089433300,3.719433349609375,0.03169160781502724,0.05392170593217015,-0.07014599689641035
1761470352099409400,3.729409423828125,0.08377893792688847,0.0375332282490097,-0.041553889466682446
1761470352109385500,3.739385498046875,0.14351006079018117,-0.01305928759467788,0.018038993969699366
1761470352119362300,3.7493623046875,0.17123042688667772,-0.007875893607409671,0.03990087069580331
1761470352129338600,3.759338623046875,0.1697773054689169,-0.0014717987187672405,-0.006712711029953788
1761470352139315500,3.7693154296875,0.10113339283168316,-0.0034610043411841614,-0.06308440621341578
1761470352149291500,3.77929150390625,-0.025280571728944778,-0.006545905378973111,-0.09280456782500258
1761470352159268400,3.789268310546875,-0.14167875370979308,0.016211162054608576,-0.11731374418949708
1761470352169244400,3.799244384765625,-0.1421177296489477,0.007044968341756611,-0.10851308215367607
1761470352179220500,3.809220458984375,-0.11367898615002632,-0.04665258714545052,-0.04862011979217641
1761470352189197600,3.819197509765625,-0.037357963013648986,-0.06769428376220166,-0.017730440618825376
1761470352199173400,3.82917333984375,-0.04663315635919571,-0.07076281818707938,-0.06710831883409991
1761470352209150500,3.839150390625,-0.0647457361549139,-0.07718624339727684,-0.0929935601916164
1761470352219126500,3.84912646484375,-0.14436872344613075,-0.047493033724697306,-0.05915324991010129
1761470352229103400,3.859103271484375,-0.19916122086346147,-0.010130179906799458,-0.02772232059156522
1761470352239079400,3.869079345703125,-0.19500643927156924,0.00671990110585466,-0.032996637415431906
1761470352249056300,3.87905615234375,-0.14417057052552698,0.019062519198004155,-0.020568622045172378
1761470352259032600,3.889032470703125,-0.06176759712696075,0.04516147637143731,0.05817801166977733
1761470352269008400,3.89900830078125,0.03844575825035572,0.05074100266997702,0.05951130610015243
1761470352278985500,3.9089853515625,0.1057405943661928,0.060731586876418435,0.007289051896473392
1761470352288961500,3.91896142578125,0.14146774130761622,0.036206253961566834,0.018760284848418084
1761470352298938600,3.928938720703125,0.17556231861114502,-0.01672242234526202,0.03593910462509375
1761470352308914400,3.93891455078125,0.16073825896680355,0.0035878318915143607,0.03755451763221063
1761470352318891500,3.9488916015625,0.11854103922843932,0.011999942134320735,0.03600010268088663
1761470352328867300,3.958867431640625,0.09670856212675571,0.0017108590384945271,-0.02740254601871129
1761470352338843400,3.968843505859375,0.1075058504730463,-0.00875414687981829,-0.08565552718741819
1761470352348820500,3.978820556640625,0.11351999619603156,-0.03769936946299858,-0.11480117684667929
1761470352358796300,3.98879638671875,0.07314414666593075,-0.04846493836361915,-0.11104505744986236
1761470352368773400,3.9987734375,-0.022602292430400846,-0.031558939612377435,-0.09070215218565426
1761470352378749400,4.00874951171875,-0.09351648808717727,-0.0008295370261650532,-0.07681572958445176
1761470352388726500,4.0187265625,-0.13002455627322196,0.006356447221478447,-0.042486475875368336
1761470352398702300,4.028702392578125,-0.1235965690523386,0.009939721668884157,-0.03268315558604663
1761470352408679400,4.038679443359375,-0.08829436952471732,-0.013542595865903421,-0.04788035254185088
1761470352418655500,4.048655517578125,-0.07828677025139331,0.005202747141709551,-0.05152673708703369
1761470352428631600,4.058631591796875,-0.05032441209256649,0.021930010058870537,-0.03083541567737702
1761470352438608400,4.0686083984375,-0.00440671052634716,0.006115185811510309,-0.014763607294531538
1761470352448584400,4.07858447265625,0.0352267962038517,-0.049298621841939165,0.027782734125468413
1761470352458561500,4.0885615234375,0.08504793494939804,-0.049002826366294175,0.0686925786511274
1761470352468537300,4.098537353515625,0.10166004705429077,-0.01779424369470216,0.0667811509726569
1761470352478514400,4.108514404296875,0.0917944866001606,0.009439480529166757,0.06183237859201617
1761470352488490200,4.118490234375,0.09360650445818901,0.005416599954944104,0.01901795853707008
1761470352498467300,4.12846728515625,0.0969184054851532,-0.00004462459301576018,0.005492937143763993
1761470352508443400,4.138443359375,0.06581424216926098,-0.007147835061186924,0.010676344830763991
1761470352518419500,4.14841943359375,-0.014526538002490997,0.009425333272805437,-0.02147057357028825
1761470352528396300,4.158396240234375,-0.11357961742877959,0.022710803439328447,-0.06868796184151434
1761470352538372600,4.16837255859375,-0.14276596442461012,-0.021676510221837086,-0.0684682775091147
1761470352548349400,4.178349365234375,-0.10118132362663745,-0.04047987616015598,-0.05339590565951075
1761470352558325500,4.188325439453125,-0.0399976638674736,-0.04169062192309648,-0.011161087007250171
1761470352568302300,4.19830224609375,0.001886252138018608,-0.0325992333123926,0.020401346036733593
1761470352578278700,4.208278564453125,0.008456278178095817,-0.03928008104949258,-0.019824870456184723
1761470352588254500,4.21825439453125,-0.05261223076879978,-0.004843878100905567,-0.06379045385723002
1761470352598231600,4.2282314453125,-0.06475216589570044,0.043598574436269695,-0.07382111891231033
1761470352608207400,4.238207275390625,-0.022121230915188788,0.06491953095239587,-0.026583713049651122
1761470352618184400,4.248184326171875,0.024403204372525213,0.053618768329685554,0.03405224056572188
1761470352628160500,4.258160400390625,0.07901216191649436,0.066311405435903,0.026273964397178495
1761470352638137300,4.268137451171875,0.09696984341144561,0.07226825888054444,0.01563703141148435
1761470352648113400,4.278113525390625,0.09637889178097248,0.060144343306683,-0.03287574184896657
1761470352658090200,4.28809033203125,0.09519231234490871,0.035534830106562,-0.055860829901741814
1761470352668066600,4.298066650390625,0.09176876763701439,-0.014846426739776507,-0.05655053833210841
1761470352678042400,4.30804248046875,0.09119476714134216,-0.03587156038079411,-0.05394386296505108
1761470352688019500,4.31801953125,0.04258884940445423,-0.030342860087193547,-0.05553983605275862
1761470352697995500,4.32799560546875,0.010443068081140518,-0.014915217659668996,-0.07298296475484967
1761470352707972400,4.337972412109375,0.002237549793720245,-0.006702776441117748,-0.09261268938155845
1761470352717948400,4.347948486328125,0.025458850905299184,-0.030144223109399897,-0.06359681271496229
1761470352727925200,4.35792529296875,0.046287703922390934,-0.003499139827908948,-0.022663361268141304
1761470352737901600,4.367901611328125,-0.015642974811792373,0.02246545950928703,0.022956279800110495
1761470352747877400,4.37787744140625,-0.14268062422871589,0.04841361003518104,0.008743072929955088
1761470352757854500,4.3878544921875,-0.2594113991647959,0.11066818696148693,-0.029827005819813346
1761470352767830300,4.397830322265625,-0.2238251219987869,0.10689390172031707,-0.03476612217283109
1761470352777807400,4.407807373046875,-0.1111784015059471,0.049450926326820625,-0.030627033623703753
1761470352787783400,4.417783447265625,0.028261633366346357,0.01182603773898445,-0.05664267816154751
1761470352797760500,4.427760498046875,0.15873334888517857,-0.0006704466074705124,-0.021964094991562887
1761470352807736300,4.437736328125,0.17728607366383076,-0.01986146928966045,0.04558465195326134
1761470352817713400,4.44771337890625,0.10756488718390464,-0.0028226653384510426,0.01676192209694418
1761470352827689500,4.457689453125,0.07600830392539501,0.01788488112022169,-0.09560752381598576
1761470352837665300,4.467665283203125,0.09862988557815551,-0.042911249759234486,-0.10726595903625712
1761470352847642400,4.477642333984375,0.14610183084905146,-0.05889316506865434,-0.10791006562607362
1761470352857618400,4.487618408203125,0.15302607715427874,-0.015933007266931237,-0.05750030877103563
1761470352867595500,4.497595458984375,0.055196986564993854,0.0029247557397466153,-0.014575733739347197
1761470352877571300,4.5075712890625,-0.08678864113688468,0.05870138252333272,-0.010266516212635905
1761470352887548400,4.51754833984375,-0.15322072294354439,0.11910925843729638,-0.014422425749112153
1761470352897524500,4.5275244140625,-0.1749228516638279,0.09891534232287667,-0.020330182779952882
1761470352907501600,4.53750146484375,-0.12345803736448287,0.06001630561337806,-0.0017284723269985988
1761470352917477400,4.547477294921875,-0.04296118984818458,0.02686279941909015,0.024216787555487826
1761470352927453400,4.557453369140625,0.0016214637219905852,-0.012866541501553728,0.05725891493032686
1761470352937430300,4.56743017578125,-0.04657938034534454,-0.024077981872996312,0.03975074446827639
1761470352947406300,4.57740625,-0.11274433564841746,0.0291815520897042,0.014969785974675322
1761470352957383400,4.587383544921875,-0.1400087746709585,0.0749281074732542,-0.00749228741757106
1761470352967359200,4.597359130859375,-0.07225508887171744,0.060826927876519034,-0.00407304899203591
1761470352977336300,4.60733642578125,0.0489250666886568,0.020852078629052265,-0.009584277561027556
1761470352987312400,4.6173125,0.1303103874772787,-0.044590197555813935,0.011166429902648087
1761470352997289500,4.62728955078125,0.11399228988289832,-0.04199545008856803,0.011698127909842877
1761470353007265300,4.637265380859375,0.0858557442009449,-0.027382411979557944,-0.05628300996972248
1761470353017241600,4.64724169921875,0.031684009030461306,-0.049895071631437166,-0.09464471579897217
1761470353027218400,4.657218505859375,0.014324293428659438,-0.030608762748073785,-0.03940428281789645
1761470353037194500,4.667194580078125,0.0559223782300949,0.013624182335287331,0.016693643775349484
1761470353047171300,4.67717138671875,0.02674304549694061,-0.012902416532533243,-0.06592730148914269
1761470353057147400,4.6871474609375,-0.033712884509563446,-0.032514596369396895,-0.09773856276161969
1761470353067124500,4.69712451171875,-0.06334405266344546,-0.01692083099419251,-0.10428372835507616
1761470353077100500,4.7071005859375,-0.06814180833399296,-0.00010535093746148049,-0.08526438157851807
1761470353087077400,4.717077392578125,-0.07145370936095714,0.02688242656816728,-0.07360357630464713
1761470353097053200,4.72705322265625,-0.08599836754202843,0.05821462648627348,-0.009723660915542859
1761470353107029500,4.737029541015625,-0.06957505600750447,0.06537214269125834,0.03204751086389879
1761470353117006300,4.74700634765625,-0.07589958285391331,0.06029868448502384,0.011239568204095121
1761470353126982400,4.756982421875,-0.01847907502055168,0.08271482495986857,0.0028831039885291827
1761470353136959200,4.766959228515625,0.04328443045318126,0.06537703806208446,-0.011599661087605635
1761470353146935600,4.776935546875,0.07273381229937076,0.03623332463158294,-0.019216047525592146
1761470353156912400,4.786912353515625,0.11087094299197196,-0.00437848907886073,-0.054532325810915785
1761470353166888400,4.796888427734375,0.06746376294195651,-0.024763132859254255,-0.04794992891303263
1761470353176864500,4.806864501953125,0.006997896063327789,0.019056509582325815,-0.017948201280552894
1761470353186841600,4.816841552734375,0.0063911623418331145,0.05435860864524729,-0.04071865335209295
1761470353196817400,4.8268173828125,0.06279986278414726,0.02986647474709898,-0.017581347579404244
1761470353206794500,4.83679443359375,0.12969663949310778,0.013898551430413499,0.011731767601252068
1761470353216770300,4.846770263671875,0.17205752536058425,-0.02563410700750537,-0.007985601059580221
1761470353226747400,4.856747314453125,0.07854805153608321,-0.020533541598636657,-0.042921442359685896
1761470353236723500,4.866723388671875,-0.02304360645711422,-0.0003238159937318414,-0.076732289084699
1761470353246700300,4.8767001953125,-0.07691431285440921,0.010597263129008933,-0.07496228830406908
1761470353256676400,4.88667626953125,-0.09697627315223216,0.021529073708318174,-0.08094629918369464
1761470353266652400,4.89665234375,-0.06990472635328769,0.032681367771048096,-0.007790758907492272
1761470353276629500,4.90662939453125,-0.0013818097472190856,0.03304835618622601,0.018705465371662285
1761470353286605300,4.916605224609375,0.030782676276564596,0.02546424859962426,0.03678323643219191
1761470353296582400,4.92658251953125,0.04619418042004108,0.0060622957136482,0.040800509249535384
1761470353306558500,4.936558349609375,0.05338321514129638,0.0005948240879923105,-0.0027203169255401007
1761470353316535600,4.94653564453125,0.041567689663171765,-0.0016397848299704492,-0.0351561466870131
1761470353326511400,4.956511474609375,-0.0033200843334197996,-0.004820643355790525,-0.035041758493147786
1761470353336488400,4.966488525390625,-0.026965163815021512,0.043833305640751496,-0.03864807132284622
1761470353346464500,4.976464599609375,-0.057798693495988845,0.050381256846338505,-0.046519165457552296
1761470353356440300,4.9864404296875,-0.04808277064561844,0.04352058642976917,-0.07226287945252843
1761470353366417400,4.99641748046875,-0.008889993420243263,0.033905128279188644,-0.08770710768867283
1761470353376393200,5.006393310546875,0.024915830069780348,-0.01235051827081479,-0.06559853532565757
1761470353386370300,5.016370361328125,0.03687748602032661,-0.037303565945290024,-0.05321665380219929
1761470353396346400,5.026346435546875,0.04030453785955906,-0.01962365107894875,-0.056358860818063836
1761470353406323500,5.036323486328125,0.006619125878810883,-0.04126917250747792,-0.03179590387314092
1761470353416299300,5.04629931640625,-0.060734746947884555,-0.009318941155727952,-0.003888997662020847
1761470353426276400,5.0562763671875,-0.038301381343603134,0.032618613866297524,0.030661150522436946
1761470353436252400,5.06625244140625,-0.0003039513826370239,0.025812477515405042,0.04187583773031365
1761470353446228500,5.076228515625,0.017793430843949316,-0.005910301756020635,0.03933065589268226
1761470353456205300,5.086205322265625,0.03425298273563385,0.0063169919939246024,0.023241850709263233
1761470353466181600,5.096181640625,0.028867782565951346,0.029413497682055458,0.07210536906956695
1761470353476158500,5.106158447265625,0.00867313579916954,0.03515027863522991,0.11187104167891665
1761470353486134300,5.11613427734375,-0.05731938554644584,0.0580205195531249,0.13727821719590574
1761470353496111400,5.126111328125,-0.10073182629346847,0.07749158301940187,0.08731224488588049
1761470353506087400,5.13608740234375,-0.09895955592393875,0.08735387380421161,0.03541825452218764
1761470353516063500,5.1460634765625,-0.015183540606498718,0.07655045711123384,0.027939744468219577
1761470353526040300,5.156040283203125,0.09403671256899833,0.04239654170274734,0.007476149133522994
1761470353536016400,5.166016357421875,0.13727671935856342,0.0003143266461789608,0.014594748967071063
1761470353545993200,5.1759931640625,0.08685118497908115,-0.00694770937920548,-0.016862661933014167
1761470353555969500,5.185969482421875,0.04166530481874942,-0.015920741440402342,-0.03763988066099118
1761470353565946400,5.1959462890625,-0.041085459104180336,-0.025295824097003785,-0.08140196139616891
1761470353575922400,5.20592236328125,-0.07730360443294047,0.0013210286038462071,-0.08981988032525405
1761470353585899300,5.215899169921875,-0.035865094107389445,0.023810024252347645,-0.07977801345614716
1761470353595875600,5.22587548828125,0.027719197052717207,-0.0026530443925876167,-0.01374016883119475
1761470353605851400,5.235851318359375,0.08771744641959667,-0.0005426463761832565,0.0173311151284026
1761470353615828500,5.245828369140625,0.057335752159357066,-0.01493539279801771,0.05903982069746125
1761470353625804500,5.255804443359375,-0.00880816035568714,0.0016700521040707826,0.018330487729562445
1761470353635782100,5.2657822265625,-0.036058570852875706,0.0317620883685071,-0.024924593331548384
1761470353645758200,5.27575830078125,-0.08723580038249493,0.015911745283193886,0.015232791142282076
1761470353655735300,5.2857353515625,-0.004020926079154014,0.0024966299881692975,-0.17198573876600712
1761470353665711000,5.295711181640625,0.061388826942443846,-0.013550815704977138,-0.20098801616551354
1761470353675688200,5.305688232421875,0.10480360577702522,-0.08672866371111013,-0.14484140072548762
1761470353685664300,5.315664306640625,0.14671850144267082,-0.07626753938347101,-0.052147855526907365
1761470353695640000,5.32564013671875,-0.0020177695631980893,0.00009533186694607138,0.0572282412308501
1761470353705617200,5.3356171875,-0.16005612192153928,0.117619394338876,0.05473544260100461
1761470353715593200,5.34559326171875,-0.2007978821545839,0.13865401732744648,-0.0030753477581543847
1761470353725570300,5.3555703125,-0.16613982574939726,0.13501476577594876,0.013874090559303293
1761470353735546000,5.365546142578125,-0.040649405774474144,0.09804344572601839,0.0011875840830616652
1761470353745523200,5.375523193359375,0.06809095492959022,0.03786718204426579,0.010659172216965817
1761470353755499000,5.3854990234375,0.09543839606046677,0.02227881436338648,-0.010784803324053063
1761470353765476400,5.395476318359375,0.07206804186701775,0.021357744862558318,-0.025568371127801946
1761470353775452200,5.4054521484375,0.05948445462584495,0.016797560807550325,-0.032972304408485066
1761470353785428200,5.41542822265625,0.08986147271096706,-0.016150157148949802,0.00922350882408209
1761470353795405000,5.425405029296875,0.12324234878718852,-0.019630318281752986,-0.004001056901481934
1761470353805381400,5.43538134765625,0.1223714111715555,-0.04936955905314534,-0.0534906575711444
1761470353815358200,5.445358154296875,0.11671908449828625,-0.08434495604550465,-0.07333002919342833
1761470353825334300,5.455334228515625,0.059143093842267985,-0.06362268694173544,-0.0898719210397452
1761470353835311000,5.46531103515625,-0.002629179459810257,-0.045254415351897476,-0.09212706128908321
1761470353845287200,5.475287109375,-0.11679273425638675,-0.023761326272413133,-0.12543549318360164
1761470353855264300,5.48526416015625,-0.19910744484961032,0.004389485396910459,-0.11268408422800712
1761470353865240000,5.495239990234375,-0.19749474895596503,0.02312273610793054,-0.061285275236424054
1761470353875216100,5.505216064453125,-0.11658405994176864,0.0402246684232261,-0.02056880014168564
1761470353885193200,5.515193115234375,-0.03193418439924717,0.020017399636888877,0.026075754394358955
1761470353895169300,5.525169189453125,-0.015371756654977798,0.026223569933790714,0.02741311307849828
1761470353905146000,5.53514599609375,0.0059796589314937585,0.060825658368039874,0.048880085902614515
1761470353915122200,5.5451220703125,-0.007833177843689918,0.06594017010387034,0.06801717730732634
1761470353925099000,5.55509912109375,-0.03466799327731132,0.04268357848320156,0.04671957426732406
1761470353935075300,5.565075439453125,0.00374620079100132,0.03910623145308345,0.03806183696668595
1761470353945052200,5.57505224609375,0.09784662624597548,0.020177348572108893,0.019775786600471475
1761470353955028200,5.5850283203125,0.1307639764636755,-0.0000991860581561923,0.008024567663366906
1761470353965004300,5.59500439453125,0.1050350764453411,0.003626245939452201,-0.053919185181520876
1761470353974981400,5.6049814453125,0.026027006182074545,0.01050762121733278,-0.09528382655326277
1761470353984957200,5.614957275390625,-0.06885784764885902,0.007893712391890585,-0.1131529895145446
1761470353994934000,5.62493408203125,-0.12559914104640482,0.01497400777535513,-0.09719651004048063
1761470354004910300,5.634910400390625,-0.0946615664690733,0.015263327844440936,-0.0685913604660891
1761470354014887200,5.64488720703125,-0.008952537262439728,-0.0008619505915790796,-0.014789047696464695
1761470354024863200,5.65486328125,0.09592647183835507,-0.02064584286669269,0.04411053797982167
1761470354034839000,5.664839111328125,0.18347323786616324,-0.02348581553297117,0.058361218182998706
1761470354044816100,5.674816162109375,0.20191373444199562,-0.030269940981455145,0.021849387137289157
1761470354054792200,5.684792236328125,0.12220073077976704,-0.0080207363050431,-0.04564259725215379
1761470354064769300,5.694769287109375,-0.010049684849381447,0.015072609311621635,-0.08612642350164242
1761470354074745000,5.7047451171875,-0.07497896087765693,0.09120176313770935,-0.07510068756118417
1761470354084722200,5.71472216796875,-0.09024550359249114,0.12156449696915224,-0.022519066559779456
1761470354094698200,5.7246982421875,-0.07200549802482127,0.11224056911105289,0.02086771002302412
1761470354104675300,5.73467529296875,-0.04119885635077953,0.10433487402042374,0.05730207365204114
1761470354114651100,5.744651123046875,-0.04347323102355003,0.055631286329030985,0.019990557295735924
1761470354124627200,5.754627197265625,-0.06639934858083725,0.009089607645571231,-0.006161038813809864
1761470354134604300,5.764604248046875,-0.0914320830285549,0.008599906166177243,-0.051213702782220205
1761470354144580000,5.774580078125,-0.030875615257024765,-0.009944306512456386,-0.060532863133656786
1761470354154557200,5.78455712890625,0.04989186589419842,-0.031219770785886794,-0.04562634937025141
1761470354164533200,5.794533203125,0.09790800104439258,-0.04606054410301148,-0.013841039956361054
1761470354174510300,5.80451025390625,0.14086217662990091,-0.04563245488405227,-0.023067823016340843
1761470354184486100,5.814486083984375,0.14851532173156737,-0.028445301103871314,0.010819303815276361
1761470354194463200,5.824463134765625,0.11128653805553912,-0.011651092164032161,0.015548930719634518
1761470354204439000,5.83443896484375,0.038757892939448355,0.04297625955315307,-0.02344284404092468
1761470354214416400,5.84441650390625,0.02682663212716579,0.07684959532143548,-0.06867943147518672
1761470354224392200,5.85439208984375,0.031802082452178,0.058667019029427316,-0.09903527890811674
1761470354234368000,5.864367919921875,0.04336918612718582,0.02333681725002825,-0.043763820601115
1761470354244345000,5.874344970703125,0.05853402203321457,0.011966953180171548,-0.033340585165028455
1761470354254321200,5.884321044921875,0.0716080231398344,0.004390270848199725,-0.05797604109058156
1761470354264298200,5.89429833984375,0.03350187210738659,-0.018827103006932883,-0.06845067792034241
1761470354274274000,5.904274169921875,0.009604863691329955,-0.037285783693427214,-0.0853761622567661
1761470354284251100,5.914251220703125,-0.03690671211481094,-0.03976933500431478,-0.07439491391200571
1761470354294227200,5.924227294921875,-0.0801344439446926,-0.025709665594901888,-0.0029221025583567096
1761470354304203300,5.934203369140625,-0.12022972296774387,-0.03375792009453289,-0.0011550837526796386
1761470354314180000,5.94418017578125,-0.10840952131450175,-0.0316404438833706,-0.009584588088281451
1761470354324156200,5.95415625,-0.06277998903989791,-0.016744177519343793,-0.004934319163602777
1761470354334133200,5.96413330078125,-0.03287000394463539,-0.006420488901017233,0.007331662628916092
1761470354344109300,5.974109375,-0.0442763640999794,0.0028339721837546674,0.02858947708122432
1761470354354086100,5.984086181640625,-0.09625731122791767,0.011856880401819944,0.032168239750294016
1761470354364062200,5.994062255859375,-0.13523966057300565,0.023662048882711676,0.05095507467892021
1761470354374039300,6.004039306640625,-0.09911386970281601,0.04241400429420173,0.05337726945769973
1761470354384015000,6.01401513671875,-0.02303308506309986,0.025248404758702964,0.06441807510312646
1761470354393991200,6.0239912109375,0.09676000005304813,-0.0358313562345691,0.08476074290531686
1761470354403968000,6.033968017578125,0.1996756001263857,-0.05594986902521923,0.061497383617144075
1761470354413944300,6.0439443359375,0.19309213008284568,-0.08060646363692357,0.001402290846244432
1761470354423921200,6.053921142578125,0.13176292437314988,-0.09305210371213034,-0.07592946653552353
1761470354433897200,6.063897216796875,0.03437923946380615,-0.07027180610001087,-0.13898512157849036
1761470354443874000,6.0738740234375,-0.05463818363845348,-0.04842294411910698,-0.14547560697579756
1761470354453850400,6.083850341796875,-0.10281155517697334,-0.008396035890839993,-0.09460109585295431
1761470354463827200,6.0938271484375,-0.057923196658492083,0.019149923486821353,-0.04434024138273671
1761470354473803300,6.10380322265625,0.03963759838342666,-0.009389412576053292,-0.019706475090770982
1761470354483779000,6.113779052734375,0.07764905686974526,-0.041631548679620024,-0.007243687517940998
1761470354493756400,6.12375634765625,0.052661915129423136,-0.05032123375479132,-0.0014635651799617335
1761470354503732200,6.133732177734375,0.004031447473168373,-0.04734846502169966,-0.03329720724760554
1761470354513709300,6.143709228515625,-0.06197334883213043,-0.03255277295531705,-0.0013185352526605128
1761470354523685000,6.15368505859375,-0.09537292960882186,0.009930698112212121,0.045156923493905925
1761470354533662200,6.163662109375,-0.0846399386703968,0.036849739496875554,0.06345064570992254
1761470354543638300,6.17363818359375,-0.06253448984622954,0.05107950477618724,0.06657151767681352
1761470354553615000,6.183614990234375,-0.014694880306720733,0.03065890376642346,0.061230704638129095
1761470354563591200,6.193591064453125,0.06787059017717838,-0.003915675606392324,0.04250453212186694
1761470354573568000,6.203568115234375,0.08909574903547764,-0.042182369229104365,0.04059421412167139
1761470354583544300,6.21354443359375,0.040294600987434384,-0.04682051389114931,-0.0017212160357274115
1761470354593520000,6.22352001953125,0.018429975181818006,-0.023290621754433957,-0.0775616708472371
1761470354603497200,6.233497314453125,0.030680384945869443,-0.013251841891556978,-0.0965356532452628
1761470354613473300,6.243473388671875,0.057007835379242894,-0.015665625035017727,-0.03880642652260139
1761470354623450400,6.253450439453125,0.10982874046266078,-0.031671423543523994,0.00843113917026203
1761470354633426200,6.26342626953125,0.1303495504438877,-0.0659011350014247,-0.0015596368324244394
1761470354643402500,6.273402587890625,0.13818039020001888,-0.058404294706322246,-0.04501337313763797
1761470354653378800,6.28337890625,0.14692892932295798,-0.07489904577555134,-0.049331113039166666
1761470354663354600,6.293354736328125,0.10197276626527309,-0.062323276514653116,-0.030608488753437996
1761470354673331700,6.303331787109375,0.044888358518481254,-0.018083572896942495,-0.042273230416909786
1761470354683307500,6.3133076171875,-0.07387655259370804,0.02217241311315447,-0.06526885128014255
1761470354693284900,6.323284912109375,-0.21332477077245712,0.08271832295805215,-0.0712584196842974
1761470354703260700,6.3332607421875,-0.24191432091891765,0.11798044620361178,-0.06044679228540044
1761470354713237800,6.34323779296875,-0.17534370742440222,0.0962142758037895,-0.05067496539617423
1761470354723213600,6.353213623046875,-0.08154255717694758,0.039917767031677064,-0.08030888719614594
1761470354733190700,6.363190673828125,0.03949965121746063,0.04520306875715032,-0.04789271883307956
1761470354743166700,6.373166748046875,0.12793079886436462,0.027541721593961118,0.06685918464493006
1761470354753142500,6.383142578125,0.09966098219156265,0.012808262842521071,0.12292374782469123
1761470354763119600,6.39311962890625,0.04745908578932285,0.06140725764827802,0.047487348336004646
1761470354773095700,6.403095703125,0.00948269861638546,0.05028181505985558,-0.04238097880743444
1761470354783072800,6.41307275390625,0.003237666746973991,0.006852733705285936,-0.09083173338207416
1761470354793048600,6.423048583984375,0.01794014583826065,0.008257157143112271,-0.07952219379786402
1761470354803025700,6.433025634765625,0.043996378114819525,0.022798289926536378,-0.008539517748448997
1761470354813001700,6.443001708984375,-0.03828676829636097,0.009183496474102139,-0.023792351598339152
1761470354822978800,6.452978759765625,-0.06881576207280159,0.03275503579545766,-0.01113299570721574
1761470354832954600,6.46295458984375,-0.1375391696870327,0.04459735794896259,0.0003598919541109353
1761470354842931700,6.472931640625,-0.1664864472299814,0.04551361427735537,-0.06670834603135008
1761470354852907800,6.48290771484375,-0.15429273608922958,0.05077794628003612,-0.13376523150573483
1761470354862883600,6.492883544921875,-0.08104629809260368,0.02997758870506659,-0.15245920051913708
1761470354872860700,6.502860595703125,0.018100304836034774,-0.042112409265432506,-0.09502073690397664
1761470354882836500,6.51283642578125,0.15094517922699452,-0.0704661048294045,-0.057660846794722595
1761470354892813600,6.5228134765625,0.21888182037770748,-0.07602562038637697,-0.006781549898907542
1761470354902789600,6.53278955078125,0.1761030013591051,-0.031052031269855795,0.020885405509918926
1761470354912766700,6.5427666015625,0.042940147060155864,0.056782228196132926,-0.03551857309150509
1761470354922742500,6.552742431640625,-0.08694295491576194,0.12799803714798763,-0.10204586803410201
1761470354932719600,6.5627197265625,-0.10969546947181225,0.1403472676440142,-0.1434304379490204
1761470354942695700,6.57269580078125,-0.05359072041213512,0.08901336798164992,-0.12108793809912166
1761470354952671700,6.582671630859375,0.059091655915975566,0.03819309866353869,-0.09743028226373716
1761470354962648600,6.592648681640625,0.14905074378252028,-0.002519124947767705,-0.04376466998448595
1761470354972624600,6.602624755859375,0.1830699177622795,-0.01828141529029235,0.0027462299682199953
1761470354982601700,6.612601806640625,0.14302783023118973,0.003027275399304926,-0.0019902879012282937
1761470354992577500,6.62257763671875,0.04327741619050503,0.020705829425621776,0.002370186030329205
1761470355002554600,6.6325546875,-0.06307458807229996,0.05505675611039623,-0.0487971979587106
1761470355012530700,6.64253076171875,-0.14506079736351965,0.04789161372138187,-0.11168020441508851
1761470355022507800,6.6525078125,-0.15659458329081535,0.03751322664059698,-0.12598183848736808
1761470355032483600,6.662483642578125,-0.08942483485937118,0.016114409982133655,-0.09005896804444491
1761470355042459600,6.672459716796875,-0.02404781506359577,-0.009167659584153443,-0.022362693254556507
1761470355052436500,6.6824365234375,0.05211188003122806,-0.01698110981406644,0.016786290494864804
1761470355062412800,6.692412841796875,0.08158756536245346,-0.01618396808700636,0.028164566200040278
1761470355072389600,6.7023896484375,0.00017944822013378142,0.0023700718658976254,-0.00709157482930459
1761470355082365700,6.71236572265625,-0.08827098864912986,0.056127033956721424,-0.03712983051331248
1761470355092342500,6.722342529296875,-0.09382745373249053,0.07195953999124467,-0.04962635595896281
1761470355102318800,6.73231884765625,-0.012895137408375739,0.030690303551685064,-0.02817358062355779
1761470355112295700,6.742295654296875,0.07148994971811772,0.0070301726314239196,0.03855240152918268
1761470355122271500,6.752271484375,0.1145855796009302,-0.0011094590792432427,0.07955327392271719
1761470355132247800,6.762247802734375,0.11414660366177558,0.005832322882674634,0.11351121010137721
1761470355142224600,6.772224609375,0.021679916888475415,0.03889004968544468,0.05702629348454065
1761470355152200700,6.78220068359375,-0.029645196679234504,0.05244818104719743,-0.07395349028743803
1761470355162177500,6.792177490234375,-0.12334113298654556,0.05472480247598141,-0.11021731965513899
1761470355172153600,6.802153564453125,-0.1667839688718319,0.07081367615805939,-0.13298599989470095
1761470355182130700,6.812130615234375,-0.10803542730510234,0.04589342564148828,-0.10989453570786863
1761470355192106800,6.822106689453125,0.005935819789767265,-0.006172624220326542,-0.05415213085429277
1761470355202083600,6.83208349609375,0.06440437537133693,-0.039643187873996795,-0.020682503348961472
1761470355212059600,6.8420595703125,0.05510112497508526,-0.06137357457438483,-0.06652866034919862
1761470355222035700,6.85203564453125,0.03323474560379982,-0.02099483896745369,-0.11527460304470732
1761470355232012800,6.8620126953125,-0.007783493483066559,-0.0036115598269738257,-0.11742186247278004
1761470355241988600,6.871988525390625,0.0032779987573623654,-0.013640530681889503,-0.07230067244595847
1761470355251965700,6.881965576171875,0.05371230096518993,-0.006534278873261064,-0.026217395921330898
1761470355261941800,6.891941650390625,0.11239771416783333,-0.043082076281495386,-0.016833244042284784
1761470355271918600,6.901918701171875,0.17678981457948684,-0.043046986701805144,0.042575104006892066
1761470355281894700,6.911894775390625,0.1762508853971958,-0.03595589592969045,0.06450892715777735
1761470355291871500,6.92187158203125,0.029956162324547765,-0.03164455380290746,0.0030534510201774535
1761470355301847800,6.931847900390625,-0.0870411545932293,0.023308413139451294,-0.03272989678762387
1761470355311823600,6.94182373046875,-0.1757932047575712,0.05318652352541685,-0.009648798731178977
1761470355321800700,6.95180078125,-0.18841010974645614,0.05475457655973732,0.014296542338631115
1761470355331776500,6.961776611328125,-0.13415420342385767,0.0358762365559116,0.06879870590672363
1761470355341753600,6.971753662109375,-0.06134557232260704,0.025429369082488117,0.11356523271040059
1761470355351729700,6.981729736328125,-0.007682371196150779,-0.004727795706875622,0.06481764148049987
1761470355361706800,6.991706787109375,0.018007365855574605,-0.03288467179080471,0.01722490567441564
1761470355371682600,7.0016826171875,0.04925239894688129,-0.02900437802504748,-0.015061434897058643
1761470355381659600,7.01165966796875,0.06419862366616726,-0.02345724702561274,-0.007048829382832627
1761470355391635700,7.0216357421875,0.045181788507103915,0.002134820071607828,-0.0038962699363124555
1761470355401612800,7.03161279296875,0.021380641680955884,0.021887002034205943,-0.040040297432802616
1761470355411588600,7.041588623046875,-0.015740005445480345,0.045123592046462,-0.0649887876631692
1761470355421564700,7.051564697265625,-0.00871931302845478,0.03439060110803693,-0.10947683088560588
1761470355431541800,7.061541748046875,0.027638533031940457,0.03306017448818311,-0.07802864903816953
1761470355441517600,7.071517578125,0.08466682667732238,0.015907635363657028,-0.031223524512397124
1761470355451494700,7.08149462890625,0.13886954150795935,0.004526172187551856,0.014948371010599657
1761470355461470700,7.091470703125,0.12679273474514483,-0.002482482731807977,0.008409920569008682
1761470355471447800,7.10144775390625,0.036598084557056425,0.010671689205244183,-0.015591146443143952
1761470355481423600,7.111423583984375,-0.06244681156277656,0.03500546333706006,-0.019909795093548018
1761470355491400700,7.121400634765625,-0.11227496457099914,0.042967674387898294,-0.02944103185966378
1761470355501376500,7.13137646484375,-0.0844569833189249,0.03331025852542371,-0.016404771230835467
1761470355511352600,7.1413525390625,-0.04781330605447292,-0.00810525451702997,0.023399772084178403
1761470355521329700,7.15132958984375,-0.0017407061874866485,-0.02814480205364525,0.007342610997904557
1761470355531305500,7.161305419921875,0.0380500369310379,-0.010662592583335935,-0.02382442038716981
1761470355541282600,7.171282470703125,0.04926993460357189,0.006278495747596025,-0.03890899184793234
1761470355551258600,7.181258544921875,0.02756955944895744,0.02207554687624797,-0.054108725537406276
1761470355561235700,7.191235595703125,0.00047872342765331263,0.0357797173788771,-0.06863288435314316
1761470355571211500,7.20121142578125,-0.05595101980268955,0.05036693606004119,-0.06152075079299975
1761470355581188600,7.211188720703125,-0.050745267853140825,0.03709297366822138,-0.07913313968135044
1761470355591164700,7.22116455078125,-0.025631284862756728,0.027576957304123788,-0.06410720535593573
1761470355601140700,7.231140625,0.005920622220635414,0.03537930161813274,-0.04968950715593528
1761470355611117600,7.24111767578125,0.024005729487538336,0.017208105236664415,-0.038815198917523955
1761470355621093600,7.25109375,0.026385318100452422,-0.00523868610477075,-0.07254728588447906
1761470355631070700,7.26107080078125,0.02173427742421627,0.0002941423746757209,-0.09017289501400665
1761470355641046300,7.27104638671875,-0.0008633388310670852,0.015506635081022978,-0.05930939031988382
1761470355651023400,7.2810234375,-0.04936345810592174,0.03976283219829201,-0.035329135483608116
1761470355660999400,7.29099951171875,-0.07318447867631912,0.056171220158319914,0.013314289835630915
1761470355670976500,7.3009765625,-0.05121814606189728,0.06428679513996467,0.042644351584510874
1761470355680952300,7.310952392578125,0.02941840218603611,0.0735543714346364,0.02103419373030774
1761470355690928400,7.320928466796875,0.059165305674076074,0.06186599773382768,-0.06086052875202149
1761470355700905200,7.3309052734375,0.016931261056661605,0.025018742454983294,-0.07409074790023733
1761470355710881500,7.340881591796875,0.019290975925326345,0.0261364031069912,-0.03120496137582231
1761470355720858400,7.3508583984375,0.006693360158801079,0.03092487949253991,-0.02274153193773236
1761470355730834400,7.36083447265625,0.03301613441705704,0.014537753516249358,-0.007871251681621652
1761470355740811300,7.370811279296875,0.06250292566418647,-0.013011877389531582,-0.006344236193876713
1761470355750787600,7.38078759765625,0.13077566690146922,-0.02381314779119566,-0.02448964283025125
1761470355760764400,7.390764404296875,0.15448621283471584,-0.031352566852699965,-0.04163644405044615
1761470355770740500,7.400740478515625,0.1380921273946762,-0.043448370576929296,-0.028408444258780217
1761470355780716500,7.410716552734375,-0.009849193841218948,-0.024888521937746554,-0.054025193706108254
1761470355790693600,7.420693603515625,-0.13747604132294655,0.016436353679187596,-0.12867273980546742
1761470355800669400,7.43066943359375,-0.177000242459774,0.03889236950669438,-0.11951989419795572
1761470355810646300,7.440646240234375,-0.11253683037757872,0.015191376853082328,-0.07864853450218215
1761470355820622300,7.450622314453125,0.016282441759109496,0.003033814737945795,-0.023995194393792187
1761470355830599400,7.460599365234375,0.08796762178838252,-0.03397053079875186,0.022444667883007786
1761470355840575500,7.470575439453125,0.11778057624995708,-0.02566275771325454,0.04456576636745594
1761470355850552300,7.48055224609375,0.04794365443587303,0.010925134243350475,0.018805707450810585
1761470355860528400,7.4905283203125,-0.029842180556058882,0.03902551263337955,-0.004740224788541672
1761470355870505200,7.500505126953125,-0.0587286678224802,0.07204460619250312,-0.04609572958082426
1761470355880481500,7.5104814453125,-0.06144084939062595,0.0595198912654072,-0.04922134622149169
1761470355890457300,7.520457275390625,0.009491466444730758,0.03181187319383025,-0.013020986569527304
1761470355900434400,7.530434326171875,0.09751870946586132,0.01369255313007161,0.05009343918117229
1761470355910410500,7.540410400390625,0.12422083843052387,-0.015369382034800946,0.0629244161790004
1761470355920387600,7.5503876953125,0.04093348341286182,-0.002211721232719719,0.061150392243801616
1761470355930363400,7.56036328125,-0.0757476071625948,0.05230338401533663,-0.010161979267571586
1761470355940340500,7.570340576171875,-0.14173720589876174,0.06151024309871718,-0.06809770889736246
1761470355950316500,7.580316650390625,-0.17843232108950613,0.056872920420579606,-0.024546311770798638
1761470355960293400,7.59029345703125,-0.14287234740853308,0.03161229550112039,-0.00971664665286662
1761470355970269400,7.60026953125,-0.04804419220089912,-0.012870167363900691,0.05336490773304831
1761470355980245200,7.610245361328125,0.05832651676237583,-0.014893453352432697,0.07964792080307379
1761470355990222300,7.620222412109375,0.12535714898407457,-0.03072486340841278,0.10367942405268549
1761470356000198400,7.630198486328125,0.042295419415831564,-0.0045556540103629225,0.07870786347398534
1761470356010175500,7.640175537109375,-0.06517828235328198,0.053784215423930436,-0.006552662771678297
1761470356020151300,7.6501513671875,-0.10758242284059524,0.06542535244952886,-0.09682475411863997
1761470356030128400,7.66012841796875,-0.06783376529812812,0.03412060679392889,-0.09219704865221864
1761470356040104400,7.6701044921875,0.03582826922833919,-0.0031716705723665653,-0.05006618584806565
1761470356050081500,7.68008154296875,0.08817629610300064,-0.05062376036532223,-0.0469941442918498
1761470356060057300,7.690057373046875,0.07843173168003559,-0.05881484826859086,-0.045226248703338204
1761470356070033400,7.700033447265625,0.06166355223059654,-0.05006565155852586,-0.026057049693888983
1761470356080010500,7.710010498046875,0.011827800437808036,-0.022677403493225574,-0.04474911901114974
1761470356089986300,7.719986328125,0.008980594313144684,0.022077848431188613,-0.024177985348482613
1761470356099963400,7.72996337890625,0.01810147387981415,0.015065521983709185,-0.009178711842774646
1761470356109939500,7.739939453125,0.010312135177850722,0.003454652232211083,-0.018026583154342368
1761470356119916500,7.74991650390625,0.03590834872722626,0.017565485573280602,-0.0386294853533851
1761470356129892400,7.759892333984375,0.0694686730235815,0.008350223987735807,-0.01813801448942977
1761470356139869400,7.769869384765625,0.14614099381566048,-0.003953906991239637,0.10832990760649554
1761470356149845200,7.77984521484375,0.041591655060648915,0.05224427423924207,0.07812275706240907
1761470356159821600,7.789821533203125,-0.05535480747520923,0.12011451735654845,0.016201782304910012
1761470356169798400,7.79979833984375,-0.14155834220051763,0.10171648994926363,-0.036444346166914325
1761470356179774200,7.809774169921875,-0.1662947240501642,0.056971923815645274,-0.08289008106207475
1761470356189751300,7.819751220703125,-0.1789309182614088,0.04898770186239853,-0.12640607351511715
1761470356199727400,7.829727294921875,-0.09549801729321479,0.0217675586393103,-0.11561989108473061
1761470356209704400,7.839704345703125,0.026707974183559417,-0.02002051404258236,-0.11652139736856333
1761470356219680300,7.84968017578125,0.13622516447901725,-0.0442207066562958,-0.054475869216211135
1761470356229657300,7.8596572265625,0.14117138870954513,-0.06241732973996549,-0.009971326950122601
1761470356239633400,7.86963330078125,0.14494681559503078,-0.03830118041420355,-0.012458449324429965
1761470356249609500,7.879609375,0.14754969156980513,-0.02904379671998322,0.00029502372408751396
1761470356259586300,7.88958642578125,0.10048106640279292,-0.009114413293264807,0.008221795852074864
1761470356269562400,7.899562255859375,-0.017839608073234557,0.04239526306111365,-0.04029173317691311
1761470356279539500,7.90953955078125,-0.12497136453688144,0.07428295970382169,-0.07935945925051346
1761470356289515500,7.919515625,-0.1481874049514532,0.06892886705845594,-0.06759349026884884
1761470356299492400,7.929492431640625,-0.07086158868670463,0.05450564329996705,-0.021910300711402667
1761470356309468400,7.939468505859375,0.05556640439927578,0.0019022899573668836,0.04366152013726532
1761470356319445200,7.9494453125,0.12395605001449585,-0.03216355444202199,0.10532181183169595
1761470356329421600,7.959421630859375,0.10736848782896995,-0.020882281971070914,0.0723244551803451
1761470356339398400,7.9693984375,-0.003651508244872093,-0.0019037329957820473,-0.03421825391554739
1761470356349374200,7.979374267578125,-0.1548100379616022,0.031394615896139295,-0.08847927023810334
1761470356359350500,7.9893505859375,-0.23493279146850107,0.04606918406719342,-0.11208020918387919
1761470356369327400,7.999327392578125,-0.20420213764011858,0.02539252593712881,-0.09362153763053938
1761470356379303400,8.009303466796876,-0.11048223593533038,0.005215433093346655,-0.06792288661999628
1761470356389280300,8.0192802734375,-0.01989829416871071,-0.0016723353927023707,-0.03884194536055438
1761470356399256600,8.029256591796875,0.013521744874119758,-0.012422624525800346,-0.025095842262206132
1761470356409233400,8.0392333984375,-0.058286184751987456,-0.007053224713448434,-0.019777604098222216
1761470356419209500,8.04920947265625,-0.1962719291627407,0.06897460589632391,-0.06175154104130342
1761470356429185300,8.059185302734376,-0.25768238341510297,0.09768493287824094,-0.09729028927115722
1761470356439162400,8.069162353515624,-0.19192600891292094,0.05643460206855088,-0.10538127780081703
1761470356449138400,8.079138427734375,-0.10270049601793288,0.033973563006054606,-0.09409627900281921
1761470356459115500,8.089115478515625,-0.03834405144155025,0.045044480661954725,-0.019331111572892405
1761470356469091300,8.09909130859375,-0.009316109877824783,0.04886307083573192,0.035814829791453666
1761470356479068400,8.109068359375,0.055199909174442285,0.05535575732327997,0.0759609576523304
1761470356489044500,8.11904443359375,0.1466968741327524,0.03614429464126005,0.06796005855891853
1761470356499021300,8.129021240234374,0.2066682354927063,0.0013325637780129908,0.04792307287214789
1761470356508997400,8.138997314453125,0.2369219194591045,-0.027066980221681296,-0.02547093406873755
1761470356518973400,8.148973388671875,0.23338673107028007,-0.0288553249431774,-0.017297993743512777
1761470356528950500,8.158950439453125,0.15310381856560706,0.0055312941094860435,0.020589870329177938
1761470356538926300,8.16892626953125,0.12389175260663032,0.05140566799063235,0.05932699904181063
1761470356548903400,8.1789033203125,0.11565993083417415,0.06935176864564419,0.07371440713482443
1761470356558879500,8.18887939453125,0.11176818409264087,0.04715981058180332,0.029361319970246404
1761470356568856600,8.198856689453125,0.08573124103844165,-0.004144552458822727,-0.057570127170812335
1761470356578832400,8.208832275390625,0.09412672894001006,-0.024366489091329276,-0.08520179207054898
1761470356588809500,8.2188095703125,0.028589550146460533,-0.05048237913325428,-0.03055639324001968
1761470356598785300,8.228785400390626,-0.052069209933280944,-0.012303601256012917,-0.024406510574463754
1761470356608762600,8.2387626953125,-0.0486509259223938,-0.012995784771256147,-0.05384259454766288
1761470356618738400,8.248738525390625,-0.034328970581293104,-0.03149652363434434,-0.05174274532473646
1761470356628714200,8.25871435546875,-0.04216448651254177,-0.04218267975635826,-0.054685584710445254
1761470356638691600,8.268691650390625,-0.07756430119574069,-0.022561558561213314,-0.0765921682279557
1761470356648668000,8.27866796875,-0.1306757136583328,-0.0023748393725603815,-0.09436087562260217
1761470356658644700,8.288644775390624,-0.14222002097964287,0.014232742687687277,-0.08597509626429528
1761470356668620800,8.298620849609375,-0.09227963976860046,-0.014010368641279638,-0.03137495221444406
1761470356678597600,8.30859765625,-0.028868951609730718,0.007962393713928758,0.014319735984550788
1761470356688574000,8.318573974609375,0.03188157742917538,0.027403993623703715,0.03163895061260555
1761470356698550800,8.32855078125,0.09118775287866591,0.056200026127696034,0.010919033296126871
1761470356708526800,8.33852685546875,0.24737375536859035,0.02035155436154455,0.002631618012068793
1761470356718503700,8.348503662109374,0.22780220893621445,0.0013410758780315517,-0.034060200109891595
1761470356728479700,8.358479736328125,0.18224515737593172,0.001490859612263739,-0.07562099424139596
1761470356738455800,8.368455810546875,0.08973638502657413,0.017925277062691748,-0.0750232247110689
1761470356748433000,8.378432861328125,-0.02102232976257801,0.043346974295377726,-0.09648249828591943
1761470356758408700,8.38840869140625,-0.10965630650520324,0.03210913910735398,-0.1275125551859848
1761470356768385800,8.3983857421875,-0.16361995188295841,0.019225217212736605,-0.14987457258710637
1761470356778361900,8.40836181640625,-0.12200608499050139,-0.013778532646782695,-0.1275163911108859
1761470356788338700,8.418338623046875,-0.03267418911159038,-0.05616301858555525,-0.06500156037977431
1761470356798314800,8.428314697265625,-0.009790157130360603,-0.06853807764258235,-0.01234782855680678
1761470356808291600,8.43829150390625,-0.02252864267230034,-0.02469393094740808,0.012062531642289832
1761470356818268000,8.448267822265626,-0.05667348885834217,0.01441862064860761,0.008982672105799429
1761470356828244700,8.45824462890625,-0.05640694687664508,0.035242030305601656,0.04684405916351825
1761470356838220800,8.468220703125,-0.005415595307946205,0.03803845609109849,0.04894741551778279
1761470356848196900,8.47819677734375,0.046775195178389545,0.00971533832848072,0.07998710789587349
1761470356858174000,8.488174072265625,0.12546470101177692,-0.002277297282218933,0.11494972760505043
1761470356868149800,8.498149658203126,0.21466332589983939,-0.026183475385420023,0.07656802930054254
1761470356878126800,8.508126953125,0.20697101783156394,-0.02785140859764069,0.0530455395855708
1761470356888102700,8.5181025390625,0.13903613024652003,0.02493522888999432,0.04233731776222121
1761470356898080000,8.528080078125,0.01814414397776127,0.06876063435208052,0.02166413479745388
1761470356908055800,8.538055908203125,-0.07718260840177535,0.08431501756496727,0.05102757365955039
1761470356918033000,8.548032958984376,-0.11223872421383857,0.08917590159960091,0.01899149522182997
1761470356928008700,8.5580087890625,-0.04841711716651916,0.06283157309666276,-0.028430235965480093
1761470356937984800,8.56798486328125,-0.014229600882530212,0.0016095540884882211,-0.04690192226401996
1761470356947961900,8.5779619140625,0.0020154314756393433,-0.035382790483161806,-0.09409512822534888
1761470356957937700,8.587937744140625,0.007936638218164444,-0.030518983839079736,-0.10852419720273464
1761470356967914800,8.597914794921875,0.0399105701059103,-0.02429503129031509,-0.09195919390888885
1761470356977890800,8.607890869140626,0.045857495811581606,-0.0011136968629434703,-0.007915842025307937
1761470356987868000,8.617867919921874,-0.016292963153123854,0.03024140900671482,0.053633710170490664
1761470356997843700,8.62784375,-0.06215162800848484,0.08355966915301978,0.038926865431340406
1761470357007820800,8.63782080078125,-0.11313128913938998,0.06251498142816125,0.010614346694550476
1761470357017796900,8.647796875,-0.1342231770068407,0.046270752787590026,-0.04071216881237924
1761470357027772700,8.657772705078125,-0.11793722811639308,0.0302304857539013,-0.09328755643581971
1761470357037749800,8.667749755859376,-0.0681482380747795,0.027153982651699334,-0.08516558824600651
1761470357047725600,8.6777255859375,-0.010886720195412635,-0.0010445406168699263,-0.034521643609181044
1761470357057702700,8.68770263671875,0.07944237002730369,-0.024303178064152598,-0.011307977814786135
1761470357067678700,8.6976787109375,0.11099603067636489,-0.043930473271757364,-0.0005070042406441643
1761470357077655800,8.70765576171875,0.09020634062588215,-0.06482892092633992,0.013352763249073177
1761470357087631600,8.717631591796875,0.05880933184325695,-0.007990048905834555,0.0017974870091769842
1761470357097608700,8.727608642578126,0.06078735391795635,0.024562669250555336,0.0076398198292125016
1761470357107584800,8.737584716796874,0.032391865038871766,0.0008045761148445308,-0.005788369576516561
1761470357117561900,8.747561767578125,0.04964461313486099,0.011454674542788415,-0.003476306941593066
1761470357127537700,8.75753759765625,0.042214170873165126,0.003204896988533437,-0.021452190813515334
1761470357137514000,8.767513916015625,-0.02730827816426754,0.006166103147994727,-0.011418283488578162
1761470357147490800,8.77749072265625,-0.11136252590119838,0.056179239067994054,-0.00185242750023026
1761470357157467000,8.787466796875,-0.149062434220314,0.11079771335897967,-0.00507344450650271
1761470357167443700,8.797443603515624,-0.0928308439105749,0.08551827414119616,0.033471924493694676
1761470357177419800,8.807419677734375,-0.030779169145226475,0.07784878069292754,0.023926380641013382
1761470357187396900,8.81739697265625,0.034416064342856406,0.06770027511157095,-0.03504719272009097
1761470357197372700,8.82737255859375,0.06206745685636997,0.03682369174016639,-0.07313453402079176
1761470357207349800,8.837349853515626,0.07628361373543739,0.003931512496341019,-0.10249337433958426
1761470357217325600,8.84732568359375,0.09666413846313952,-0.03635326121682301,-0.0762075802240055
1761470357227302000,8.857302001953125,0.09581599720120429,-0.04423137418078259,-0.017513499657716602
1761470357237278700,8.86727880859375,0.10846563541591167,-0.03225097699714825,-0.009585642967629246
1761470357247254800,8.8772548828125,0.08716390419006347,-0.04133110442832112,-0.054414316321280784
1761470357257231600,8.887231689453126,-0.025267712247371673,-0.0657084071746096,-0.11069132124190217
1761470357267208000,8.8972080078125,-0.0934282252818346,-0.055293103883229194,-0.13953122028708456
1761470357277184800,8.907184814453124,-0.11687865897417067,-0.05085576075660064,-0.12711228555571288
1761470357287160800,8.917160888671875,-0.09366904830038547,-0.056960434307251125,-0.021682487871474584
1761470357297137700,8.9271376953125,-0.09427928915321826,-0.029109244905319062,0.032927805396344045
1761470357307114000,8.937114013671875,-0.023383213675022125,-0.010591920233611017,0.03274764707344584
1761470357317090800,8.9470908203125,0.06099193657934665,0.0006019479485228657,0.014731221128581091
1761470357327066600,8.957066650390624,0.10872399409115314,0.004110960716474801,0.007166411897493526
1761470357337042700,8.967042724609374,0.028988778597116467,0.012511508385650813,0.006652288362896069
1761470357347019800,8.977019775390625,-0.06436521240472794,0.03960258186897263,0.00821614014613442
1761470357356995800,8.986995849609375,-0.10356909554600716,0.03793161644944921,-0.027375388583727178
1761470357366972700,8.99697265625,-0.07891103962957859,-0.006814995510783046,-0.03192917486398946
1761470357376948700,9.00694873046875,-0.005028641816973686,-0.03770345198307186,-0.03801046297247521
1761470357386925800,9.01692578125,0.09102525579333305,-0.04318000196432695,-0.034994110825983804
1761470357396902000,9.02690185546875,0.13264905955791473,-0.05937224468933418,-0.061950264784065075
1761470357406878700,9.036878662109375,0.02615793908536434,-0.021438418016489595,-0.09953562051253392
1761470357416854800,9.046854736328125,-0.1066688151270151,0.04618194199297577,-0.07746098695173859
1761470357426831600,9.05683154296875,-0.14361410568654537,0.1129265055486001,-0.031415896146185694
1761470357436808000,9.066807861328124,-0.11834756248295307,0.09799812701325863,0.014400610067881642
1761470357446783700,9.07678369140625,-0.06886544643342495,0.09012920200275257,0.04379975499759894
1761470357456760800,9.0867607421875,0.006052724167704582,0.05150903703356161,0.038490469608339475
1761470357466737000,9.09673681640625,0.06662088237702846,0.0033003567196428774,0.02421388777892571
1761470357476714000,9.1067138671875,0.07033902611732483,-0.02760581807242706,-0.03574880621738266
1761470357486689800,9.116689697265626,0.018846154767274855,-0.0496760494527407,-0.09094854642846621
1761470357496666600,9.12666650390625,-0.04551671954989433,-0.01603599271737039,-0.1438178663640283
1761470357506643000,9.136642822265625,-0.07249123571515083,-0.0005224529715254902,-0.08441714449888095
1761470357516619800,9.146619873046875,-0.07705693619549274,0.02553980718702078,-0.051106712443521246
1761470357526595800,9.156595947265625,-0.02059270617365837,0.009058737583272159,-0.021206997580523603
1761470357536571600,9.166571533203125,0.08256371691823006,-0.038984943160973486,0.007355874621565453
1761470357546548700,9.176548828125,0.15028466949164868,-0.09666262235948815,0.027651830904930827
1761470357556524800,9.18652490234375,0.10582476551830768,-0.07643838417204096,0.017902804935979656
1761470357566502000,9.196501953125,0.01978840405344963,-0.014946571779157966,-0.018058858580794184
1761470357576477700,9.206477783203125,-0.12088321844041347,0.031726532997936006,-0.05263836072389967
1761470357586454800,9.216454833984375,-0.16837854458689688,0.10180109949279575,-0.04693797082493547
1761470357596430800,9.226430908203126,-0.09485036703944205,0.09487696278542279,-0.012045685538765973
1761470357606408000,9.236407958984374,0.03912380364239216,0.05675970583707094,0.06310196013641543
1761470357616383700,9.2463837890625,0.1943850925028324,0.002371770632639527,0.07322208900665864
1761470357626359800,9.25635986328125,0.25828327191770073,-0.03797631410770118,0.06416176682107616
1761470357636336600,9.266336669921875,0.17049802095890043,-0.03849409090410918,-0.013924836649140342
1761470357646312700,9.276312744140625,0.08394669570922851,0.0008523425130173563,-0.13211882513873277
1761470357656289500,9.28628955078125,-0.0018359832555055618,0.014327289103344082,-0.1280569459946826
1761470357666265600,9.296265625,-0.043780689537525175,0.05235557086030021,-0.058492557511664926
1761470357676242700,9.30624267578125,-0.03636369127929211,0.06186230793939903,-0.034032033461332316
1761470357686218800,9.31621875,0.01280278294980526,0.06462439306387677,0.011044102714210748
1761470357696195600,9.326195556640625,0.07737842323482036,0.04105117324208841,0.03578444378634449
1761470357706171600,9.336171630859376,0.04769873976409435,0.03832225973485037,0.009581596980174072
1761470357716148700,9.346148681640624,-0.05621171656548977,0.05031666717752814,-0.0030673105821711942
1761470357726124800,9.356124755859375,-0.0941647228628397,0.07558246146244928,-0.06706167581393382
1761470357736100600,9.3661005859375,-0.13903671476840973,0.06616007819855585,-0.09683626189334317
1761470357746077400,9.376077392578125,-0.10642390045523643,0.07015261843344196,-0.06934862684048712
1761470357756053800,9.3860537109375,-0.021154431709647176,0.05988216697284952,-0.02660656876885332
1761470357766030600,9.396030517578126,0.07698971617817878,0.029193635253142565,-0.002050479956134222
1761470357776006700,9.406006591796874,0.11784954983294009,-0.015253464037552475,0.02137882418320514
1761470357785983500,9.4159833984375,0.08497077805995941,-0.005916384436935186,0.0023632676657754925
1761470357795959800,9.425959716796875,0.046132221099734305,0.02825759651204571,-0.04150888128117658
1761470357805936600,9.4359365234375,0.03528583291471004,0.06958745883135124,-0.023972745099966414
1761470357815912700,9.44591259765625,0.0230967979490757,0.09306397681301459,0.00665625671853777
1761470357825888500,9.455888427734376,-0.024275778600573537,0.11655415799384936,0.018885728725837544
1761470357835865900,9.465865966796875,-0.08932312805056572,0.10661916729900986,-0.025544547294219955
1761470357845841700,9.475841552734375,-0.09857961669564247,0.051582887721061704,-0.06712729296262841
1761470357855818800,9.48581884765625,-0.02973112139701843,0.015956406408827752,-0.07514500162694603
1761470357865794600,9.495794677734375,0.04269990856349468,-0.039574305622559036,-0.06386066041607409
1761470357875771600,9.505771728515626,0.1057236432313919,-0.06104554819641635,-0.024394263014243914
1761470357885747700,9.515747802734374,0.15306874725222586,-0.037146731415763495,-0.020288147436245345
1761470357895724500,9.525724609375,0.09195406107604503,-0.0424860466171056,-0.06283364632274024
1761470357905700600,9.53570068359375,-0.08349310672283172,-0.03329239407517016,-0.08967547601903789
1761470357915677400,9.545677490234375,-0.2470008304029703,0.024801519507728517,-0.1369741288159508
1761470357925653800,9.55565380859375,-0.28156302521824833,0.054526941816322505,-0.1381847284484189
1761470357935629600,9.565629638671876,-0.1765735414803028,0.044626090853102506,-0.03565062937280163
1761470357945606700,9.575606689453124,0.004104512709379196,0.004500562822259962,0.08798282849066891
1761470357955582700,9.585582763671875,0.10412848299443721,-0.02570798509446904,0.18580639352146536
1761470357965559800,9.595559814453125,0.017848375901579856,-0.01990317127322778,0.1668060528394766
1761470357975535600,9.60553564453125,0.05145721551477909,0.029816899984329938,0.00928358671455644
1761470357985512700,9.6155126953125,-0.01231996786892414,0.011803341849986463,0.02932967358981259
1761470357995488800,9.62548876953125,-0.03823942202329635,0.04608171475520357,0.03657524253758602
1761470358005465900,9.6354658203125,-0.007597615522146224,0.09094334966354072,0.03957564819627441
1761470358015441700,9.645441650390625,0.01840367169678211,0.09169597639543935,0.06650731160049327
1761470358025417500,9.65541748046875,0.04065934264659881,0.06310752222752199,0.052177693542744964
1761470358035394600,9.66539453125,0.08867664684057235,0.04402934880265966,-0.005830688048014417
1761470358045370600,9.67537060546875,0.05229951155781746,0.02154635363668203,-0.022973299433570352
1761470358055347700,9.68534765625,0.07189151625633239,0.009400646356120704,-0.02773806614996865
1761470358065323500,9.695323486328125,0.12591127573549746,-0.043351997530367226,-0.022906490408210082
1761470358075300600,9.705300537109375,0.14239713111221788,-0.06894594605742022,0.014713813336053863
1761470358085276700,9.715276611328125,0.11490063689947128,-0.06908493440300226,0.0073286806539632375
1761470358095253800,9.725253662109376,0.09687105921208858,-0.04397043995596468,-0.05841494396449998
1761470358105229600,9.7352294921875,0.01602174499630928,-0.03376711718114093,-0.09247804841753095
1761470358115206700,9.74520654296875,-0.058847910287976264,-0.027844485666509718,-0.12217198874247259
1761470358125182700,9.7551826171875,-0.1472077462643385,0.03220633413782343,-0.07807067068214528
1761470358135158500,9.765158447265625,-0.19461013343036174,0.04681505226474255,-0.051515439374884585
1761470358145135600,9.775135498046875,-0.17800795819759369,0.05428889527674764,-0.024218970379419624
1761470358155111400,9.785111328125,-0.13614683854579926,0.05193761944286525,0.011519437741534784
1761470358165088800,9.7950888671875,-0.05315291351675987,0.013957907801680266,0.009064308807533233
1761470358175064600,9.805064697265625,0.02295417460799217,-0.0009338833166286349,-0.027282047744467852
1761470358185041700,9.815041748046875,0.01002864206135273,-0.01617041448568925,-0.04222259164163843
1761470358195017500,9.825017578125,-0.06156009185612201,0.0034303580411709843,-0.04990928281988017
1761470358204994600,9.83499462890625,-0.12958441129028797,0.06308627851009369,-0.0562649628563784
1761470358214970600,9.844970703125,-0.10605623618662356,0.06557690801573916,-0.03335870077703148
1761470358224947700,9.85494775390625,0.0005155483067035675,0.041384460317064074,-0.025506662969244642
1761470358234923500,9.864923583984375,0.13419102830290794,-0.007965243258140981,0.004541835547564551
1761470358244899800,9.87489990234375,0.24472002598941325,-0.058416405269224196,0.004711356028728186
1761470358254876700,9.884876708984375,0.2698620660305023,-0.07689951714407652,-0.004883570790477096
1761470358264852700,9.894852783203126,0.13447335237562655,-0.04053885807208717,-0.03554779918598942
1761470358274829600,9.90482958984375,-0.05447393298745155,0.04630412533422932,-0.03549644345808774
1761470358284805600,9.9148056640625,-0.13449614872932433,0.08396065116934477,-0.07198653759602457
1761470358294782700,9.92478271484375,-0.1048567972689867,0.06343702817652375,-0.0752761719922535
1761470358304758500,9.934758544921875,-0.011789221993088721,0.05029697609636932,-0.028999628784693775
1761470358314735600,9.944735595703126,0.11839257066845893,0.020294691341463476,0.019077753299754113
1761470358324711700,9.954711669921876,0.14968319646716116,-0.021960925786942243,0.026508862281730397
1761470358334687700,9.964687744140624,0.07818214083313942,-0.02607747599398717,0.03586801671683788
1761470358344664600,9.97466455078125,-0.009466916525363921,0.008068612301070243,0.025296728279301895
1761470358354640600,9.984640625,-0.06569616874754429,0.03918101372234523,-0.011131808397127315
1761470358364617500,9.994617431640625,-0.06596738690435885,0.049264162449911233,-0.03829973737578839
1761470358374593800,10.00459375,-0.005630699363350868,0.06272480652024968,-0.00990317991762422
1761470358384570600,10.014570556640624,0.014612462720274924,0.032158385076560075,-0.03973644651486538
1761470358394546700,10.024546630859374,-0.035783261042833324,0.029317389496974645,-0.07517367059900425
1761470358404523500,10.0345234375,-0.13872048842608928,0.03337831879295409,-0.11727096449369565
1761470358414499800,10.044499755859375,-0.16926877142488955,0.03983147698771208,-0.10452414951482787
1761470358424476700,10.0544765625,-0.10707096618711948,0.03800742163201794,-0.08330657117478549
1761470358434452500,10.064452392578126,-0.042348026385903355,-0.008975114420428872,-0.05999153649830259
1761470358444428800,10.0744287109375,0.01788344721496105,-0.010404179109167307,-0.04386375557794235
1761470358454405600,10.084405517578125,0.0543237108618021,-0.015524645661748944,-0.05172207699604332
1761470358464381700,10.094381591796875,0.05215864178240299,-0.026417886929493397,-0.04120449150712229
1761470358474358500,10.104358642578125,0.060466451400518414,-0.021812822553142906,-0.007934382328996435
1761470358484334600,10.11433447265625,0.06983984442353249,-0.010050159773416816,0.019464843788044525
1761470358494311700,10.124311767578124,0.07353986798524856,-0.017661383695807307,0.03663582275155931
1761470358504287700,10.134287841796874,0.11406477059721946,0.023360581718105823,0.03706866121087223
1761470358514264600,10.1442646484375,0.1350116970360279,0.028740868250653147,0.032823370057623834
1761470358524240600,10.15424072265625,0.05376666150093078,0.011726714683510362,-0.0008505067489575594
1761470358534216700,10.164216796875,-0.021649521750211714,0.04988287887014448,-0.029911656462540848
1761470358544193800,10.17419384765625,-0.02838789009451866,0.04971776970261708,-0.008447291154041886
1761470358554169600,10.184169677734374,0.011257891595363617,0.005864179325662553,0.010728652690025046
1761470358564146700,10.194146728515625,0.025926468417048452,-0.02654673747355118,-0.004995945123769343
1761470358574122800,10.204122802734375,0.026992636343836782,-0.007750120936427265,-0.021727354493085292
1761470358584099800,10.214099853515625,-0.025356559574604032,-0.002727927126549184,-0.02547793919825926
1761470358594075600,10.22407568359375,-0.04059679880440235,0.001249305941350758,0.01221256197169423
1761470358604052500,10.234052490234374,-0.04268704908192158,0.021457195782195775,0.04713426514859311
1761470358614028800,10.24402880859375,-0.06573124006092548,0.010907671651896088,0.028286502946121617
1761470358624005600,10.254005615234375,-0.09372223979234695,0.02959054388254881,-0.026477937420504166
1761470358633981700,10.263981689453125,-0.0931494083404541,0.030965722959581762,-0.05657098746509291
1761470358643958300,10.273958251953125,-0.13988953220546244,0.04660358320483938,-0.10044259755592792
1761470358653935400,10.283935302734376,-0.1523912863820791,0.06407795642856508,-0.07638339344863779
1761470358663911400,10.293911376953124,-0.07590192094147205,0.036274789153132585,-0.08658606776949018
1761470358673888500,10.303888427734375,0.020325579670071602,0.0037637729803100227,-0.05586809075959027
1761470358683864300,10.3138642578125,0.1409668060481548,-0.013035386129282414,-0.039326440941868344
1761470358693841400,10.32384130859375,0.20883447361588478,-0.03001607581824064,-0.012209675894863903
1761470358703817500,10.3338173828125,0.15016191989481448,0.002412869828008115,0.00995799711109139
1761470358713794600,10.343794677734374,0.07176701309382916,0.05927696762131527,-0.05655263895764947
1761470358723770400,10.353770263671874,0.07927870389819144,0.05018715904634446,-0.13365742374970577
1761470358733746200,10.36374609375,0.12676058604121207,-0.009395769251603632,-0.1316070488248486
1761470358743723500,10.3737236328125,0.13446166193783282,-0.04484263794692233,-0.07299927656883373
1761470358753699300,10.38369921875,0.03953004635572433,-0.02434862464107573,-0.01732230620086193
1761470358763676400,10.393676513671876,-0.06708148562610149,0.019183058571442962,-0.04589210133408196
1761470358773652200,10.40365234375,-0.15260872852504254,0.03299138356829062,-0.09542513472009449
1761470358783629300,10.41362939453125,-0.20630758548676967,0.005612999309878796,-0.09544200365650467
1761470358793605400,10.42360546875,-0.15082535223960875,0.011103084626141934,-0.10328831497640348
1761470358803582500,10.43358251953125,-0.006181903505325317,0.03092034944789484,0.031410991642205045
1761470358813558300,10.443558349609376,0.02516717448234558,0.010369107795786111,0.10726829712381586
1761470358823535400,10.453535400390624,-0.03283201002180576,-0.002227375459577888,0.06752723836591466
1761470358833511400,10.463511474609374,-0.11434300301671027,0.046500689085945485,0.06835965233575553
1761470358843487500,10.473487548828125,-0.13497078050374983,0.04488839505109936,-0.011674756167409941
1761470358853464300,10.48346435546875,-0.08753390654623508,-0.005615355663746595,-0.04695970316613093
1761470358863440600,10.493440673828125,0.032630934491753576,-0.014671134104952216,-0.046913114944892004
1761470358873417500,10.50341748046875,0.09610007483959197,-0.02482497344855219,-0.050382772949989885
1761470358883393300,10.513393310546874,0.11949030277729034,-0.03643682958073914,-0.08180756478868424
1761470358893370400,10.523370361328125,0.09278992737829685,0.0005438610857352614,-0.04564831917346455
1761470358903346200,10.53334619140625,0.006842997762560844,0.03075845515076071,-0.019379704521549863
1761470358913323500,10.543323486328125,-0.02837619965672493,0.07750643352866173,-0.0032650205447804182
1761470358923299300,10.55329931640625,-0.011839490875601768,0.10577891708258538,-0.000913050591154024
1761470358933276400,10.5632763671875,0.06812719528675079,0.05239102576617151,-0.0333097014029976
1761470358943252200,10.573252197265624,0.14001637345552442,0.011966112929955124,-0.03339321496798657
1761470358953228500,10.583228515625,0.10253799893260002,-0.006782901605777442,-0.09346078497772105
1761470358963205400,10.593205322265625,-0.019175240591168402,0.004800057225488126,-0.13004899659473448
1761470358973181400,10.603181396484375,-0.11469196258485316,0.03171824009362608,-0.11389374314555897
1761470358983158300,10.613158203125,-0.14304010519087315,0.011407857992686331,-0.07683627004898153
1761470358993134600,10.623134521484374,-0.08479425244927406,0.029765863916836676,-0.009447252843668683
1761470359003111400,10.633111328125,0.013246435064077376,0.049087709904462096,0.030959229286713522
1761470359013087500,10.64308740234375,0.06687222678959369,0.012810235603898762,0.04750505752263125
1761470359023064300,10.653064208984375,0.059632923185825346,0.0061440191803500055,0.020023669547471215
1761470359033040400,10.663040283203125,0.05464812051057815,0.04359006233625114,0.0033986796946963295
1761470359043017500,10.673017578125,0.025275895553827286,0.05312321249824017,0.03580542264229152
1761470359052993300,10.6829931640625,-0.029259412232041357,0.050301250412687654,0.06326888223511633
1761470359062969300,10.69296923828125,-0.08758417542874812,0.03913914734199643,0.0661771617640974
1761470359072946400,10.702946533203125,-0.07694178538322448,0.030658794168569144,-0.007895840416895224
1761470359082922500,10.712922607421875,0.041293548896908755,0.02952211828883737,-0.071392923651007
1761470359092899300,10.7228994140625,0.18240823898315428,0.04401606919597834,-0.019559065976715646
1761470359102875400,10.73287548828125,0.287872939017415,0.08454089874271303,0.07617634026894811
1761470359112852200,10.742852294921875,0.36040392222106454,-0.03637183805312961,0.2486304774314165
1761470359122828500,10.75282861328125,0.15096914462447167,-0.11974329115767031,0.08346346050323918
1761470359132805400,10.762805419921875,-0.022473113092780113,-0.09941135481204837,-0.25568585756933315
1761470359142781400,10.772781494140625,-0.0817079768717289,-0.03318528043888509,-0.3357862348476425
1761470359152757500,10.782757568359376,-0.047447979873418804,-0.06526924857236445,-0.17430844609253107
1761470359162734600,10.792734619140624,0.017680618119239808,-0.13071980852838605,-0.13504664048524573
1761470359172710400,10.80271044921875,0.037460838866233824,-0.04414345843531191,-0.21442885955683885
1761470359182687500,10.8126875,0.005108136793971062,0.009625723816268146,-0.13206359695331193
