time,seconds_elapsed,z,y,x
1761476466225912600,0.11891259765625,0.08604103763997555,0.008474215693585575,-0.22618684616144746
1761476466235945500,0.128945556640625,0.037380759367346764,0.011347761835902928,-0.23378296384625136
1761476466245978600,0.138978515625,-0.03688333123922348,-0.01148318825121969,-0.21525986702088265
1761476466256012500,0.149012451171875,-0.06177227330207825,-0.012151296771131454,-0.1862616995409131
1761476466266045700,0.159045654296875,0.010597966381907463,-0.012935286755673587,-0.18041173140369354
1761476466276078300,0.169078369140625,0.06966214976906776,-0.007466171162202954,-0.16768510069632903
1761476466286111500,0.179111572265625,0.07877893768250942,0.00698594989720732,-0.1573479406750761
1761476466296144400,0.189144287109375,0.054396191576123236,0.02905636394061148,-0.11708710495992564
1761476466306177500,0.199177490234375,0.052613399812579155,0.06508486844878643,-0.088707197242463
1761476466316211500,0.20921142578125,0.037038229539990426,0.06595730390176177,-0.07533609461910092
1761476466326244600,0.21924462890625,0.05497369920313358,0.07723729773107915,-0.06319599509541876
1761476466336277500,0.229277587890625,0.045400984215736385,0.07790467559862882,-0.03526212324555963
1761476466346310700,0.239310546875,0.03409340825974941,0.08346654750946908,-0.025206026921700684
1761476466356343600,0.249343505859375,0.07312485744357108,0.08235485994052141,-0.03762528131348081
1761476466366377500,0.25937744140625,0.08363748362958431,0.07334401661958545,-0.0490570042389445
1761476466376410400,0.269410400390625,0.1213917524844408,0.05477521748896688,-0.04798306399765424
1761476466386443500,0.279443603515625,0.11362930178940296,0.042731143951974804,-0.039586041726125405
1761476466396476400,0.289476318359375,0.12141104170680045,0.036710203162021934,-0.02178380652121268
1761476466406509600,0.299509521484375,0.1093050088495016,0.04114690696783364,0.002043716855207458
1761476466416542500,0.30954248046875,0.11800035648047923,0.037450061743892725,0.03457436931026168
1761476466426576600,0.31957666015625,0.07719722144901751,0.027727416891790924,0.06363132690591737
1761476466436609500,0.329609619140625,0.050049102282524106,0.014812551869638263,0.080036499995552
1761476466446642700,0.339642578125,0.035783261042833324,0.0022236673988401887,0.07368315804661252
1761476466456675600,0.349675537109375,-0.0007616320222616196,-0.004690934295207262,0.06389742136304266
1761476466466708700,0.359708740234375,-0.013377952489256857,-0.01978847711868584,0.06126201309184543
1761476466476742400,0.369742431640625,-0.0071843585461378095,-0.05820427862219512,0.06746324235214851
1761476466486775600,0.379775634765625,-0.005527238988876342,-0.07544135422501713,0.09604534897767007
1761476466496808400,0.389808349609375,-0.023202011889219283,-0.05341196631174534,0.11773200613418593
1761476466506841600,0.399841552734375,-0.016207038435339927,-0.053983920980803665,0.08135037733940408
1761476466516874500,0.40987451171875,0.00916764131784439,-0.059815878537297244,0.08147385758860036
1761476466526907400,0.419907470703125,0.0009983633875846863,-0.061761569244973356,0.11193720225030555
1761476466536941600,0.429941650390625,-0.023197920235991477,-0.07132336097955704,0.12912057490451262
1761476466546974700,0.439974609375,-0.005202244818210602,-0.053215713087283074,0.14863182425070554
1761476466557007600,0.450007568359375,-0.01130348430275917,-0.036194654855318364,0.14690799613278357
1761476466567040500,0.46004052734375,0.003557400220632553,-0.036180480199493464,0.15091314012091606
1761476466577073700,0.47007373046875,0.03007715835571289,-0.06902414412647485,0.1414018547308631
1761476466587107600,0.480107666015625,0.04654606259763241,-0.09093947720602154,0.1305290717292577
1761476466597140500,0.490140380859375,0.05762450597286224,-0.07421389478929341,0.14323748179334214
1761476466607173400,0.50017333984375,0.07080722815096378,-0.04840955491457134,0.154151135661453
1761476466617206500,0.51020654296875,0.079363459572196,-0.04246613634023815,0.1689274106413126
1761476466627239400,0.520239501953125,0.06759644941091537,-0.05373246697038412,0.17257508296128363
1761476466637273600,0.530273681640625,0.06077975513339042,-0.0679849007392302,0.17375430107479914
1761476466647303700,0.5403037109375,0.047211833029985426,-0.08191219420693814,0.17390030368305742
1761476466657336800,0.5503369140625,0.01581833137869835,-0.08468275489881634,0.1873564177087508
1761476466667369700,0.56036962890625,-0.011551906105875968,-0.07017309496589004,0.20226192682515828
1761476466677402600,0.570402587890625,0.038864275923371314,-0.053533035408146676,0.20217735381424426
1761476466687435500,0.580435546875,0.05996551614105701,-0.06366718367058784,0.20833154732873663
1761476466697469700,0.5904697265625,0.02677928585410118,-0.07394092306680977,0.2144152876892127
1761476466707502600,0.600502685546875,0.02010463039577007,-0.09147237850632518,0.21742011379469184
1761476466717535700,0.61053564453125,0.021526187631487847,-0.09048161390330642,0.23734732353063298
1761476466727568600,0.620568603515625,-0.035571664118766784,-0.0886836976358667,0.2762989672102034
1761476466737601500,0.6306015625,-0.09598667759299277,-0.08902929620314388,0.31496976638808843
1761476466747635700,0.6406357421875,-0.10287117640972136,-0.10203078006282448,0.31769148296955974
1761476466757668600,0.650668701171875,-0.012085574591159819,-0.11033175808135419,0.2756154419254511
1761476466767701500,0.660701416015625,0.03901157543957233,-0.13235877137444912,0.24447796086184678
1761476466777734400,0.670734375,0.04115034103393554,-0.14386775165405125,0.24708803376238792
1761476466787768600,0.6807685546875,0.06752864487171173,-0.11031203046757727,0.2593555590580217
1761476466797801700,0.6908017578125,0.03468786702156067,-0.03903977862074971,0.2356307288710959
1761476466807834600,0.700834716796875,0.11870119822621344,-0.17286014698036015,0.26190511567667124
1761476466817867500,0.710867431640625,0.09464870698750019,-0.19064871898610145,0.29827521843044086
1761476466827900700,0.720900634765625,0.024185762229561803,-0.11822711444105952,0.26616998831322414
1761476466837934800,0.730934814453125,0.030339608684182166,-0.04690755285378545,0.2614783781645819
1761476466847967700,0.7409677734375,0.011654781958460807,-0.05657886937744915,0.2791886790360324
1761476466858000600,0.751000732421875,-0.012570143237709998,-0.07234203650280834,0.2833608501541428
1761476466868033500,0.761033447265625,-0.017495909202098845,-0.0800992995660752,0.28156012087510895
1761476466878066400,0.77106640625,0.0013636895686388016,-0.07321797908712178,0.2764216985407285
1761476466888100600,0.7811005859375,0.03458382212519646,-0.04457976749334484,0.27811301262853666
1761476466898133500,0.791133544921875,0.056283612757921216,-0.024400172165222465,0.271807610607706
1761476466908166700,0.801166748046875,0.0579226121366024,-0.020524024851620196,0.26232356028445064
1761476466918199600,0.811199462890625,0.059089902350306506,-0.01728084167931229,0.28703999532461166
1761476466928232700,0.821232666015625,0.09451602051854133,-0.014057824512198567,0.29302482362156734
1761476466938266600,0.8312666015625,0.11035890181660651,-0.0035793197914958,0.2720067864416167
1761476466948299500,0.841299560546875,0.11066811389625072,0.016525529799982903,0.2621675660051405
1761476466958332400,0.85133251953125,0.10129764348268508,0.02336198822390288,0.2806946266195737
1761476466968365600,0.861365478515625,0.09255611862242222,0.022034100621007382,0.27156048571253194
1761476466978399500,0.8713994140625,0.10313888743519782,0.02837992598377168,0.261631230638735
1761476466988432600,0.8814326171875,0.11537176154255867,0.021593224985711274,0.2409242504356429
1761476466998465500,0.891465576171875,0.10981821906864643,0.01572612305060029,0.23256080164015291
1761476467008498700,0.901498779296875,0.0867576614767313,-0.0060820598600432275,0.2312244932687841
1761476467018531600,0.911531494140625,0.06307984876930714,0.0111153413195163,0.24901907489020375
1761476467028565800,0.921565673828125,0.04924421564042568,0.028235622142255303,0.2534202872575261
1761476467038598700,0.9315986328125,0.0542407087534666,0.030871450538560746,0.2435462147033773
1761476467048631600,0.941631591796875,0.036031098324060436,0.014942644522711634,0.2356212669230066
1761476467058664400,0.95166455078125,0.03413958548903465,0.0016668372336775064,0.2451794601947069
1761476467068697600,0.961697509765625,0.013581950628757476,0.007761172053404152,0.250577008389309
1761476467078731500,0.9717314453125,-0.007545593073964118,0.012176723473332821,0.24780239257682113
1761476467088764700,0.9817646484375,0.01563011533021927,0.023316724310070275,0.22728651449903844
1761476467098797600,0.991797607421875,0.02279343108832836,0.0320099895818159,0.2073022590799257
1761476467108830700,1.001830810546875,0.04655015425086021,0.04473755187094211,0.1946799837961793
1761476467118864600,1.01186474609375,0.04486614668667316,0.0630897125761956,0.17502298757005483
1761476467128897800,1.021897705078125,0.0382329922825098,0.07262034198753535,0.16984129234952852
1761476467138930400,1.031930419921875,0.06392623646557331,0.08555109869856387,0.14240348778776823
1761476467148963600,1.041963623046875,0.09921031581461429,0.08044997616726905,0.09987492633634246
1761476467158996500,1.05199658203125,0.12135609664916991,0.07117270046249032,0.0957097420814447
1761476467169030700,1.06203076171875,0.11163900475502013,0.060985981762595474,0.09950451298821716
1761476467179063600,1.0720634765625,0.06768529673814773,0.051362815229594704,0.0823756835328415
1761476467189096700,1.0820966796875,0.07254559625089169,0.066220083023794,0.07752755851508118
1761476467199129600,1.092129638671875,0.08205576739609241,0.07200308687202632,0.04736027419050224
1761476467209163800,1.102163818359375,0.05956394960284233,0.07455868963897228,0.021342127168318254
1761476467219196700,1.11219677734375,0.055034489479660983,0.08041801012642681,0.027333558735996483
1761476467229229600,1.1222294921875,0.04870820906758308,0.08164970734585077,0.02363664957997389
1761476467239262500,1.132262451171875,0.03260989170372486,0.07828103463035076,-0.0011701945568434893
1761476467249295600,1.142295654296875,0.007467267140746116,0.05216466966439038,-0.0414882312187925
1761476467259329500,1.15232958984375,0.014592004454135894,0.03146390000637621,-0.07397307177074253
1761476467269362700,1.16236279296875,0.026314006429910657,-0.0004948708448559045,-0.08835665763858705
1761476467279395600,1.1723955078125,0.017531565037369728,0.003498911499045789,-0.08021101631224155
1761476467289428700,1.1824287109375,0.005336100330948829,0.020418153324350714,-0.08063468508441
1761476467299462700,1.192462646484375,0.020889643293619156,0.0251517942501232,-0.096793920588959
1761476467309495800,1.202495849609375,0.02225041025280952,-0.00801620626039803,-0.1108613166471012
1761476467319528700,1.21252880859375,-0.02246668335199356,-0.017794344159401954,-0.1267828161393292
1761476467329561600,1.2225615234375,-0.06359890420734882,-0.015413476904854178,-0.11752077453630044
1761476467339594500,1.232594482421875,-0.07061316688358783,-0.011345460280962288,-0.10419877175167203
1761476467349628700,1.242628662109375,-0.046959904095530504,0.00519771477356553,-0.1061243512530811
1761476467359661600,1.25266162109375,-0.0023708207845687863,0.01828464842699468,-0.14167036947393788
1761476467369694700,1.26269482421875,0.02860883936882019,-0.01636266738846898,-0.17261998154893515
1761476467379727600,1.2727275390625,0.08860650421380996,-0.044999892601557075,-0.20418396266261116
1761476467389761800,1.28276171875,0.10281097065508366,-0.042048970374092456,-0.24022476039677856
1761476467399794700,1.292794677734375,0.08110299671590328,-0.003749452194012701,-0.23857823529876768
1761476467409827600,1.30282763671875,0.0658259326070547,0.014337079844996332,-0.24437530420497058
1761476467419860500,1.312860595703125,0.046207039901614184,0.021332820483855902,-0.2454757762601599
1761476467429894700,1.322894775390625,0.017278467059135435,0.022168321459926664,-0.267578046746552
1761476467439927600,1.332927490234375,-0.005848141506314277,0.033560981883481146,-0.26978569459235296
1761476467449960700,1.342960693359375,-0.014925181931257248,0.02918795443102717,-0.2617778725678101
1761476467459993600,1.35299365234375,-0.014266425761580466,0.033242855845019216,-0.2707278342806734
1761476467470026800,1.36302685546875,-0.028417700710892675,0.037603644870407876,-0.2656497820977121
1761476467480060700,1.373060791015625,-0.019968436795473096,0.03267681946009397,-0.27350690707257014
1761476467490093800,1.38309375,-0.00639876112639904,0.01664791407063603,-0.27068949329797176
1761476467500126700,1.393126708984375,0.008401333120465279,0.01234758652821183,-0.2800588494666852
1761476467510159600,1.40315966796875,0.029707155999541282,0.013660130431503057,-0.29098303386196495
1761476467520193500,1.413193603515625,0.05992050795555114,-0.00594334550909698,-0.3065618939289823
1761476467530226700,1.423226806640625,0.054390346357226366,0.012807970581576227,-0.3100000516841188
1761476467540259600,1.433259521484375,-0.00291617970764637,0.07227167468033731,-0.3210497073562816
1761476467550292700,1.443292724609375,-0.04631283836364746,0.08575655814278871,-0.3083453067470342
1761476467560326700,1.45332666015625,-0.017609306448698042,0.08466748426444828,-0.2817731973702088
1761476467570359800,1.46335986328125,0.015853402692079542,0.0567412203323096,-0.289662635445781
1761476467580392700,1.473392822265625,0.017580080354213712,0.042523529083281754,-0.31085451308898626
1761476467590425900,1.48342578125,0.023754969596862793,0.03077621000315994,-0.33588406919892877
1761476467600458500,1.49345849609375,0.007299509358406066,0.022818967388384043,-0.3401628790292889
1761476467610492700,1.50349267578125,0.0017617489755153656,0.008784048827737569,-0.343839010258764
1761476467620525600,1.513525634765625,0.003703530693054199,-0.004927044606022536,-0.3349559580359608
1761476467630558700,1.523558837890625,-0.017056348741054533,0.007626110964268446,-0.3047964916916564
1761476467640590600,1.533590576171875,-0.05261632242202759,0.00864606512915343,-0.3015570896453224
1761476467650624800,1.543624755859375,-0.03103694329857826,0.011573825676739214,-0.2990230411230586
1761476467660657700,1.55365771484375,-0.033736849907040595,-0.0003238981921225786,-0.2967389853064902
1761476467670690800,1.56369091796875,-0.057583004918694496,-0.007361212950386106,-0.27455703718001023
1761476467680723700,1.5737236328125,-0.035814825224876404,-0.0014388006314635276,-0.2545659501613118
1761476467690757600,1.583757568359375,-0.014330138647556305,0.0010566329134628176,-0.23848383501358328
1761476467700790500,1.59379052734375,-0.004489712634682655,0.0027876214245334268,-0.21777119225468486
1761476467710823700,1.60382373046875,0.004483867415785789,-0.0038461540341377257,-0.21329287779685108
1761476467720856600,1.613856689453125,0.010178279665112495,-0.0014389467619359492,-0.2076182296939194
1761476467730889500,1.623889404296875,0.002406476619839668,0.027013752197101712,-0.19919420981761066
1761476467740923600,1.633923583984375,0.00213233585357666,0.03781878545843065,-0.18435312597323208
1761476467750956800,1.643956787109375,0.01620996104478836,0.03690324151609093,-0.16789019481437278
1761476467760989700,1.65398974609375,0.038515316355228424,0.044619332318753,-0.17324249736145136
1761476467771022600,1.664022705078125,0.04557224912941456,0.053771922197937964,-0.17405215151021255
1761476467781056800,1.674056884765625,0.02286708084642887,0.07535754839908332,-0.14856741724498568
1761476467791089700,1.684089599609375,0.005564648389816284,0.06237451351154595,-0.1480256567847915
1761476467801122600,1.69412255859375,0.02012391961812973,0.06096640027929097,-0.16065286397198214
1761476467811155500,1.704155517578125,0.07551379840672015,0.06558565757777542,-0.1553976468575187
1761476467821189600,1.714189697265625,0.06358955185711383,0.0720677496060729,-0.1448409806003794
1761476467831222800,1.724222900390625,0.03849953426420689,0.07253054481223226,-0.11719545157207176
1761476467841255700,1.734255615234375,0.03783785548508167,0.0701424075666815,-0.1273502772963606
1761476467851288600,1.74428857421875,0.059790744096040724,0.07160104540977627,-0.14158395156580955
1761476467861322800,1.75432275390625,0.04314882137477398,0.04889098175596446,-0.12909112961431965
1761476467871355600,1.764355712890625,0.05810322940051555,0.03949457318354398,-0.1380878348120488
1761476467881388500,1.774388427734375,0.08290975387692451,0.04833082712255418,-0.12985953843723982
1761476467891421400,1.78442138671875,0.13748130201995373,0.053299190119653936,-0.14159787049330771
1761476467901455600,1.79445556640625,0.13548340620100496,0.05714706118684262,-0.13989733191942796
1761476467911488800,1.80448876953125,0.09235504309237003,0.03513751048520207,-0.10958490350311621
1761476467921521700,1.814521728515625,0.031001287463307377,0.03557908024024218,-0.06832556740306317
1761476467931554600,1.824554443359375,-0.01476034675836563,0.038213228136114774,-0.04475916091455146
1761476467941587700,1.834587646484375,-0.04386018451452255,0.024432430467009544,-0.028477084481623022
1761476467951622000,1.844621826171875,-0.0821995597809553,0.0032615590792149304,-0.025308099056687204
1761476467961654800,1.85465478515625,-0.08115969533920288,-0.008901501194946468,-0.034384554959740486
1761476467971687700,1.864687744140625,-0.06871697787344455,-0.021119725722447035,-0.04026557582234964
1761476467981720600,1.874720458984375,-0.057443888708949085,-0.02287544681597501,-0.06165746954968199
1761476467991754800,1.884754638671875,-0.0525982022434473,-0.0327620500581339,-0.07860911580724642
1761476468001787600,1.89478759765625,-0.05106207871735096,-0.03195416774135083,-0.10993605502834543
1761476468011820500,1.904820556640625,-0.028953707283735274,-0.02660060481894761,-0.12444885676642879
1761476468021853700,1.914853759765625,-0.03429740639925003,-0.013534677420929073,-0.12740261027179658
1761476468031888000,1.924887939453125,-0.0412087932229042,0.008704444252885878,-0.13493042109389788
1761476468041920800,1.934920654296875,-0.014088731107115745,0.027858934316970407,-0.12764097647177985
1761476468051953700,1.94495361328125,0.00566109450161457,0.0535757055060938,-0.09599616694054566
1761476468061986600,1.954986572265625,0.008643325182795524,0.06730539404246956,-0.08613033249177969
1761476468072020700,1.965020751953125,0.035004677885770795,0.05661693636551499,-0.09354141246587969
1761476468082053600,1.9750537109375,0.057058688783645624,0.03636380087714642,-0.07889365923651494
1761476468092086500,1.98508642578125,0.05803016416430473,0.011650215381197631,-0.053810066817817276
1761476468102119700,1.99511962890625,0.008777765217423439,0.04587831940390169,-0.07290648371884599
1761476468112153900,2.00515380859375,0.08043956437110901,0.044197015253454444,-0.04427513112411834
1761476468122186800,2.015186767578125,0.17328677489459512,0.00028188568130135534,0.010274789708992465
1761476468132219600,2.0252197265625,0.07290507721304892,0.038330570905469354,0.014705707661411724
1761476468142252800,2.035252685546875,0.039079379978775974,0.07650708376038819,0.04120389785207808
1761476468152286700,2.04528662109375,0.07543430342972278,0.07013542983662337,0.07362506205067038
1761476468162319600,2.055319580078125,0.07814005525708198,0.05117386852875352,0.10775016235662624
1761476468172352500,2.0653525390625,0.0187789347499609,0.04318367349244654,0.13698246738603337
1761476468182385700,2.0753857421875,-0.0007727379381656646,0.03243321996256709,0.15301073345467447
1761476468192419800,2.085419921875,-0.023037761238217352,0.029959304129704833,0.15969793786732478
1761476468202452700,2.09545263671875,-0.02527648007571697,0.026577004747651515,0.16251096772775053
1761476468212485600,2.105485595703125,-0.006891513079404831,0.0038786315316334365,0.15724943047035483
1761476468222518800,2.115518798828125,0.012086743634939194,-0.013863872842676936,0.16204174278080463
1761476468232551700,2.1255517578125,0.00041150341033935545,-0.03292122267521918,0.15512259277580304
1761476468242585600,2.135585693359375,0.011653028392791748,-0.04578841263074428,0.1558962622957304
1761476468252618800,2.14561865234375,0.019312018713355063,-0.059920836749114095,0.1617581035338342
1761476468262651600,2.155651611328125,0.0064461073994636535,-0.050807409836538135,0.17275708846468477
1761476468272684500,2.1656845703125,0.024808278042078018,-0.03340199192948639,0.16145612491257488
1761476468282718700,2.17571875,0.06287409706413745,-0.03593435995131731,0.17221295338431372
1761476468292752000,2.185751953125,0.05720774186551571,-0.042765703808702524,0.2164259151255712
1761476468302784800,2.19578466796875,0.034629414832592006,-0.035092319636605675,0.22762727249441667
1761476468312817700,2.205817626953125,0.03151040602922439,-0.010409348474629222,0.22853329968973993
1761476468322851600,2.2158515625,0.041430327019095416,-0.020156725909188388,0.23025204977374522
1761476468332884700,2.225884765625,0.06183715523183345,-0.025852014941349623,0.23213888643365352
1761476468342917600,2.235917724609375,0.06311842721402645,-0.04155515897516161,0.25467918301112946
1761476468352950500,2.245950439453125,0.07730009730160235,-0.04086016244832426,0.26804159087138246
1761476468362984700,2.255984619140625,0.0919686741232872,-0.023273250494524837,0.26667623906861987
1761476468373017900,2.266017822265625,0.03303600816130638,-0.018135814540833232,0.29241427224148064
1761476468383050800,2.27605078125,0.0002986906856298446,-0.02938501137308776,0.3323503786474466
1761476468393083600,2.286083740234375,-0.0282727392822504,-0.03730597709808498,0.3251958672503009
1761476468403117600,2.29611767578125,-0.05269757096469402,-0.029100349212810395,0.32823063183631745
1761476468413150700,2.306150634765625,-0.015803133809566498,-0.0344680137258023,0.3390748645968735
1761476468423183600,2.31618359375,0.04246960693895817,-0.04174432487171143,0.35182025480363516
1761476468433216500,2.326216552734375,0.07111351762115956,-0.05539554134439677,0.3413955991620198
1761476468443250700,2.336250732421875,0.07330196757614613,-0.055965778980404134,0.3532146317714825
1761476468453283800,2.346283935546875,0.07582417953014374,-0.04356445297095924,0.39188944953735916
1761476468463316700,2.356316650390625,0.0794160665422678,-0.04159454113747924,0.4164258518354967
1761476468473349600,2.366349609375,0.07103343812227249,-0.026598193666152653,0.4087486317384988
1761476468483382800,2.3763828125,0.048853170496225354,-0.03161452399082482,0.4102704710109159
1761476468493416700,2.386416748046875,0.038619361251592633,-0.05813716820273548,0.40449718483909963
1761476468503449600,2.39644970703125,0.04438625421524048,-0.06711378046050667,0.37169341453108934
1761476468513482500,2.406482421875,0.1052355674535036,-0.07472206350713968,0.3585428045243025
1761476468523515600,2.416515625,0.1270773969054222,-0.06463628443107008,0.3749220577213913
1761476468533549800,2.4265498046875,0.07055120756328105,-0.04056932627558708,0.39139070623498406
1761476468543582700,2.436582763671875,0.05550093794763088,-0.029203371195867654,0.39290947676748034
1761476468553615600,2.44661572265625,0.005903671085834503,-0.029479265527799725,0.397047416822426
1761476468563648800,2.456648681640625,-0.038622868382930754,-0.043725269555859266,0.3884478942487389
1761476468573682700,2.4666826171875,-0.0430693263977766,-0.05245346001051366,0.3916755875909701
1761476468583715600,2.476715576171875,-0.03121639151871204,-0.06799107475169003,0.39692890500929207
1761476468593748500,2.48674853515625,-0.009324293184280396,-0.07999441441949456,0.3876866275526583
1761476468603781600,2.49678173828125,0.010061375287175179,-0.0770627814143896,0.3557982185238972
1761476468613815800,2.50681591796875,0.03336684755086899,-0.06493424446433782,0.3081245036032051
1761476468623848700,2.5168486328125,0.046505146065354344,-0.058884698634408414,0.26303881414802743
1761476468633881600,2.526881591796875,0.031180151161551473,-0.05477211221642792,0.2517127892198972
1761476468643915000,2.5369150390625,0.0421457818120718,-0.033541838791593906,0.21919874083977192
1761476468653949000,2.546948974609375,0.055025137129426,-0.03267031665407121,0.18049677933864294
1761476468663981800,2.55698193359375,0.05741057096123695,-0.01254274377413094,0.15510719427727163
1761476468674015000,2.567014892578125,0.12402151646614074,-0.001536744580604136,0.14949528181278146
1761476468684048000,2.5770478515625,0.1502624576598406,-0.003936937590129673,0.14257539202226324
1761476468694082000,2.58708203125,0.11368424684703349,-0.00938340296037495,0.1570179415357299
1761476468704115000,2.597114990234375,0.048999300968647,-0.022239085141196845,0.19096991376448422
1761476468714148000,2.607148193359375,-0.002827332380414009,-0.019960180423781275,0.20380077203130348
1761476468724181000,2.617180908203125,-0.028949615630507467,-0.009610270518809557,0.21861180779729036
1761476468734214100,2.627214111328125,-0.010797872868180274,-0.0012842311242595315,0.2093764898044057
1761476468744247800,2.637247802734375,0.02890636101067066,-0.011377280191332101,0.1945444477830082
1761476468754281000,2.647281005859375,0.06175707573294639,-0.018362170642614365,0.16597376673379913
1761476468764313900,2.65731396484375,0.060661681711673736,-0.02287687158808112,0.15744272455275057
1761476468774347000,2.667346923828125,0.04386895234286785,-0.03109824503175914,0.16227661098260432
1761476468784381000,2.677380859375,-0.015260697495937347,-0.025164909460023043,0.17402639601444825
1761476468794414000,2.6874140625,-0.08683248027861118,-0.027705716516636312,0.19154614274986087
1761476468804447000,2.697447021484375,-0.13660744179487228,-0.035066637206077576,0.20534244851535186
1761476468814480100,2.707480224609375,-0.13570143286585806,-0.027844138606637713,0.1919171862856485
1761476468824513800,2.717513671875,-0.07289514034092426,-0.03796334502827376,0.13903111614468508
1761476468834547000,2.727546875,-0.004587327790260315,-0.053272009851783514,0.09595113135557622
1761476468844579800,2.737579833984375,0.053067573320865626,-0.06007219138592481,0.07603900502433535
1761476468854613000,2.747613037109375,0.07855974197387695,-0.039609687463194126,0.08171384035693481
1761476468864647000,2.75764697265625,0.08761573961079121,-0.025007307745516297,0.09207409812598488
1761476468874680000,2.76768017578125,0.08156886066198349,-0.0001074058972299099,0.10594843756374903
1761476468884713000,2.777712890625,0.0656517450839281,0.0010852744860574603,0.10709452972579747
1761476468894746000,2.78774609375,0.04509469474554061,0.000015416764840483664,0.08566779301394709
1761476468904780000,2.797780029296875,0.06268354292809963,0.006161481771804392,0.07178949892027303
1761476468914813000,2.80781298828125,0.07384089675843715,-0.00008230798859149217,0.046817189422901716
1761476468924845800,2.817845703125,0.04625497069656849,-0.009023337476328015,0.03399759233561344
1761476468934879000,2.82787890625,0.011519757401943206,-0.0066974883446469895,0.02741450588456355
1761476468944913000,2.837912841796875,-0.025878537622094154,0.007835406333394348,0.012285344080114736
1761476468954946000,2.847946044921875,-0.03903554083704948,0.0061577189121395344,-0.028720072057796642
1761476468964979000,2.85797900390625,-0.024233108502626416,0.010342786044441162,-0.06022298433373216
1761476468975012000,2.86801220703125,-0.022753099077939987,0.01951371529791504,-0.07953120822138153
1761476468985046000,2.8780458984375,-0.05151391413807869,0.040756848204322155,-0.09324799161041154
1761476468995079200,2.8880791015625,-0.06263385856747627,0.02657210937682539,-0.10737314573777838
1761476469005111800,2.89811181640625,-0.0668979457527399,0.03075407123658806,-0.12030698032188228
1761476469015145000,2.90814501953125,-0.023901684591174123,0.04615574810579419,-0.15689181267172098
1761476469025179000,2.918178955078125,-0.004877835169434547,0.03315722338818013,-0.19626604741122572
1761476469035212000,2.9282119140625,0.04555763608217239,0.02153082727398723,-0.21072520099962128
1761476469045245000,2.938244873046875,0.0598047726213932,0.02027925631031394,-0.2009124849775806
1761476469055278000,2.948278076171875,0.022921441382169724,0.04047733714319765,-0.1747691224068403
1761476469065311000,2.95831103515625,0.04740647881925106,0.058555028288625174,-0.18858228797558693
1761476469075345200,2.96834521484375,0.08819383175969123,0.03800659964811057,-0.2304516639990732
1761476469085378000,2.9783779296875,0.09979016152918338,0.024454240440018475,-0.23823497481904923
1761476469095411000,2.988410888671875,0.09985212084949016,0.02622435538507998,-0.22664313856158405
1761476469105443800,2.99844384765625,0.07359364399909973,0.03286152837723493,-0.2069046745970845
1761476469115478000,3.00847802734375,0.034947979262471195,0.042582456196285784,-0.19549590328894553
1761476469125511000,3.018510986328125,0.016974515676498412,0.03999448552969843,-0.20112399057010188
1761476469135544000,3.0285439453125,-0.0007025953114032745,0.017215996282175183,-0.2061297447018325
1761476469145577000,3.038576904296875,0.004954992058873176,-0.015574804946407676,-0.21483535799849776
1761476469155611100,3.048611083984375,0.013145897299051284,-0.023425883772969246,-0.21646745271235704
1761476469165644000,3.05864404296875,0.0035340193450450895,-0.025059658987261355,-0.23206034130472689
1761476469175677200,3.06867724609375,0.0014186346262693404,-0.01155826278142631,-0.21201706744106485
1761476469185710000,3.0787099609375,0.01922667851746082,0.0076186217775568365,-0.21243357582008465
1761476469195744000,3.088743896484375,0.013517653220891952,0.012123751177079974,-0.22454665947267785
1761476469205777000,3.09877685546875,-0.03861410055458545,0.018783282131515443,-0.2215622551007196
1761476469215810000,3.10881005859375,-0.07057283487319946,0.021565131402388214,-0.20422184698758647
1761476469225843000,3.118843017578125,-0.05899579432606697,0.033960977519117294,-0.192290622707922
1761476469235877000,3.128877197265625,-0.048261049821972844,0.03207943808883428,-0.17368808570448308
1761476469245910000,3.138909912109375,-0.030728315740823745,0.025777634530887005,-0.18920522391321137
1761476469255943200,3.148943115234375,0.02263093400299549,0.009331453577429056,-0.22546538175279274
1761476469265976000,3.15897607421875,0.08575403739213942,0.027700711547955868,-0.2659424631676636
1761476469276009000,3.169009033203125,0.09245148920416832,0.02358808859735727,-0.31401918766498566
1761476469286043000,3.17904296875,0.0923562121361494,0.015740078510716557,-0.34349633430093524
1761476469296076000,3.189075927734375,0.09682546650469302,0.0007731763295829296,-0.35766532757002856
1761476469306109000,3.19910888671875,0.09645780223608016,0.019170308687724173,-0.3407992772366851
1761476469316142000,3.20914208984375,0.06587327888011932,0.04894570761788636,-0.3252254221383482
1761476469326176000,3.219176025390625,0.05195172103345394,0.049867754366248844,-0.30797377002090215
1761476469336209200,3.229209228515625,0.031951135534048075,0.03960497475545853,-0.2979607821864076
1761476469346242000,3.239241943359375,-0.004483282893896103,0.02696892667468637,-0.30191092631798233
1761476469356275200,3.249275146484375,-0.04754384146332741,0.02716328020300716,-0.31253325995616615
1761476469366308900,3.259308837890625,-0.07330722827315331,0.02678940538931638,-0.3133457088502124
1761476469376342000,3.269342041015625,-0.04690203642845153,0.040818405665829775,-0.30272131111910566
1761476469386375000,3.279375,0.01824468174278736,0.04516702932938933,-0.2984348111726344
1761476469396408000,3.289407958984375,0.06425415324568748,0.051051520790718494,-0.27542642215937374
1761476469406442000,3.29944189453125,0.07350012049674988,0.05998977379947901,-0.26102566596101967
1761476469416475100,3.30947509765625,0.06963058558702469,0.06512235091496259,-0.2506992282631807
1761476469426508000,3.319508056640625,0.040541269224882125,0.057490467797033484,-0.21443331653624773
1761476469436541200,3.329541259765625,0.003124269500374794,0.07331584997102618,-0.16859995051892473
1761476469446574800,3.339574951171875,-0.045640638190507885,0.07634549999050795,-0.15356721655996516
1761476469456608000,3.34960791015625,-0.028873043262958524,0.09017601855285465,-0.15969172732224687
1761476469466641000,3.359640869140625,0.027680618607997892,0.07874072456397116,-0.18264007497765122
1761476469476674000,3.369674072265625,0.054582069537043566,0.05533398388288915,-0.20101539736278354
1761476469486708000,3.3797080078125,0.08836626571714877,0.03444006627295166,-0.2035898509606719
1761476469496741000,3.3897412109375,0.1142196688979864,0.04301047235000878,-0.201918374084495
1761476469506774000,3.39977392578125,0.07588906145989895,0.039924379435554144,-0.1909988110654056
1761476469516807200,3.40980712890625,0.0496790999263525,0.03616473464109003,-0.17488083915300667
1761476469526840000,3.419840087890625,0.013298457512259483,0.04155395339876413,-0.14962497260705568
1761476469536874000,3.4298740234375,0.0011509236007928847,0.038895255583524704,-0.13707145171058363
1761476469546907000,3.439906982421875,0.021297639572620392,0.023186156732961535,-0.13631291582770644
1761476469556940000,3.44993994140625,0.04694879817962646,0.019154234335757792,-0.11746308039915747
1761476469566973000,3.459972900390625,0.025309797823429105,0.03422708110939711,-0.1044161316962447
1761476469577007000,3.470007080078125,-0.0015431377887725828,0.04132701277509331,-0.08510190275949425
1761476469587040000,3.4800400390625,0.014727613532543182,0.04097637270651758,-0.0844509919695556
1761476469597073200,3.4900732421875,0.02116904475688934,0.030816761209256947,-0.06761696247598156
1761476469607106000,3.50010595703125,0.031227497434616086,0.028970183494500815,-0.04358985227369703
1761476469617140000,3.510139892578125,0.06118892045617103,0.04197813362758607,-0.05708447167887352
1761476469627172900,3.5201728515625,0.043413609790802,0.04257124068252742,-0.05712968079377897
1761476469637206000,3.5302060546875,-0.01118541088104248,0.03990063323378563,-0.049166519894869996
1761476469647238400,3.54023828125,-0.043646834024786946,0.03366272522490472,-0.050293322834558785
1761476469657272600,3.5502724609375,-0.010884382107853889,0.04061294622160494,-0.04499862309307791
1761476469667305500,3.560305419921875,0.030417934617400166,0.03994933121372014,-0.05875578415826894
1761476469677338600,3.570338623046875,0.027286650854349136,0.04798201368488371,-0.056439607037231325
1761476469687371500,3.58037158203125,0.010245499682426452,0.03717661509737372,-0.03129800538755953
1761476469697405700,3.59040576171875,0.02477379125058651,0.011949125262536107,-0.03769472068734467
1761476469707438600,3.6004384765625,0.025534838750958442,0.017150749026238917,-0.022170075025595724
1761476469717471500,3.610471435546875,0.04155599922537803,0.016118775629997254,-0.012060371651244349
1761476469727504400,3.62050439453125,0.09871464125216006,0.0028783319152891635,-0.016395738541008904
1761476469737537500,3.63053759765625,0.10003975237607955,0.015045556907914578,0.03286691693840548
1761476469747571500,3.640571533203125,0.06785714617371559,0.02195913568865508,0.05078942208869848
1761476469757604600,3.6506044921875,0.0406295320302248,0.017956329788081347,0.05869789822488092
1761476469767637500,3.660637451171875,0.048726913768053055,-0.01080189145617187,0.0599256225220859
1761476469777670700,3.670670654296875,0.03692424777150154,-0.03895513254459947,0.05622130181116517
1761476469787704600,3.68070458984375,0.024375731843709943,-0.08055120805203914,0.06381129571585915
1761476469797737500,3.690737548828125,0.02573006906211376,-0.085986092582345,0.08596169792660512
1761476469807770400,3.700770263671875,-0.011093640944361686,-0.056392699155583974,0.10393494231686927
1761476469817803500,3.710803466796875,-0.031631402060389516,-0.05520959031824022,0.13307112089488654
1761476469827837400,3.72083740234375,-0.025548867276310918,-0.04092146418150514,0.13912943455316126
1761476469837870600,3.73087060546875,-0.014268179327249527,-0.040291970638930794,0.14031553906518965
1761476469847903500,3.740903564453125,-0.041167292168736457,-0.046417321651428936,0.15239992634626104
1761476469857936600,3.7509365234375,-0.08377250818610191,-0.05688530497811734,0.19700179607355967
1761476469867970600,3.760970458984375,-0.09148352095484732,-0.064110506991297,0.21980587642006574
1761476469878003700,3.771003662109375,-0.05713116949796676,-0.07151029838640242,0.22186454424923285
1761476469888036600,3.78103662109375,0.027356793481111526,-0.07827957332562654,0.20986407239194957
1761476469898069500,3.791069580078125,0.06799918499290943,-0.08880473019964992,0.18982980381865053
1761476469908102400,3.801102294921875,0.06282908887863159,-0.08242153196856379,0.1753205822771415
1761476469918136600,3.811136474609375,0.04835749593377113,-0.06025850773826241,0.17446475089909508
1761476469928169500,3.82116943359375,0.05376899958848953,-0.04759557165056467,0.19390660653719677
1761476469938202600,3.83120263671875,0.07397241418361664,-0.0390761285757646,0.1984686720220372
1761476469948235500,3.841235595703125,0.06889467252790928,-0.0415402536669746,0.21604745546830817
1761476469958269700,3.851269775390625,0.05635083277523517,-0.04253152972664684,0.2314879117116332
1761476469968302600,3.861302490234375,0.0801958187431097,-0.04249718906562775,0.2271499190399423
1761476469978335700,3.871335693359375,0.08236848660707473,-0.03405008057467639,0.2358722825420089
1761476469988368400,3.881368408203125,0.02798573903441429,-0.022143698475323617,0.24712215522769837
1761476469998402600,3.891402587890625,-0.032549101427197455,-0.04238192865550518,0.25920436881799247
1761476470008435500,3.901435546875,-0.047915597385168075,-0.05152578723896294,0.2799410865722224
1761476470018468600,3.911468505859375,-0.02589256614744663,-0.04567614789530634,0.27506723345816136
1761476470028501500,3.92150146484375,-0.011666472396254539,-0.04047854271959513,0.2679428249383345
1761476470038534700,3.93153466796875,-0.01182195521891117,-0.04491915551554412,0.2555232326198369
1761476470048568600,3.941568603515625,0.004181669598817825,-0.044010406640172,0.24572001507850363
1761476470058601700,3.951601806640625,0.030811902371048926,-0.05783635862525552,0.2570618586302735
1761476470068634600,3.961634521484375,0.014947978284955024,-0.06787628926560282,0.28237028648052365
1761476470078667500,3.97166748046875,0.014065934753417967,-0.046797808868996794,0.3095266254860908
1761476470088701400,3.981701416015625,0.014254735323786735,-0.03781831053439527,0.3139291712939739
1761476470098734600,3.991734619140625,-0.008144728010892867,-0.03209690068028867,0.3022517573785968
1761476470108767500,4.001767578125,0.001034019222855568,-0.01801507423799485,0.29415295086866244
1761476470118800600,4.011800537109375,0.026815526211261747,-0.03003773966077715,0.2636862634724006
1761476470128834600,4.02183447265625,0.04705868829488754,-0.0459587276963517,0.22492497299946843
1761476470138867700,4.03186767578125,0.06265607039928436,-0.04514576734565198,0.21246943258475512
1761476470148900600,4.041900634765625,0.061489949229359624,-0.059280858345143496,0.2046528953486122
1761476470158933800,4.051933837890625,0.05253390483558178,-0.06140263627208769,0.2072367195630446
1761476470168967400,4.061967529296875,0.0645189416617155,-0.0493672209655866,0.20178862849129361
1761476470179000600,4.07200048828125,0.04476911605298519,-0.0476261494519189,0.199662192655541
1761476470189033500,4.082033447265625,0.007652560579776763,-0.032801980209723115,0.20170924311215058
1761476470199066600,4.092066650390625,0.004043137910962105,-0.030382388379983603,0.1848160855761729
1761476470209099500,4.102099609375,-0.0007528641939163207,-0.038622868382930754,0.1847999016263522
1761476470219133700,4.1121337890625,-0.012572481325268744,-0.04583181338105351,0.18222310994090513
1761476470229166600,4.12216650390625,-0.029918168401718136,-0.04288330230638385,0.16637821934884414
1761476470239199700,4.13219970703125,-0.03827800046801567,-0.046907698984257874,0.13518690747246145
1761476470249232600,4.142232666015625,-0.024490298134088515,-0.04814199001956731,0.12265162548557855
1761476470259266600,4.1522666015625,-0.025527239966392515,-0.026450126964971423,0.11963155614519491
1761476470269299500,4.162299560546875,0.003644493982195854,-0.013318842713162303,0.09285212416062132
1761476470279332600,4.17233251953125,0.007353285372257232,0.002518850953131914,0.07110626132988836
1761476470289365500,4.182365478515625,0.005658756414055824,0.011215075366944074,0.08099898835215717
1761476470299399700,4.192399658203125,0.02624211023747921,0.005633402777090669,0.08206558553720823
1761476470309432600,4.2024326171875,0.020498013627529142,-0.012358473248407244,0.06958031213793438
1761476470319465700,4.2124658203125,0.01641688179373741,-0.0030339608684182167,0.08002438943265006
1761476470329498600,4.22249853515625,0.026882161706686017,0.01518741306401789,0.07540891326013952
1761476470339531800,4.23253173828125,0.060116907310485836,0.01219959289226681,0.04691909716110676
1761476470349565400,4.2425654296875,0.07224924365282058,-0.002235430901870131,0.03351326343436958
1761476470359598600,4.2525986328125,0.04845861822068691,-0.003373056629672646,0.0365112351073767
1761476470369631500,4.262631591796875,0.04125964662730693,0.0015682356974110005,0.028312904612568673
1761476470379664600,4.27266455078125,0.03764613230526447,0.016096527265571058,0.04153794297887944
1761476470389698600,4.282698486328125,0.009037292936444282,0.011335852202400564,0.052456789045338514
1761476470399731700,4.292731689453125,-0.005959785187244415,0.00267963100541383,0.04484582541785203
1761476470409764600,4.3027646484375,0.011809095737338066,-0.014224632446467876,0.048963782130694015
1761476470419797800,4.3127978515625,0.0268698867470026,-0.006515263645537197,0.03978160083084367
1761476470429831400,4.32283154296875,0.046404608300328255,-0.002340973635576665,0.02273408385021612
1761476470439864600,4.332864501953125,0.042139352071285247,0.00629358371887356,0.012449697479105088
1761476470449897500,4.3428974609375,0.002710428002476692,0.025914997174963355,0.034420119463466105
1761476470459930600,4.3529306640625,-0.0004845686465501785,0.030991935113072393,0.06415933283539489
1761476470469963500,4.362963623046875,0.010713701716065406,0.05087857537660748,0.06685154932774603
1761476470479997700,4.372997802734375,0.010109890604019164,0.07814126083347946,0.037001381828053855
1761476470490030600,4.383030517578125,-0.0021650690793991088,0.08872348165698349,0.03257603053331841
1761476470500063700,4.393063720703125,-0.022395956203341484,0.07337105075698346,0.01705384169013705
1761476470510096600,4.4030966796875,-0.056868719169497484,0.06855824364777655,0.009806688140053301
1761476470520130600,4.413130615234375,-0.05694587605893611,0.0720110509827733,0.005452643949282355
1761476470530163500,4.42316357421875,-0.004045475998520851,0.07551244669985026,0.007213301512831821
1761476470540196600,4.433196533203125,0.03197685449719429,0.07391819977834821,-0.018869677206757477
1761476470550229500,4.4432294921875,0.0466378325343132,0.06087875852845609,-0.04185660330688115
1761476470560263700,4.453263671875,0.05025660755336284,0.034543197853863235,-0.07371251200526022
1761476470570296600,4.463296630859375,0.06271861424148083,0.02833374875448644,-0.09975330925066955
1761476470580329700,4.473329833984375,0.07292670452296733,0.03509557103961706,-0.1277815265867859
1761476470590362600,4.483362548828125,0.0702402419179678,0.05298460774514824,-0.14902001985069363
1761476470600395500,4.4933955078125,0.06857201644480228,0.06637286243271082,-0.14525479469881392
1761476470610429400,4.503429443359375,0.04473696734905243,0.051148697554878886,-0.13212017684560268
1761476470620462600,4.513462646484375,0.016840660163760183,0.03941365343444049,-0.12934156071143224
1761476470630495500,4.52349560546875,0.02903320226073265,0.016219021134078502,-0.14049288665978238
1761476470640528400,4.5335283203125,0.013075754672288893,-0.0008374372048303484,-0.14897898458740674
1761476470650563800,4.543563720703125,-0.02144143195748329,-0.0046761385848745705,-0.1302858832236845
1761476470660596700,4.5535966796875,0.008991700229048728,0.003554916002601385,-0.10382652263948693
1761476470670629600,4.563629638671875,0.03331599414646625,0.01638129902370274,-0.1047569536237046
1761476470680662500,4.57366259765625,0.05182838691473007,0.022917459326796234,-0.12806897435919382
1761476470690696700,4.58369677734375,0.027414661148190498,0.016964907597936688,-0.13736560321841387
1761476470700729600,4.5937294921875,-0.008819850793480872,0.022157288609258828,-0.14244164610737933
1761476470710765600,4.603765625,-0.01275660572052002,0.01905417149476707,-0.1758443504229188
1761476470720799700,4.6137998046875,-0.01672550935149193,0.023460041770897805,-0.18005663435570896
1761476470730832600,4.62383251953125,-0.02117781258523464,0.03114380120653659,-0.16990487737134097
1761476470740865800,4.63386572265625,0.00758650960624218,0.03255556770060211,-0.14316265385830773
1761476470750898700,4.643898681640625,0.01258884793817997,0.041326866644620895,-0.13281813251450658
1761476470760932600,4.6539326171875,-0.017840192595124243,0.04857318451106548,-0.14492273146654477
1761476470770965500,4.663965576171875,-0.012931377765536307,0.04751578441262245,-0.1434815196822863
1761476470780998700,4.67399853515625,0.006049801558256149,0.035930158700235186,-0.15216641898448577
1761476470791031600,4.684031494140625,0.02471358549594879,0.03909771935306489,-0.16853084907177834
1761476470801065700,4.694065673828125,0.04066577238738536,0.03032620121333748,-0.16097398568512872
1761476470811098600,4.7040986328125,0.04176876519322395,0.033891857805661854,-0.1412365994328633
1761476470821131800,4.7141318359375,0.032247488132119174,0.04316935270614922,-0.12311205520471558
1761476470831164700,4.72416455078125,0.045187633726000785,0.045956426141411065,-0.10372082464215344
1761476470841197800,4.73419775390625,0.09467325690686702,0.05434420566055923,-0.0927423253769055
1761476470851231500,4.7442314453125,0.10710253036916255,0.034943120424263174,-0.09483843000647611
1761476470861264600,4.7542646484375,0.05942366434931755,0.024458514756336806,-0.08842871822779998
1761476470871297500,4.764297607421875,0.03975099563002586,0.013564597635157405,-0.09319173137852922
1761476470881330700,4.77433056640625,0.04642331300079822,0.012655994890257715,-0.11123583078160881
1761476470891364600,4.784364501953125,0.03228431301116943,0.015539477904699742,-0.10205790553176775
1761476470901397800,4.794397705078125,0.013776596418023108,0.008587795603275298,-0.08148571242317557
1761476470911430700,4.8044306640625,0.008577858731150627,0.0062366293672472236,-0.07754650067756884
1761476470921463800,4.8144638671875,0.00009293898046016692,0.03295837634783238,-0.08257611060892231
1761476470931496700,4.82449658203125,-0.007030044767260551,0.020815774339810012,-0.08573767991238274
1761476470941530600,4.834530517578125,0.018467969104647635,0.004939027304761112,-0.09497405735119245
1761476470951563500,4.8445634765625,0.009684943190217017,-0.01607007765006274,-0.0981033044207841
1761476470961596700,4.8545966796875,-0.006594575959444046,0.008145933587290346,-0.08091951164146885
1761476470971629600,4.864629638671875,-0.01600830099284649,0.02621620861124247,-0.05641221670680679
1761476470981663700,4.874663818359375,-0.012269698986411094,0.04628806924857199,-0.04229925534073263
1761476470991696600,4.884696533203125,0.006582300999760628,0.045534839728474615,-0.05069820470786653
1761476471001729800,4.894729736328125,0.038297874212265014,0.02370952301993966,-0.06692823129314929
1761476471011762700,4.9047626953125,0.07211012744307517,-0.002139788507670164,-0.08172221545963548
1761476471021795800,4.9147958984375,0.059848027241230006,-0.020877624062262474,-0.0642597427362576
1761476471031829500,4.92482958984375,0.06317103418409824,-0.0030882118063047526,-0.023021723418869076
1761476471041862700,4.934862548828125,0.08731295727193356,0.019450623466446996,0.012585943595040588
1761476471051895600,4.9448955078125,0.06132219144701957,0.027771694424934684,0.01669179887813516
1761476471061928700,4.9549287109375,0.03861526959836483,0.021832330971211195,0.017464536816300825
1761476471071962600,4.964962646484375,0.004949731361865997,0.03636602936685085,0.034837641622638325
1761476471081995800,4.974995849609375,-0.002271452063322067,0.009647862582840025,0.03816684084427543
1761476471092028700,4.985028564453125,0.03402443467676639,-0.00919544264022261,0.03826868465039879
1761476471102061800,4.995061767578125,0.06672609631717205,-0.005849602811038494,0.04083264425373636
1761476471112094700,5.0050947265625,0.10230477469861507,0.009303104265779256,0.05512242349144071
1761476471122128600,5.015128662109375,0.1026081415593624,0.012226298236101866,0.060275504538835956
1761476471132161500,5.02516162109375,0.034114451047778126,0.016235570410080252,0.08418518064022064
1761476471142194700,5.035194580078125,-0.01625146209895611,0.015654007662460206,0.09968103859890252
1761476471152227600,5.0452275390625,-0.058518824464082714,0.009946370605379342,0.103647019620426
1761476471162261800,5.05526171875,-0.05484335082173347,-0.012979089364781975,0.11014895799350924
1761476471172294700,5.065294677734375,-0.03321078020632267,-0.024469912933185695,0.10486989421257749
1761476471182327800,5.075327880859375,-0.00022036475241184232,-0.02902085423581302,0.07774173098872415
1761476471192360700,5.085360595703125,0.03633914135992527,-0.042905112279392775,0.05585208947286009
1761476471202394600,5.09539453125,0.0650853433728218,-0.05470617084074765,0.025365797760407437
1761476471212427500,5.105427490234375,0.08840952033698558,-0.042317375519312916,0.01640441503780894
1761476471222460700,5.115460693359375,0.09553601121604442,-0.043888314630463714,0.010185490290611051
1761476471232493600,5.12549365234375,0.09351590356528758,-0.038984650900028645,0.03197278111027554
1761476471242526700,5.135526611328125,0.10167816723287106,-0.02370411619246006,0.038708989463537
1761476471252560600,5.145560546875,0.11510288147330283,-0.009034626055322587,0.023022796564525924
1761476471262593800,5.15559375,0.12168225986361503,0.020837401649728415,0.02932059980079066
1761476471272626700,5.165626708984375,0.10435060131251811,0.012241934196650981,0.04459902018308639
1761476471282659800,5.175659912109375,0.05411269845962524,0.004652100122161209,0.05094485467900522
1761476471292693500,5.185693603515625,0.002824409770965576,0.017429785163328052,0.0541482081644237
1761476471302726700,5.1957265625,-0.06687456487715245,0.013820654755458234,0.07122180943437852
1761476471312759600,5.205759521484375,-0.06460661994516849,0.007416267605870962,0.05835177450121846
1761476471322792700,5.215792724609375,-0.03690846568048,0.010602313763462006,0.049694461892265826
1761476471332825600,5.22582568359375,-0.012349778485298156,0.01705550849083811,0.048449138006288556
1761476471342859800,5.23585986328125,0.0044458734929561615,0.013779007570818066,0.038506690090778284
1761476471352892700,5.245892578125,-0.006433247917890549,0.013483787483908235,0.04585787940407172
1761476471362925800,5.25592578125,-0.023753800553083418,0.017051636033318936,0.04610793604184873
1761476471372958700,5.265958740234375,-0.039892449927330015,0.020603921687416732,0.0530987036780687
1761476471382991600,5.27599169921875,-0.021042203506827353,0.029054098918288945,0.07865066252718679
1761476471393025500,5.286025634765625,0.025333178699016568,0.032183336854726075,0.07772218603803775
1761476471403058700,5.29605859375,0.058848494809865946,0.03147109693214297,0.08065539907887577
1761476471413091600,5.306091552734375,0.04317278677225113,0.0033120106248185036,0.09836021092445589
1761476471423124500,5.31612451171875,0.045641222712397574,-0.008015987064689397,0.09602386779822408
1761476471433158700,5.32615869140625,0.049483285093307496,-0.044819056141935286,0.08506632912261411
1761476471443191800,5.33619189453125,0.030139117676019667,-0.06939728828780353,0.06842547954700422
1761476471453224700,5.346224609375,0.01556464887857437,-0.08124284357801079,0.04600084980502724
1761476471463257900,5.3562578125,0.0017108955711126327,-0.07934804280735552,0.04435061207970138
1761476471473290800,5.366290771484375,-0.028621114328503606,-0.06805475110504776,0.04489450969805475
1761476471483324700,5.37632470703125,-0.04414192406535148,-0.07079159219041466,0.06031349389508832
1761476471493357600,5.386357666015625,-0.0373661463201046,-0.07021678797714412,0.056450932148844
1761476471503390700,5.396390625,-0.031929508224129675,-0.07572375136297196,0.03246819081124849
1761476471513423600,5.406423583984375,-0.030848142728209495,-0.07196827128697186,0.025829757443768902
1761476471523457800,5.416457763671875,-0.040862756264209744,-0.0507828599171713,0.007856417155382224
1761476471533490700,5.42649072265625,-0.013056465449929236,-0.03513473400622606,0.013285538665181956
1761476471543523800,5.43652392578125,-0.00010638298392295837,-0.014890074085257946,-0.004590337164676748
1761476471553556700,5.446556640625,0.015823592075705526,-0.023336305793374774,-0.008697439123364166
1761476471563589600,5.456589599609375,0.057065703046321865,-0.03532868567574769,-0.0011333103122888133
1761476471573623600,5.46662353515625,0.08861527204215526,-0.03505757711678743,-0.009987145573762245
1761476471583656700,5.47665673828125,0.09610182840526103,-0.03364971961285919,-0.03343464752349537
1761476471593689600,5.486689697265625,0.07548106518089771,-0.01917604430876672,-0.034377764459350146
1761476471603722500,5.496722412109375,0.053664370170235634,-0.0004047083433717489,-0.023734513614012392
1761476471613756700,5.506756591796875,0.05321954901218414,0.011455898385494948,-0.018167056779179257
1761476471623789800,5.516789794921875,0.01099368770122528,0.023788287344574926,-0.018955770887900143
1761476471633822700,5.52682275390625,-0.007602291697263717,0.0055650137159973375,-0.018455228354083374
1761476471643859200,5.536859130859375,0.019739304214715956,-0.011726568553037942,-0.015615436067606786
1761476471653892000,5.54689208984375,0.04274725483655929,-0.026854798775725067,-0.020509019078733398
1761476471663926000,5.556926025390625,0.0311965177744627,-0.039364991987124086,-0.042286797717958687
1761476471673959000,5.566958984375,0.023844985967874526,-0.05001392137128859,-0.026032166414381934
1761476471683992000,5.576991943359375,0.02982347585558891,-0.043788251789472994,-0.014237211083539295
1761476471694025000,5.58702490234375,0.037765374770760536,-0.04181205634567886,-0.0066414427418960255
1761476471704059100,5.59705908203125,0.030742928788065907,-0.03082848817966878,-0.003652887351205572
1761476471714092000,5.607092041015625,0.017587094616889953,-0.03318341727536171,0.00870719333239831
1761476471724125200,5.617125244140625,0.009658639705181122,-0.04421612181272357,0.006717437437421176
1761476471734158000,5.627157958984375,0.001727262184023857,-0.06487480589468032,0.001797715338040143
1761476471744191200,5.637191162109375,-0.011308160477876663,-0.05933868947960436,-0.0036692265646532177
1761476471754225000,5.647224853515625,-0.02347615265548229,-0.04815799130629748,-0.0064397918231086804
1761476471764258000,5.657258056640625,-0.026693945658206937,-0.02706478826459497,0.013170942692051175
1761476471774291000,5.667291015625,0.01002864206135273,-0.010298033587262034,0.008246731647220439
1761476471784324000,5.677323974609375,0.041966333591938014,0.0019954116009175777,0.005203445828030817
1761476471794357000,5.68735693359375,0.059845104631781575,0.005197678240947425,-0.006152606628893408
1761476471804391200,5.69739111328125,0.015340776994824409,-0.015552994973398744,0.003223416742624249
1761476471814424000,5.707424072265625,-0.047403556209802626,-0.016619491693750023,0.039091198280733076
1761476471824457200,5.717457275390625,-0.06270517023801803,-0.008890212615951895,0.05329986597308889
1761476471834490000,5.727489990234375,-0.028481413596868514,-0.012545301057398319,0.038760970812523735
1761476471844524000,5.73752392578125,0.029382746350765227,-0.016001140599697827,0.022167472076555714
1761476471854557000,5.747556884765625,0.037575405156612396,-0.027311237306334078,0.0066376947236072735
1761476471864590000,5.757590087890625,0.04128595011234283,-0.04182345452252775,-0.005341540266113588
1761476471874623000,5.767623046875,0.05921615907847881,-0.04406136964242905,-0.009758951424632687
1761476471884656000,5.77765625,0.09240238936543464,-0.012309957931563257,-0.014882968491036444
1761476471894690000,5.78768994140625,0.09385258817374706,-0.008082732157967985,-0.025407212049607185
1761476471904723200,5.79772314453125,0.06566577360928058,-0.0139466557553038,-0.02190114472399
1761476471914756000,5.807756103515625,0.047208325898647305,-0.036518918373622,-0.01050076450157212
1761476471924789200,5.817789306640625,0.055255438753962514,-0.019791143999807536,0.001303203540321556
1761476471934822100,5.827822265625,0.06227028595209121,-0.019769955081306398,0.004203556632818072
1761476471944856000,5.83785595703125,0.025001754787564275,-0.006684446199983358,0.015722972112288697
1761476471954889000,5.847888916015625,-0.04071428770422935,-0.00168758776076138,0.046945094685466024
1761476471964922000,5.857922119140625,-0.08043079654276371,-0.008414959787018597,0.05772891619540751
1761476471974955000,5.867955078125,-0.04910802204012871,-0.005189787195436656,0.040807103387103416
1761476471984989200,5.8779892578125,-0.006440262180566788,-0.0008384966507554054,0.03092524938529823
1761476471995022000,5.88802197265625,0.06182254218459129,-0.0034189050653949376,0.024175800241262185
1761476472005055200,5.89805517578125,0.08747019366025924,0.008726911813020705,0.02816443605258828
1761476472015088000,5.908088134765625,0.09341127414703368,0.01777454348038882,0.03471756119021447
1761476472025121300,5.918121337890625,0.07722352493405342,0.013512502121739088,0.04199591131287161
1761476472035155000,5.928155029296875,0.07554770067632198,0.010658427864871919,0.051376359697757286
1761476472045188000,5.93818798828125,0.06504676492810249,0.010580065399035811,0.05531751680527813
1761476472055221000,5.948220947265625,0.04466039498150348,0.009239793238602578,0.05133818311183713
1761476472065254100,5.958254150390625,0.01035012910068035,0.002541245448030531,0.05960806273920461
1761476472075287000,5.968287109375,-0.016920739662647247,-0.009863770355843007,0.04063495255743619
1761476472085321200,5.9783212890625,-0.032358547291159626,-0.019727577244304118,0.013123975444899405
1761476472095354000,5.98835400390625,0.014147183296084402,-0.028085801875405013,-0.010740372810570989
1761476472105387300,5.99838720703125,0.02531564304232597,-0.03153031630609184,-0.014786163902922998
1761476472115420200,6.008420166015625,0.02641980489194393,-0.021901816010847685,-0.015360318520577856
1761476472125454000,6.0184541015625,-0.008099719825387,-0.018929449136555195,0.009495676828967407
1761476472135487000,6.028487060546875,-0.025712533405423163,-0.024447628036141394,0.016613532310421578
1761476472145520000,6.03852001953125,-0.002939560583233833,-0.02091923471428454,0.017445834399119484
1761476472155553000,6.048552978515625,-0.004409633135795593,-0.005248385514877736,0.019972717961657324
1761476472165586200,6.058586181640625,0.047242812690138816,-0.004433269739709794,0.02037667281978065
1761476472175620000,6.0686201171875,0.08051964386999606,0.0010362477125599979,0.025212801439070606
1761476472185653200,6.0786533203125,0.042756022664904594,-0.0011085822964087128,0.015352183163183507
1761476472195686100,6.08868603515625,-0.008918634992837906,0.002599186180345714,0.033243406117579435
1761476472205719300,6.09871923828125,-0.02424947511553764,0.02304017239101231,0.04681848176426719
1761476472215752200,6.108752197265625,-0.03720014210343361,0.028097382715344427,0.04691503290734254
1761476472225786000,6.1187861328125,-0.01201543196439743,0.014338979541137813,0.02199449469640385
1761476472235819000,6.128819091796875,0.01764203967452049,-0.0011440189359709619,0.020143507951300123
1761476472245852200,6.13885205078125,0.04565525123775005,-0.017586656225472688,0.011063288046937668
1761476472255885000,6.148885009765625,0.043460956063866615,-0.019510427362285553,0.0024488601650635247
1761476472265918000,6.15891796875,0.0296235693693161,-0.009084310415945946,0.0032449638520294683
1761476472275952000,6.1689521484375,0.00921732567846775,-0.0028942966694012282,0.017130372958490625
1761476472285985300,6.1789853515625,0.00826397047638893,0.00045844782460480925,0.03969902341419365
1761476472296018200,6.18901806640625,-0.01708265222609043,-0.002597688343003392,0.05955696273962967
1761476472306051000,6.199051025390625,-0.003525836038589477,0.0014535232765600084,0.05505425819263327
1761476472316084200,6.209084228515625,0.034872575938701626,-0.011758863387443124,0.05078514777238015
1761476472326118100,6.2191181640625,0.03886135331392288,-0.05010707954745739,0.02581714227407938
1761476472336151000,6.229151123046875,0.027305355554819104,-0.04726352668460458,0.015844546957121928
1761476472346184000,6.239183837890625,0.00005669862329959869,-0.02959642563406378,0.025712894165026954
1761476472356217000,6.249217041015625,-0.01987199068367481,-0.020472367729619145,0.03700166952242143
1761476472366250000,6.25925,-0.017825579547882078,-0.014918825255706905,0.01725603146504145
1761476472376284200,6.2692841796875,0.020098785176873205,-0.025939437496475874,0.0004643241533092805
1761476472386317000,6.279317138671875,0.016087211447954178,-0.03495199785046279,-0.006568806763947941
1761476472396350200,6.28935009765625,0.04063303916156292,-0.03015135610308498,0.0033943745539814696
1761476472406383000,6.299383056640625,0.04558861574232578,-0.01727240264452994,0.018801435417780885
1761476472416416300,6.309416259765625,0.027401801666617393,0.003469904600270092,0.03170347634933423
1761476472426450000,6.319449951171875,-0.003592471534013748,0.008363302665017544,0.03673006548982812
1761476472436483000,6.329483154296875,-0.025594459983706474,0.012974997711554168,0.040214740684255956
1761476472446516000,6.339515869140625,-0.03595744856595993,0.0101897874398157,0.03394637360502965
1761476472456549000,6.349549072265625,-0.06838204683065414,0.002066102216951549,0.026541791870375163
1761476472466582000,6.35958203125,-0.06972820074260234,0.004639423303678632,0.02665564805798931
1761476472476616200,6.3696162109375,-0.07572890246212483,0.00003583849836140871,0.04997252991497517
1761476472486649000,6.379649169921875,0.025586861199140547,-0.01891147508844733,0.02224025646826485
1761476472496682200,6.38968212890625,0.10121347233057021,-0.03245587018579244,-0.00336598185984767
1761476472506715100,6.399715087890625,0.06719839000403881,-0.04374861389882862,0.007925019703962607
1761476472516748300,6.409748291015625,0.04203881430625915,-0.043343869022838766,0.0025811716038646407
1761476472526782000,6.419781982421875,0.04934826053678989,-0.05004486449882388,-0.02113813587868353
1761476472536815000,6.429815185546875,0.025496260306239128,-0.03218717277962714,-0.01950524658038048
1761476472546848000,6.439847900390625,0.01863455784320831,-0.008297799680754541,-0.0003972240086484817
1761476472556881200,6.449881103515625,0.05316811108589172,-0.0018604966422542928,0.018268751029897248
1761476472566914000,6.4599140625,0.04067863186895847,-0.0019028379466384648,0.033131808102421924
1761476472576947200,6.469947265625,0.03598550561666489,0.00848396990261972,0.03213748385242652
1761476472586981000,6.479981201171875,0.009199790021777152,-0.011411511254496872,0.0338604397540912
1761476472597014300,6.49001416015625,0.021062661772966385,-0.03201050103846937,0.026878860071324742
1761476472607047200,6.500047119140625,0.0461368972748518,-0.04420238554831594,0.019268649929086678
1761476472617080300,6.510080322265625,0.019151275193691253,-0.048453065262734886,0.0183950043331366
1761476472627113200,6.52011328125,0.0134065940618515,-0.015133856245875358,0.03651361657741945
1761476472637147100,6.530147216796875,0.02859188823401928,0.02424487200565636,0.050093188019422814
1761476472647177000,6.540177001953125,0.01322188514471054,0.05086538710147142,0.043680402934248554
1761476472657209900,6.5502099609375,0.020569325298070908,0.052123570469021795,0.031103567377559375
1761476472667242800,6.56024267578125,0.03612169921696186,0.03184365657158196,0.025828428569785317
1761476472677276000,6.57027587890625,0.038512978267669674,0.0043830739224329585,0.04174812426399439
1761476472687310000,6.58031005859375,0.047374914637207985,-0.020327771627157924,0.05017274692850187
1761476472697343000,6.590343017578125,0.050315644264221186,-0.027117212571576236,0.04274608579277992
1761476472707375900,6.6003759765625,0.03822539349794388,-0.024837029212526975,0.0420715475320816
1761476472717408800,6.61040869140625,0.029044892698526382,-0.008703969328850506,0.049120813023042866
1761476472727441700,6.620441650390625,0.049964931130409236,0.005620433697663248,0.03549302765829489
1761476472737474800,6.630474853515625,0.0488555085837841,-0.0068328416947275395,0.009751716824603499
1761476472747508700,6.6405087890625,0.012071546065807341,-0.03547956538852304,0.005578480552346445
1761476472757542000,6.6505419921875,0.0032341596156358716,-0.028279570881836115,-0.006979528147930978
1761476472767574800,6.66057470703125,0.0033469723403453827,-0.04494169614091515,-0.011319344025594182
1761476472777608000,6.67060791015625,-0.010323241093754768,-0.04827149815075099,0.010504560468922135
1761476472787640800,6.680640869140625,0.027612814068794247,-0.03840754513181746,0.01838748888860573
1761476472797675000,6.690675048828125,0.037705169016122815,-0.02940970742292702,0.012207858397113159
1761476472807708000,6.7007080078125,-0.0006803834795951843,-0.02019724058266729,0.029058400634070856
1761476472817740800,6.71074072265625,-0.059388008514046665,-0.0023845205163583157,0.050419826157903296
1761476472827773700,6.720773681640625,-0.054009238085150714,-0.005395794628933072,0.053147282926994374
1761476472837806800,6.730806884765625,-0.03796761934459209,-0.006858560657873749,0.04451807303451933
1761476472847839700,6.74083984375,0.008306056052446364,-0.013963095433451235,0.03950033620405011
1761476472857874000,6.7508740234375,0.039305005428195,-0.007814144349656998,0.032441576798958704
1761476472867906800,6.76090673828125,0.04230360272228718,-0.003747479432635009,0.013335562094167107
1761476472877940000,6.77093994140625,0.039890111839771265,0.00588164191711694,-0.002752586643770337
1761476472887972900,6.780972900390625,0.05407821166813373,-0.006806209416128695,-0.037033521398832085
1761476472898006000,6.791006103515625,0.048803486135601995,-0.04207436054367572,-0.041743913879757746
1761476472908039000,6.801038818359375,-0.006153846454620361,-0.054388227465376256,-0.016135989342990795
1761476472918072800,6.81107275390625,0.023720482805371285,-0.026801351555436847,0.0020937414258369244
1761476472928105700,6.821105712890625,0.027399463579058647,-0.00604366407841444,0.023302156928600742
1761476472938139000,6.831138916015625,0.0010153145223855973,-0.0017974413434043526,0.033201859397639054
1761476472948171800,6.841171875,0.029576223096251485,-0.018281616219691932,0.012533608336315956
1761476472958205000,6.851204833984375,0.0382633874207735,-0.056849612610228355,-0.017661657690443096
1761476472968238800,6.86123876953125,0.023788871866464615,-0.06341762935630976,-0.022762775655160657
1761476472978272000,6.87127197265625,0.027134090641140935,-0.06440061251167208,-0.027182790904364082
1761476472988305000,6.881304931640625,0.0035211598634719847,-0.0452032696865499,-0.026348719266976694
1761476472998338000,6.891338134765625,-0.03285480637550354,-0.021302315747737884,-0.012490878872864413
1761476473008371000,6.901370849609375,-0.058358080944418904,-0.01737118684388697,-0.004843729687144514
1761476473018403800,6.91140380859375,-0.023619360518455503,-0.011225998619757592,0.003660054594220128
1761476473028437800,6.921437744140625,0.06002221476435661,-0.013705577008426189,-0.012470511938270647
1761476473038471000,6.931470947265625,0.05915478428006172,-0.024647936381213365,-0.01905104338934179
1761476473048503800,6.94150390625,0.04697685523033142,-0.018816526813991367,-0.01477780021666549
1761476473058536700,6.95153662109375,0.05744856488406658,-0.01402713711299002,-0.016440806092019193
1761476473068569900,6.96156982421875,0.029479192462563513,-0.014170125780254601,-0.011717816707713062
1761476473078602800,6.971602783203125,-0.008829787665605545,0.007382584531977772,0.016986251780064774
1761476473088637000,6.981636962890625,-0.02784545378088951,0.020174115435406564,0.03849907760648057
1761476473098669800,6.991669921875,-0.04685293658971786,0.004433087076619267,0.06016793881140183
1761476473108703000,7.001702880859375,-0.00030804303586483,-0.00041340310648083686,0.056584340137010435
1761476473118736000,7.01173583984375,0.0784311471581459,-0.002525536422245204,0.042775896409153934
1761476473128769000,7.02176904296875,0.10016659362614154,-0.004224778088182211,0.005468383799464209
1761476473138802000,7.031802001953125,0.08106091113984584,-0.005684913768619298,-0.010597623888612724
1761476473148834800,7.041834716796875,0.044286885493993754,-0.02281977110598236,-0.015637848828814457
1761476473158868700,7.05186865234375,0.02426350364089012,-0.0436816496098414,-0.010339298321056413
1761476473168902000,7.06190185546875,0.031768180182576176,-0.03500091502610594,-0.01686260485079838
1761476473178934800,7.071934814453125,-0.0060942252218723295,-0.026120493151806295,-0.010299756328534568
1761476473188968000,7.081968017578125,-0.06879939545989036,0.002719926483184099,0.0085387950875971
1761476473199000800,7.092000732421875,-0.04862637600302696,-0.0012669146632775664,0.0023500051837589127
1761476473209034000,7.102033935546875,-0.024573884764313696,-0.012697569009661673,0.004471194022236159
1761476473219068000,7.11206787109375,-0.04825345103740692,-0.024346176955662668,-0.0073051239651511415
1761476473229101000,7.12210107421875,-0.05921323646903038,-0.03226327022314072,0.008287508898891974
1761476473239134000,7.132134033203125,-0.04998655844032764,-0.03329922567475587,0.03010859010701533
1761476473249166800,7.142166748046875,-0.045564065822958945,-0.006760908969677984,0.04261843169196509
1761476473259199700,7.15219970703125,0.020944588351249693,0.01374379012696445,0.02918685845248401
1761476473269233000,7.16223291015625,0.07532850496768952,0.002706044088304043,0.00622430417521391
1761476473279266800,7.172266845703125,0.09577332710325717,-0.0010900237264111637,-0.0059808234086958685
1761476473289300000,7.182300048828125,0.06806523596644401,-0.004084602432511747,0.014070992237736935
1761476473299332900,7.192332763671875,0.03321253377199173,0.0001721051638945937,0.04833435252020135
1761476473309366000,7.202365966796875,0.03278349470496177,0.010301759914308786,0.04057568295113742
1761476473319399000,7.21239892578125,0.010815993046760558,0.0048573769032955166,0.020792032704618758
1761476473329431800,7.222431884765625,0.019505495458841324,-0.01940298493243754,-0.006438659311947413
1761476473339465000,7.23246484375,0.016349661776423455,-0.033653080613724885,-0.015081050629692616
1761476473349499000,7.242498779296875,0.014833411994576454,-0.03582808656524867,-0.015008092708047479
1761476473359531800,7.25253173828125,0.0514870261311531,-0.02072024154346436,-0.006097179797361604
1761476473369564700,7.262564697265625,0.06301730492711066,-0.008301489475183188,0.0071902402976527805
1761476473379597800,7.272597900390625,0.03507131338119507,-0.00851874895505607,-0.00418437986242352
1761476473389630700,7.282630615234375,0.008196750459074973,-0.027710136963427064,-0.006476301608327776
1761476473399663900,7.292663818359375,0.0004945055186748505,-0.029735834104754028,-0.011970942085410934
1761476473409697800,7.30269775390625,0.05052373405694961,-0.03814264711793512,-0.029405832682119215
1761476473419731000,7.31273095703125,0.06534954726696014,-0.0382181235069409,-0.044107355075469236
1761476473429763800,7.322763916015625,0.030030981126427648,-0.049995107072964305,-0.03692223619421711
1761476473439797000,7.332796875,0.018502455896139143,-0.05395754443053156,-0.028728068134584464
1761476473449830000,7.342829833984375,-0.018458032232522962,-0.06673300098199397,-0.03189229518601205
1761476473459863000,7.352863037109375,-0.05704407573640346,-0.06519695052113383,-0.019240711609390563
1761476473469896000,7.36289599609375,-0.0684013360530138,-0.06312675665095448,-0.019965498203004244
1761476473479929000,7.37292919921875,-0.021460721179842948,-0.051098903596401214,-0.028249470287805886
1761476473489962800,7.382962646484375,0.019866729986667633,-0.04021349857524037,-0.03464907623099862
1761476473499996000,7.392995849609375,-0.04490940130650997,-0.05700969854276627,-0.0065625779525609685
1761476473510028800,7.40302880859375,-0.08302315112352371,-0.05271536234971136,0.001217056772718206
1761476473520062000,7.41306201171875,-0.04181669598817825,-0.043522403927519916,-0.011864979226596187
1761476473530094800,7.4230947265625,0.010183540362119674,-0.06325739729329943,-0.013434979906119405
1761476473540128000,7.4331279296875,0.03405424529314041,-0.05220401529408991,-0.002499602829967625
1761476473550162000,7.443161865234375,0.026797406032681464,-0.038701194316148754,-0.005572244891093578
1761476473560195000,7.453195068359375,0.041544308787584305,-0.02670771845523268,-0.0221718514241511
1761476473570228000,7.46322802734375,0.05630056389272212,-0.01309179249163717,-0.0061063586176605894
1761476473580261000,7.47326123046875,0.05700608181357383,-0.003780614517256617,0.00460286100282101
1761476473590293800,7.483293701171875,0.0952665466248989,0.00006265344005078077,0.007440214737039059
1761476473600326700,7.49332666015625,0.08520692490339278,-0.0014325535537675022,0.014521090075816027
1761476473610359800,7.50335986328125,0.07187631868720054,-0.006287007847614586,0.021835269563680048
1761476473620392700,7.513392822265625,0.05092705416083335,-0.008235036642849445,0.023044942180963698
1761476473630427000,7.523427001953125,0.009483867660164833,-0.010438172710314393,-0.0051707696844241575
1761476473640459800,7.533459716796875,-0.005651742151379585,-0.0068916957424953575,0.005047134171600919
1761476473650492200,7.5434921875,0.012699322575330733,0.008874686253257096,0.0278124922262039
1761476473660525300,7.553525390625,0.007393617382645607,0.016184607407823202,0.021694721731962636
1761476473670558200,7.56355810546875,0.017967033845186234,0.006547850740887224,0.002261898783687502
1761476473680591400,7.57359130859375,0.04325461983680725,-0.011806246193125843,0.0091286815639236
1761476473690624300,7.583624267578125,0.029524785169959065,0.0020661752821877597,0.029257850462617353
1761476473700658400,7.593658447265625,-0.0198158765822649,0.021925781408324838,0.055808812020136975
1761476473710691300,7.60369140625,-0.04146773642003536,0.04130973284672945,0.07859563527116552
1761476473720724200,7.61372412109375,-0.05789397056400775,0.03450461940914392,0.06590306209702976
1761476473730757000,7.623757080078125,-0.06684358521699905,-0.002523892454430461,0.051209300601738506
1761476473740790300,7.633790283203125,-0.0424245987534523,-0.03248290432319045,0.0487620398803614
1761476473750823200,7.6438232421875,0.0004208557605743408,-0.041585846374370156,0.01901942440837156
1761476473760856000,7.65385595703125,0.024740473502874373,-0.030754655758477745,-0.02634621449934784
1761476473770889200,7.66388916015625,0.08423369595706462,-0.011322152470611035,-0.048002736812504006
1761476473780923400,7.67392333984375,0.09522153843939304,-0.018631890962086617,-0.06699233690476976
1761476473790956300,7.683956298828125,0.08177987306416035,-0.022308862441778182,-0.0679775850824546
1761476473800989200,7.6939892578125,0.07621230206489563,-0.02169160732626915,-0.06609961214901414
1761476473811022300,7.704022216796875,0.016147417202591895,-0.02520991764552891,-0.01675858050403185
1761476473821055200,7.71405517578125,-0.007407645907998085,-0.01478862300477922,-0.0032902577340253626
1761476473831088400,7.72408837890625,0.02082709945142269,-0.027238025939650832,-0.021634799105115232
1761476473841121300,7.734121337890625,0.07316285136640072,-0.0275058100303635,-0.021986752064654138
1761476473851155200,7.7441552734375,0.04575988065600395,-0.015115005414932966,-0.011578931110119447
1761476473861188000,7.75418798828125,0.0035562311768531796,0.0007501242475584149,0.002146702305646613
1761476473871221200,7.76422119140625,-0.02518938631415367,0.00451276471670717,0.02107049345297273
1761476473881254100,7.774254150390625,-0.007274374917149543,-0.003843194892071187,0.02230453332653269
1761476473891287300,7.784287353515625,-0.014670330387353896,-0.009654803780280052,0.02985507200367283
1761476473901320200,7.7943203125,-0.04316752607524395,-0.006029343292117118,0.03969296813274268
1761476473911353300,7.804353271484375,-0.04514671719372272,0.0028076778318732974,0.026683748491178265
1761476473921386200,7.81438623046875,-0.005506780722737312,0.007292823889292776,0.01764886670752894
1761476473931419400,7.82441943359375,0.047779988306760786,0.013596307947672902,0.008607934209005907
1761476473941453300,7.834453369140625,0.0570814851373434,-0.020410591072402895,-0.013749169554980472
1761476473951486500,7.844486572265625,0.0017296002715826034,-0.05063950592372566,-0.012105941525753587
1761476473961519400,7.854519287109375,-0.04838672202825546,-0.06491141157802194,-0.00029845779018942265
1761476473971552300,7.86455224609375,-0.03326806335151195,-0.053420040020346636,0.003636602936685085
1761476473981585200,7.874585205078125,-0.0002139350116252899,-0.033888862130977214,-0.0037588776094838973
1761476473991618000,7.8846181640625,0.033737434428930284,-0.0584924113811925,-0.01864855896909721
1761476474001651200,7.894651123046875,0.05273147323429584,-0.07080448820460587,-0.01896716906474903
1761476474011684000,7.90468408203125,0.05033317992091178,-0.08994991817940026,-0.011577899063657969
1761476474021718300,7.91471826171875,0.027442718198895454,-0.07842256199289113,-0.015603670281288213
1761476474031751200,7.924751220703125,-0.01566226403415203,-0.05889938474688679,0.0034492819373495875
1761476474041784300,7.934784423828125,-0.020634207227826117,-0.05455280690994113,0.02783307378992904
1761476474051817200,7.944817138671875,-0.06440086823999881,-0.06343436129540204,0.02033034717673436
1761476474061850400,7.954850341796875,-0.10595160676836966,-0.0723485758414492,0.020677576012094506
1761476474071883300,7.96488330078125,-0.09349369173347949,-0.07955204094685614,0.03567294623588677
1761476474081916400,7.97491650390625,-0.07087327912449837,-0.10315602123308926,0.02151041010704357
1761476474091949300,7.98494921875,-0.06082710140645504,-0.0823946439616382,0.003524534564069472
1761476474101983200,7.994983154296875,-0.014127894073724745,-0.02292973428647965,0.009391554300789721
1761476474112016100,8.00501611328125,0.004297404932975769,0.039188393311202524,0.0009559581511188298
1761476474122049300,8.01504931640625,0.007920271605253219,0.0867407468745485,-0.00702695319445338
1761476474132078000,8.025078125,0.03247895880043507,0.1251269934900105,-0.0030973129947902633
1761476474142112300,8.0351123046875,0.057171501508355135,0.14402717999946324,-0.02919666289386805
1761476474152145200,8.045145263671875,0.07528174321651458,0.13955284759700298,-0.051717989909392775
1761476474162178300,8.05517822265625,0.10807166766226291,0.15574552871342748,-0.06167526550127659
1761476474172211200,8.065211181640626,0.13238777827322482,0.16062953789532183,-0.08677324263835326
1761476474182244400,8.075244384765625,0.11862637942433357,0.16156813391968608,-0.07587478633937425
1761476474192277200,8.08527734375,0.0585585719525814,0.134196946587041,-0.07226905346498824
1761476474202310400,8.095310302734376,0.038328853872418404,0.0805225664794445,-0.07303859023249241
1761476474212343300,8.10534326171875,0.05114098917245864,0.04946439772974699,-0.07008280003366525
1761476474222376400,8.11537646484375,0.06959434522986412,-0.0022648396594449876,-0.07007185851454269
1761476474232410000,8.12541015625,0.08084580708444118,-0.040341253140755,-0.06613901714421809
1761476474242443300,8.135443359375,0.05157821154594421,-0.0700141415445134,-0.0501239439172903
1761476474252476200,8.14547607421875,0.0473392588019371,-0.09973726229816675,-0.017650830335752106
1761476474262509300,8.15550927734375,0.064366965970397,-0.11571093036904931,-0.014701150217303074
1761476474272542200,8.165542236328125,0.046378889337182046,-0.13438552796170114,-0.011281267904373816
1761476474282575400,8.175575439453125,0.01041676459610462,-0.15213617910984903,-0.02633746950388886
1761476474292608300,8.185608154296874,-0.028422961407899856,-0.17469919897578656,-0.02419595026343595
1761476474302641200,8.19564111328125,-0.05112286899387836,-0.18805782571006566,-0.01975526896882802
1761476474312674300,8.20567431640625,-0.05381166968643665,-0.1836315702330321,-0.011614669143781065
1761476474322708500,8.21570849609375,-0.02228665060997009,-0.10631108773052692,0.008737273376830853
1761476474332741400,8.225741455078126,0.006660042411088943,-0.021652371294423937,0.04581563399781007
1761476474342774300,8.235774169921875,0.027349779218435285,0.03665500237606466,0.051959739943128073
1761476474352807200,8.24580712890625,0.049210313370823856,0.05948018030952662,0.04856418378727976
1761476474362840000,8.255840087890626,0.016597499057650567,0.06261738235671073,0.05211603104996029
1761476474372873200,8.265873291015625,0.031125790625810622,0.035574294467270375,0.050968705912050785
1761476474382906000,8.275906005859374,0.09192425045967101,0.01844283466339111,0.06382510047892574
1761476474392939300,8.285939208984376,0.11986498130857944,0.05265749468263238,0.0968156483635772
1761476474402972200,8.29597216796875,0.12783785988390445,0.054363750611245626,0.11493210061681457
1761476474413005300,8.30600537109375,0.16087854422032832,0.031475115520134565,0.11428743690457194
1761476474423039200,8.316039306640626,0.1224415537983179,0.044654988154023884,0.1255820437811315
1761476474433072400,8.326072265625,0.03196925571262836,0.06793192844297737,0.12538597321975975
1761476474443105300,8.336105224609375,0.0031499884635210035,0.062374951902963216,0.11373725567590445
1761476474453138400,8.346138427734376,-0.03421440429091453,-0.004424721107073128,0.09708876621653326
1761476474463171300,8.35617138671875,-0.06997662254571914,-0.06916709626112133,0.08144819342438131
1761476474473204200,8.366204345703125,-0.07631926957070827,-0.09043032210748642,0.05216582957501523
1761476474483237400,8.3762373046875,-0.1175964518547058,-0.08745094097051768,0.033293946711439634
1761476474493270300,8.386270263671875,-0.11748714626133441,-0.08695990605056285,0.04375755525710992
1761476474503303200,8.39630322265625,-0.12162731480598449,-0.08058580444138497,0.06002015067143365
1761476474513337000,8.406337158203126,-0.06774316440522671,-0.07133556287400424,0.059885774568887426
1761476474523370200,8.416370361328125,-0.0011550152540206909,-0.06392495782393962,0.030607424740935675
1761476474533403100,8.426403076171875,0.02969721912741661,-0.04621379843596369,0.007071897447877563
1761476474543436300,8.436436279296874,0.0682183807015419,-0.050255073183402416,0.0019217253101989626
1761476474553469200,8.44646923828125,0.08956862724423408,-0.06244849206320941,-0.0011771448874380438
1761476474563502300,8.45650244140625,0.08790566246807574,-0.05244805318303406,0.002641920210374519
1761476474573535200,8.46653515625,0.07684826188087462,-0.02646200006585568,0.007094565937411971
1761476474583568400,8.476568359375,0.07106091065108776,-0.0066900722231715915,0.015283397951512597
1761476474593601300,8.486601318359375,0.060654082927107805,-0.003834828922525048,0.026419110772199928
1761476474603634400,8.496634521484374,0.029631168153882025,-0.01780135842207819,0.01828450229652226
1761476474613668000,8.506668212890625,0.00041501054167747495,-0.010371244953945279,0.012205191515991464
1761476474623701200,8.516701171875,0.009791910696029662,-0.005141819867864251,-0.008063342470908537
1761476474633734100,8.526734130859374,0.01569967343509197,-0.031204189624264835,-0.03427500277119688
1761476474643767300,8.536767333984375,0.01259703124463558,-0.039326998064294454,-0.03383359741293825
1761476474653800400,8.546800537109375,0.023240005812048912,-0.0193419754602015,-0.005460781589965336
1761476474663833300,8.556833251953124,0.011716741278767585,0.013796872021071611,0.020433857783558777
1761476474673866200,8.5668662109375,0.011409282764792441,0.03382065573297441,0.02432351303270552
1761476474683899400,8.5768994140625,0.0022679449319839475,0.027032529962807892,0.04034777421308681
1761476474693932300,8.586932373046874,0.0070651160806417465,0.004805062194168567,0.05062883383266162
1761476474703965400,8.59696533203125,0.00888531724512577,-0.017553886467032133,0.03830012553485576
1761476474713998300,8.606998291015625,0.007265607088804245,-0.025538163219206034,0.023988202964002264
1761476474724032500,8.617032470703125,-0.0036363106757402418,-0.016213650839217005,0.03390634298874065
1761476474734065400,8.6270654296875,-0.004372808256745338,-0.01884301296211779,0.0367567365843337
1761476474744098300,8.637098388671875,-0.026952888855338097,-0.036158341432921584,0.015356924412027
1761476474754131200,8.647131103515624,-0.0667372022330761,-0.032176249526813624,0.024552321386476977
1761476474764164400,8.657164306640626,-0.09411328493654728,-0.0178540749900043,0.013659500243840739
1761476474774197200,8.667197265625,-0.0622621026456356,-0.022000636742822825,-0.02350377131476998
1761476474784230400,8.67723046875,-0.02867196773290634,-0.03348451911378652,-0.0411221835185308
1761476474794263300,8.68726318359375,0.0083393738001585,-0.03719422381930053,-0.050456660170108074
1761476474804296400,8.69729638671875,0.03171966486573219,-0.04552314929068088,-0.05568908093087375
1761476474814329300,8.707329345703124,0.06213701496124267,-0.03497358862776309,-0.06696822537682019
1761476474824362200,8.7173623046875,0.05996376257538795,-0.0240858089864254,-0.06760181970577686
1761476474834396400,8.727396484375,0.0721878688544035,-0.028060996227711438,-0.06383630229295231
1761476474844429600,8.7374296875,0.07920680770576,-0.041353645053692156,-0.030659269092604517
1761476474854462500,8.74746240234375,0.052310032951831814,-0.03621555151287466,-0.0022216946374624966
1761476474864495400,8.757495361328125,0.03158697839677334,-0.030186683144792913,0.011458528733998536
1761476474874528500,8.767528564453125,0.005636544582247734,-0.026245726966671643,0.017333412116765975
1761476474884561400,8.7775615234375,0.023501287096738814,-0.007290412736497819,0.022822218791395423
1761476474894594300,8.78759423828125,0.04536357481479644,0.005658573750965297,0.02452407253952697
1761476474904627200,8.797627197265625,0.03712356973588466,-0.0012196414554491639,0.022733892053971066
1761476474914660400,8.807660400390626,0.024091069683432578,-0.013440167537890374,0.013265121498238294
1761476474924693200,8.817693359375,0.03232055336833,-0.01079392734542489,0.022457331001758573
1761476474934726400,8.827726318359375,0.056282443714141844,0.0028429318083450198,0.024951093179406598
1761476474944759300,8.83775927734375,0.0672381374925375,0.007622932626493275,0.02485752401128411
1761476474954793500,8.84779345703125,0.032280221357941626,0.012699066847003995,0.034286720608454196
1761476474964826400,8.857826416015625,-0.028438743498921393,0.02209931134432554,0.04449553240914829
1761476474974859500,8.867859619140624,-0.04743570491373539,0.029160810695774853,0.048597003778070205
1761476474984892400,8.877892333984375,-0.016926000359654424,0.0386252064704895,0.08397604053472169
1761476474994925300,8.88792529296875,-0.04551671954989433,0.029618052943982183,0.10219516771114431
1761476475004958500,8.89795849609375,-0.0703185678511858,-0.007278978027030825,0.0676890961304307
1761476475014991400,8.907991455078125,-0.006925999870896339,-0.048921303828991944,0.0173891152262222
1761476475025024500,8.9180244140625,0.04558218600153923,-0.07264587828759103,-0.026307101765088735
1761476475035057400,8.928057373046874,0.09688625678122043,-0.07424403419923037,-0.028610474203480406
1761476475045090600,8.938090576171875,0.11521686324179171,-0.058130738461948925,-0.04064482093090191
1761476475055123500,8.94812353515625,0.07120937921106815,-0.03739577427338808,-0.03548729203725234
1761476475065156400,8.95815625,0.03313596140444278,-0.019838855599053202,-0.005438693055743351
1761476475075190300,8.968190185546876,0.01914309188723564,-0.026835619151219722,0.014793518375605344
1761476475085223400,8.978223388671875,0.03750058635473251,-0.0569498581143096,0.00038015842400491236
1761476475095256300,8.98825634765625,0.028075170883536338,-0.07802658494524657,0.0025044753679074345
1761476475105289500,8.99828955078125,0.012707505881786346,-0.06832275439146905,0.01464079376561567
1761476475115322400,9.008322265625,0.006167290458083153,-0.04982263658288866,0.0026816585657186806
1761476475125355500,9.01835546875,-0.01175356615781784,-0.01949197839014232,0.014777736284583806
1761476475135388400,9.028388427734376,-0.019678513938188553,-0.012246866100095212,0.03417777120810933
1761476475145421300,9.03842138671875,-0.0339022696018219,-0.014238514841347931,0.05271718898061663
1761476475155454500,9.048454345703124,-0.0428776032179594,-0.008280994676426052,0.037249059279076756
1761476475165487400,9.0584873046875,-0.020415011519193647,-0.019052198733389376,0.011088928236626088
1761476475175520500,9.0685205078125,-0.0013929156631231306,-0.026178360818885266,0.012212224044976756
1761476475185553400,9.078553466796874,0.019716507861018178,-0.021977548128180206,0.013460178279457613
1761476475195586600,9.088586669921876,0.01523439401090145,-0.008079736483283341,0.05495508583420887
1761476475205620200,9.0986201171875,0.04219955782592296,0.008174209833703934,0.0718465354702901
1761476475215653400,9.1086533203125,0.04646422953307628,0.015597199441306293,0.07015795219568535
1761476475225686300,9.118686279296876,0.0277414088845253,-0.004828004678338766,0.06357330397521145
1761476475235719400,9.128719482421875,0.025521979269385337,-0.0384848116191104,0.041711290251789615
1761476475245752300,9.13875244140625,0.052341012611985205,-0.0325257936168462,0.029319791516615075
1761476475255785500,9.148785400390626,0.07315232997238635,-0.029436887690797445,-0.0027479196018073706
1761476475265818400,9.158818359375,0.0876549025774002,-0.036413558303005994,-0.016198526335321366
1761476475275851500,9.1688515625,0.07054945399761199,-0.052296187089569866,-0.021746269256109372
1761476475285884400,9.178884521484376,0.05701017346680164,-0.07001107280459254,-0.019371146755758673
1761476475295917300,9.188917236328125,0.031198855862021445,-0.08896328176222741,-0.0030098310741595922
1761476475305950500,9.198950439453125,-0.027985154512524604,-0.07663892997913062,0.04247228295323439
1761476475315983400,9.2089833984375,-0.020893150424957273,-0.06206486304048448,0.01780782469548285
1761476475326016500,9.2190166015625,-0.0018669629156589508,-0.07728953937496989,0.018671017396077513
1761476475336049400,9.22904931640625,-0.028639819028973577,-0.07204930063392967,0.04470946742077358
1761476475346083300,9.239083251953126,-0.07456921103298664,-0.07679569144342094,0.009523167624091729
1761476475356116200,9.2491162109375,-0.060353054153919214,-0.06943601286299526,-0.005906931622000411
1761476475366149400,9.2591494140625,-0.022351532539725303,-0.07359543409738689,-0.01623431916791014
1761476475376182300,9.269182373046876,-0.004844517421722412,-0.08381821049135178,-0.026856707605021072
1761476475386215400,9.27921533203125,0.01101765309870243,-0.0863836405325681,-0.03993424324244261
1761476475396248300,9.289248291015625,0.06279167947769165,-0.07453490690458565,-0.04416727770231664
1761476475406281500,9.299281494140626,0.08867138614356518,-0.04078106933012605,-0.044870548867154865
1761476475416314400,9.309314453125,0.10437515123188496,-0.021348492977023122,-0.04491983136897906
1761476475426347500,9.319347412109375,0.10781447803080081,-0.011110774742253124,-0.044779847509553654
1761476475436380400,9.32938037109375,0.028234745359420773,-0.015645239834114907,-0.03807033080039546
1761476475446413300,9.339413330078125,-0.04249591042399406,-0.02489942692425102,-0.019588451901404187
1761476475456446500,9.349446533203125,-0.023292028260231017,-0.025099004616960883,-0.024173222408397123
1761476475466479400,9.359479248046876,0.025082418808341025,-0.015588029754161833,-0.04252423233618028
1761476475476512500,9.369512451171875,0.06703355483114719,-0.019433453135937452,-0.03902038893369026
1761476475486546200,9.379546142578125,0.06320259836614131,-0.02652202315740287,-0.024661152055813
1761476475496579300,9.389579345703124,-0.0037602293163537977,-0.02763221288900822,-0.014583410155726596
1761476475506612200,9.3996123046875,-0.059818801146745676,-0.03729063339848071,-0.02260033793533221
1761476475516645400,9.409645263671875,-0.06893091288506985,-0.038845644288137554,-0.018179461886314675
1761476475526678300,9.41967822265625,-0.049075873336195945,-0.058725124158523975,-0.007873409389378503
1761476475536711400,9.42971142578125,-0.01726911470890045,-0.043184879068844016,-0.001672499789483845
1761476475546744300,9.439744384765625,0.026078444108366964,-0.04317103320658207,0.00033623708388768133
1761476475556777500,9.449777587890624,0.04627776705026626,-0.044777591620385644,0.03382219923608936
1761476475566810400,9.459810302734375,0.012343348744511604,-0.019878566554933787,0.04440565303545445
1761476475576843300,9.46984326171875,-0.0141167881578207,-0.020804083902016282,0.049917155599081886
1761476475586876400,9.47987646484375,-0.011880407407879828,-0.01871865593008697,0.06632377172713168
1761476475596909300,9.489909423828125,0.01695113480091095,-0.03632734132427722,0.06475701560075395
1761476475606942500,9.4999423828125,0.033064065212011336,-0.054213674616068595,0.07003938558362424
1761476475616975400,9.509975341796874,0.032307693886756896,-0.06772098910603672,0.048299217274738473
1761476475627008500,9.520008544921875,0.02995207067131996,-0.06877049815896898,0.053022510336432606
1761476475637041400,9.53004150390625,0.05382160655856132,-0.062457552152499554,0.04865146477851085
1761476475647074600,9.540074462890624,0.06678864015936851,-0.0519474101845175,0.03166202552751638
1761476475657111600,9.550111572265624,0.07480535787642002,-0.054279689056985075,0.0037679194324649868
1761476475667144400,9.56014453125,0.06275134746730328,-0.04753394112382084,-0.016550645974930375
1761476475677177600,9.570177490234375,0.05292202737033367,-0.030165348095819354,0.002248007255652919
1761476475687210500,9.58021044921875,0.01689443617761135,-0.03413330187872052,0.025184363079164176
1761476475697243600,9.59024365234375,-0.026631401816010473,-0.055505139198713,0.03350561670074239
1761476475707276500,9.600276611328125,-0.08860299708247184,-0.05554817462284117,0.038021852016169574
1761476475717309700,9.610309814453124,-0.12893559199273585,-0.06596033610906452,0.07212438429729082
1761476475727342600,9.620342529296876,-0.12337620429992675,-0.059499615662358694,0.10615012501515447
1761476475737375700,9.630375732421875,-0.049614217996597286,-0.033404110821336506,0.10626884689084254
1761476475747408600,9.64040869140625,0.004260580053925514,-0.021156441003642976,0.0999318806879688
1761476475757441500,9.650441650390626,0.0725578712105751,-0.03129672674592584,0.11540452216784469
1761476475767474700,9.660474609375,0.1135445461153984,-0.03477817565351724,0.12494836725378408
1761476475777507600,9.670507568359374,0.10760112754106521,-0.028979243583790955,0.12052159118694253
1761476475787540700,9.680540771484376,0.055446577411890026,-0.007860431176796556,0.10269587464174255
1761476475797573600,9.69057373046875,0.02377250525355339,0.0021226181771606205,0.12648428071732631
1761476475807606800,9.700606689453124,0.03679857556521892,0.03565492195542901,0.15822735385810954
1761476475817639700,9.7106396484375,0.026466566643118857,0.03890413300972432,0.1452967889433261
1761476475827673600,9.720673583984375,-0.005841127243638038,0.018577640024200082,0.12265033771079033
1761476475837706500,9.73070654296875,0.020114567267894744,-0.009089169254153966,0.10857661237656138
1761476475847739600,9.74073974609375,0.0031599253356456754,-0.022084369503520426,0.10516097698048688
1761476475857772500,9.7507724609375,0.004752747485041618,-0.008862959282845258,0.06786067157136276
1761476475867805700,9.7608056640625,0.016181903994083403,0.01670804676003754,0.03773286987380124
1761476475877838600,9.770838623046876,0.0010737667113542555,0.022883447459340095,0.029853049009945242
1761476475887871700,9.780871826171875,0.002997428250312805,0.01797390197739005,0.04223276597578078
1761476475897904600,9.790904541015625,0.0016389993786811827,0.0206469205789268,0.05428954373071901
1761476475907937500,9.8009375,-0.006439093136787414,0.025286891871877014,0.048520011285413056
1761476475917970700,9.810970703125,-0.004449965146183967,0.01925170336086303,0.04273185633802786
1761476475928003600,9.821003662109375,0.023146482309699058,0.01661426752936095,0.020786794840497894
1761476475938036700,9.83103662109375,0.06884206555783748,0.0009804624047130347,0.007658296200819313
1761476475948069600,9.841069580078125,0.09041793754994869,0.0029693346669897435,0.00027262466261163354
1761476475958102800,9.851102783203125,0.035059622943401335,0.0016302680829539894,0.005647595699224621
1761476475968135700,9.8611357421875,0.0076899699807167045,-0.0038307738019153475,0.0030603100192267444
1761476475978168800,9.8711689453125,0.0059200376987457275,-0.019942754364944994,-0.005911479932954535
1761476475988201700,9.88120166015625,-0.006761749219894409,-0.012721315211430191,-0.011751218937104567
1761476475998234600,9.891234619140626,-0.028404256707429885,0.0051068216197192665,-0.010864106504805385
1761476476008267500,9.901267578125,-0.022653730356693266,-0.002092661430314183,-0.0220846708976198
1761476476018301700,9.9113017578125,0.017958266016840935,-0.0010891104109585284,-0.054194778119353575
1761476476028334600,9.92133447265625,0.03013853315412998,-0.006813150613568723,-0.07734518768549896
1761476476038367500,9.931367431640625,0.0077472531259059904,0.013950126354023814,-0.06915872115842066
1761476476048400600,9.941400634765625,0.04353285225629806,0.022100699583813548,-0.06791677653961814
1761476476058433500,9.95143359375,0.0737514649093151,0.018189407891593873,-0.06434157580081373
1761476476068466700,9.961466796875,0.08001110982596873,0.035308884996734555,-0.07100603865869343
1761476476078499600,9.97149951171875,0.08389818039238453,0.03843140093144029,-0.054053004161641
1761476476088532700,9.98153271484375,0.06478022294640541,0.04498955387063324,-0.03014036891818978
1761476476098565600,9.991565673828125,0.038677228918671605,0.023509470403194427,-0.005032185480929911
1761476476108598800,10.001598876953125,-0.002669511470198631,0.0047459524180740115,-0.006272111672582104
1761476476118631700,10.011631591796874,-0.022498247534036633,0.008938216476142406,-0.020621073751617224
1761476476128664800,10.021664794921875,-0.017702829951047896,0.00962671019695699,-0.04587877606162801
1761476476138697700,10.03169775390625,-0.016074351966381073,-0.012586327187530695,-0.05887836935832165
1761476476148730600,10.041730712890624,-0.006416881304979324,-0.028610264140926298,-0.03550880061616189
1761476476158763500,10.051763427734375,0.030455928540229795,-0.03143489310760051,-0.02019150496162474
1761476476168796400,10.06179638671875,-0.03707446989715099,-0.011317914686910808,-0.013451401317957789
1761476476178829600,10.07182958984375,-0.0553518848657608,0.0176488347414881,-0.0018909283131361007
1761476476188862500,10.081862548828125,-0.04759703295528889,0.00863276725616306,-0.0007109612809494138
1761476476198895600,10.0918955078125,-0.06529226412177086,0.016379728121124208,-0.002907210949901491
1761476476208928500,10.101928466796876,-0.07956336605846881,0.016454364259913562,0.003726637574005872
1761476476218961700,10.111961669921875,-0.00044599020183086393,0.011578063460439443,0.0074463704831898205
1761476476228994600,10.12199462890625,0.0339589682251215,-0.0010270049601793288,-0.015337635189667343
1761476476239027700,10.13202783203125,0.04897533557116985,-0.030188728971406814,-0.03745435432652011
1761476476249061600,10.1420615234375,0.07183189502358436,-0.0596528699953109,-0.0735765467338264
1761476476259094800,10.1520947265625,0.10053367337286472,-0.058139104431495066,-0.10768632160648703
1761476476269127700,10.162127685546874,0.07549509370625018,-0.03767239925768226,-0.12336027607843279
1761476476279160800,10.172160888671876,0.056698038777709,-0.027119842920079826,-0.12708517835307864
1761476476289193700,10.18219384765625,0.0315665201306343,-0.018779592337086797,-0.1150276973452419
1761476476299226600,10.1922265625,-0.012612228813767433,-0.02048522721119225,-0.10417493421835824
1761476476309259800,10.202259765625,-0.007580664387345314,-0.022917057467997073,-0.09716101860199124
1761476476319292700,10.212292724609375,-0.025296353819966314,-0.022082250611670313,-0.08539218180980533
1761476476329325600,10.22232568359375,-0.06619067426621913,-0.028657025892101225,-0.07284129126183689
1761476476339358500,10.2323583984375,-0.04886953710913658,-0.040426995195448394,-0.07569158439273015
1761476476349391600,10.2423916015625,-0.06537175909876823,-0.03959763169921934,-0.04701459342483431
1761476476359424500,10.252424560546874,0.005353635987639427,-0.04544084130208939,-0.0810092540178448
1761476476369457700,10.262457763671875,0.006038695642352104,-0.029607056625932455,-0.09352236983869225
1761476476379490600,10.272490478515625,-0.005229132825136184,-0.001908537035062909,-0.05216602137126028
1761476476389523700,10.282523681640624,-0.025290508601069447,0.015402444054186342,-0.041346247198525816
1761476476399556600,10.292556640625,-0.018558569997549054,0.024317827644012868,-0.05978595832306891
1761476476409589500,10.302589599609375,-0.028448095849156377,0.038909795565530654,-0.051169959538616236
1761476476419622700,10.31262255859375,0.027485388296842574,0.04479976691957563,-0.045843905677646395
1761476476429655600,10.322655517578125,0.06321721141338348,0.047985192022658885,-0.051146176804229615
1761476476439688700,10.332688720703125,0.06410802277326584,0.044445035197772084,-0.0428876862205565
1761476476449721600,10.3427216796875,0.08539981712698937,0.028748430502600966,-0.0521752458573319
1761476476459754800,10.352754638671875,0.07620821041166782,0.014348916413262485,-0.06276409735102206
1761476476469787600,10.36278759765625,0.030406244179606436,0.0004821940263733267,-0.05511376526094973
1761476476479820800,10.37282080078125,0.027861820393800734,-0.004218677140958607,-0.059364919899404046
1761476476489853700,10.382853759765625,0.030074820268154143,-0.017741919852420688,-0.08577098852694034
1761476476499886600,10.392886474609375,0.026244448325037955,-0.003974237393215298,-0.07619412708738818
1761476476509919700,10.402919677734374,-0.026107670202851294,-0.0011488412415608764,-0.06718648037053644
1761476476519952600,10.41295263671875,-0.04168050238788128,0.013546185195632278,-0.05674807019820437
1761476476529986600,10.422986572265625,-0.014607786545157432,-0.005673734787479043,-0.05237467741956934
1761476476540019500,10.43301953125,0.017115969973802565,-0.032981720690801734,-0.05976411181744188
1761476476550052600,10.443052490234376,0.007860650372505187,-0.040684550153091546,-0.06926558819953352
1761476476560085500,10.45308544921875,-0.004203296908736229,-0.046238494485802945,-0.0766529585044831
1761476476570118700,10.46311865234375,-0.012661328652501105,-0.029012451733648775,-0.07405616521062329
1761476476580151600,10.473151611328126,-0.002865326303243637,-0.01759374355338514,-0.097919928944204
1761476476590184700,10.483184814453125,-0.02929799067676067,0.011588402191363274,-0.08997486995756626
1761476476600217600,10.493217529296874,-0.02718845117688179,0.04620002563893795,-0.057327258325647557
1761476476610250800,10.503250732421876,0.0009270517170429229,0.06803166249040514,-0.06308236951995641
1761476476620283600,10.51328369140625,0.007479542100429534,0.05684036985784769,-0.07778009937088937
1761476476630316800,10.52331689453125,0.021809096226096152,0.023664332171343266,-0.0840357987647876
1761476476640349700,10.533349609375,0.030459435671567916,0.020669388139061627,-0.07425397107135503
1761476476650379000,10.54337890625,0.052877603706717485,0.024454167374782263,-0.08386678060712292
1761476476660412000,10.553411865234375,0.09160919316112995,0.017122107453644276,-0.0681562387181446
1761476476670445000,10.563445068359375,0.11660568725168705,0.0241263236599043,-0.04063093853602186
1761476476680478000,10.57347802734375,0.10228899260759353,0.02492419603932649,-0.012571129618398845
1761476476690511000,10.583510986328125,0.07396423087716102,0.034827421622723335,-0.002930135167762637
1761476476700544000,10.5935439453125,0.03415302949249744,0.0024796514539048072,-0.006637848845589905
1761476476710577000,10.603576904296874,-0.024508418312668798,-0.012296221667155622,-0.00500281325597316
1761476476720609800,10.61360986328125,-0.03532382683753967,-0.016213833502307533,-0.009530391949322073
1761476476730643000,10.623642822265625,-0.03617956688404083,-0.006532726236991584,-0.017209913601260632
1761476476740675800,10.63367578125,-0.03872048353850841,-0.013111410507559776,-0.012153525260835886
1761476476750708700,10.643708740234375,-0.02166238123178482,-0.03545574612151831,0.002584280872158706
1761476476760742000,10.653741943359375,-0.032543840730190274,-0.03523786558713764,0.0025419761003926396
1761476476770774800,10.66377490234375,0.0076291797041893004,-0.017399718818627296,0.003640475394204259
1761476476780808000,10.673807861328125,0.03178513131737709,0.002994249912537634,-0.0046082609804347155
1761476476790840800,10.6838408203125,-0.0022936638951301575,-0.007613397613167762,-0.015358111722115427
1761476476800874000,10.6938740234375,-0.048050621941685676,-0.015612214347347617,0.027754432762879876
1761476476810907000,10.703906982421875,-0.060435471740365024,0.012447649369202554,0.06889448986481875
1761476476820940000,10.71393994140625,-0.03705108902156353,0.018530001490190625,0.06391061877133325
1761476476830973000,10.723972900390624,-0.01933130793571472,-0.002615260532312095,0.0587279737027362
1761476476841005800,10.734005859375,0.017561375653743744,-0.04137465130910277,0.03856047067120671
1761476476851039000,10.7440390625,0.04684124615192413,-0.06407390130795539,0.019322941966168582
1761476476861072000,10.75407177734375,0.11277005461156367,-0.04524813174158335,0.00597089110314846
1761476476871105000,10.76410498046875,0.1250865153491497,-0.014623714766651391,0.017784991809166966
1761476476881138700,10.774138671875,0.1083247656404972,0.018736447315104304,0.04385828481838107
1761476476891171800,10.784171875,0.06566577360928058,0.006474274048022925,0.04559157488439232
1761476476901204700,10.794204833984375,0.02257248181402683,-0.030287586236000058,0.055220641435217106
1761476476911238000,10.80423779296875,0.04055646679401397,-0.013565803211554884,0.1037325881451834
1761476476921270800,10.814270751953124,0.29055530996918677,0.057744625221192836,0.10880946215121075
1761476476931304000,10.824303955078125,0.2637181564480066,0.11739135773666202,0.14781444345321507
1761476476941336800,10.8343369140625,-0.2886117746859789,-0.08547350341770797,0.09973419355824589
1761476476951370000,10.844369873046874,-0.29739304703474045,-0.1972536702090874,0.08770237671462819
1761476476961403000,10.85440283203125,-0.15149696789085865,-0.17324585836231707,0.09306253377459943
1761476476971436000,10.86443603515625,0.004610708665847778,-0.1024940501930192,0.0754504599800799
1761476476981469000,10.874468994140624,-0.04935702836513519,-0.12990703084077684,0.05214213817217387
1761476476991501800,10.884501708984375,-0.059689621809124946,-0.10579809670709073,0.091612682026159
1761476477001535000,10.894534912109375,0.013162263911962508,0.0016800620414316654,0.1515152524662204
1761476477011567900,10.90456787109375,-0.005958616143465042,0.012220635680295527,0.12411290281033142
1761476477021601000,10.91460107421875,0.004833996027708053,-0.04131313038021326,0.09233916966980323
