time,seconds_elapsed,z,y,x
1761476478360479200,0.121479248046875,0.0631856472313404,0.045364488130249084,-0.10718166001997888
1761476478370512400,0.131512451171875,0.062356795191764826,0.03538056199345738,-0.09610212066620588
1761476478380545300,0.141545166015625,0.04924480016231537,0.010051073088869452,-0.08423227118495852
1761476478390578400,0.151578369140625,0.04090717992782592,-0.018417371428571642,-0.0767522176278755
1761476478400611300,0.161611328125,0.026721418187022207,-0.020812230675853787,-0.060573236243240534
1761476478410644500,0.17164453125,0.015365911436080931,-0.014957294102571904,-0.026310828092135488
1761476478420678400,0.181678466796875,0.0065653498649597165,0.0014409560559317468,0.013898067373223601
1761476478430711600,0.191711669921875,-0.010900164198875427,0.007136793077364563,0.048500046209618446
1761476478440744400,0.201744384765625,-0.011306406912207603,0.022293080350756642,0.07347389007695018
1761476478450777600,0.211777587890625,-0.01096796873807907,0.022487433879077433,0.08056717280615121
1761476478460810500,0.221810546875,-0.020051438903808592,0.01771495878025889,0.08665482215676457
1761476478470843400,0.231843505859375,-0.016101824495196343,0.018499021830037234,0.08373374707829206
1761476478480876500,0.24187646484375,0.0025356559574604034,0.019270846452750266,0.08803674150183796
1761476478490909400,0.251909423828125,0.03169628399014473,0.02345737488977611,0.09887744886474684
1761476478500942600,0.261942626953125,0.036383565023541446,0.008342625203169881,0.10440863337637855
1761476478510975500,0.2719755859375,0.030351883643865582,-0.011078187646903097,0.06687717695934697
1761476478521008400,0.28200830078125,0.03631517596244812,-0.006032521629892289,0.05711200813977047
1761476478531041300,0.292041259765625,0.04197802402973175,0.011799122332595289,0.0629729908613488
1761476478541074400,0.302074462890625,0.05554010091423988,0.016619345563277602,0.0915957308913581
1761476478551108400,0.3121083984375,0.06922901904881,0.0038031916752457617,0.07936353263743222
1761476478561141500,0.3221416015625,0.028898177704215048,-0.004680887825228274,0.05715981107056141
1761476478571174400,0.33217431640625,0.04720540328919887,-0.04199957827441394,0.09872276975968852
1761476478581207600,0.34220751953125,0.07851882544159888,-0.08732636474277823,0.14602922227056697
1761476478591240400,0.352240478515625,0.038325346741080284,-0.0311296996159479,0.13130672330455853
1761476478601273300,0.3622734375,0.03794190038144588,0.01377188371028751,0.1392469417192973
1761476478611306500,0.372306396484375,0.07780220160484314,-0.0011296981496736406,0.16355492382273076
1761476478621339400,0.38233935546875,0.10524375075995922,-0.022248985480703413,0.1827620939221233
1761476478631372500,0.39237255859375,0.05934826102554798,-0.023653810777328907,0.21660178314913062
1761476478641405400,0.402405517578125,-0.005877367600798607,-0.035146314846165476,0.23378857160313055
1761476478651435000,0.41243505859375,-0.06785773069560527,-0.05222319491859525,0.26967726578181606
1761476478661468000,0.422468017578125,-0.08408698096275329,-0.07722034659627824,0.3194942580752074
1761476478671501800,0.432501708984375,-0.06787175922095776,-0.10179824994858354,0.32454682875704016
1761476478681534700,0.44253466796875,-0.043433483535051345,-0.11419574003312737,0.3351634633067995
1761476478691567900,0.45256787109375,0.003295534414052963,-0.10728676436226814,0.3484484768155962
1761476478701600800,0.462600830078125,0.061548401418328284,-0.10046331155039369,0.33439266159739345
1761476478711633700,0.472633544921875,0.10619301430881023,-0.10199337066188455,0.3417993211247027
1761476478721666800,0.482666748046875,0.10667699843347073,-0.09127510236855596,0.34025724278185515
1761476478731699700,0.49269970703125,0.15024901365637777,-0.08806297192163764,0.3116898314019665
1761476478741732900,0.50273291015625,0.12408639839589596,-0.08799498471934347,0.3152265906933695
1761476478751765800,0.512765869140625,0.11587678845524788,-0.07112699815724044,0.3141033222844824
1761476478761799000,0.522798828125,0.11770225031673907,-0.04469444338157773,0.3332021366385743
1761476478771831800,0.532831787109375,0.07733984479010104,-0.02837499408032745,0.3457833857921883
1761476478781865700,0.54286572265625,0.034440614262223244,-0.03823321147821843,0.33013774409927427
1761476478791898600,0.552898681640625,0.017872341299057005,-0.0500942931311205,0.3119691963326186
1761476478801931800,0.562931884765625,-0.022498832055926322,-0.03940879459623247,0.334443113142997
1761476478811964700,0.572964599609375,0.01806289543509483,-0.004718991345912218,0.361945964031294
1761476478821997800,0.582997802734375,0.10199147096574306,0.0323219050751999,0.34374274681005623
1761476478832030700,0.59303076171875,0.13638649252057075,0.02784483272638172,0.3087681718016043
1761476478842064000,0.60306396484375,0.08506722417175769,-0.018816928672790525,0.29475089849550273
1761476478852096800,0.6130966796875,0.009078209468722342,-0.05524783996939659,0.3062545450128615
1761476478862129700,0.623129638671875,-0.003153495594859123,-0.08222542487457395,0.31789423900004476
1761476478872162800,0.633162841796875,-0.017781740406155586,-0.07841708210017531,0.28595925088319923
1761476478882197000,0.643197021484375,0.00511690462231636,-0.06258106893431395,0.26934772330019624
1761476478892230000,0.65322998046875,0.015423194581270217,-0.053785037407837806,0.2869928499809466
1761476478902262800,0.6632626953125,0.010910101071000098,-0.032723544678650796,0.3097981724364683
1761476478912296000,0.6732958984375,0.0029506664991378784,-0.015554127484560011,0.32725857193376867
1761476478922328800,0.683328857421875,0.010099369210004806,-0.010748115442320703,0.3281465702820569
1761476478932361700,0.69336181640625,-0.0001233341187238693,-0.012281864348240195,0.3358616747040301
1761476478942394600,0.70339453125,0.042916766184568404,-0.030876601637713608,0.2951794443721883
1761476478952427800,0.713427734375,0.0662099634885788,-0.06637056087777018,0.2301472742250189
1761476478962460700,0.723460693359375,0.08848317009508609,-0.10190876111835241,0.21267587840966878
1761476478972494800,0.733494873046875,0.09446107546091079,-0.12115542297791689,0.22516144863646476
1761476478982527700,0.74352783203125,0.09835632933378219,-0.09946125836838036,0.2143907560361549
1761476478992561000,0.753560791015625,0.08429214814603328,-0.07623045877609401,0.19825776921771465
1761476479002593800,0.76359375,0.053146483775973315,-0.05922671700511127,0.19525769235258922
1761476479012627000,0.773626953125,0.014192776003479957,-0.05378412409238517,0.19627152730394154
1761476479022659800,0.783659912109375,0.019958499923348427,-0.025898849757760762,0.18958481608163563
1761476479032692700,0.793692626953125,0.00431260250210762,-0.00796031135469675,0.16755619535334407
1761476479042726000,0.803725830078125,0.01052139401435852,-0.012858495192416011,0.1312766569598578
1761476479052759800,0.813759765625,0.016763503274321554,-0.027490539395995436,0.11215783186419866
1761476479062792700,0.823792724609375,0.025724223843216893,-0.033722200327180325,0.087473225867562
1761476479072825600,0.83382568359375,0.023788871866464615,-0.04423745686169713,0.07071077290601097
1761476479082858800,0.843858642578125,0.0339718277066946,-0.031806502898968754,0.07226224469828885
1761476479092891600,0.8538916015625,0.04368775055706501,0.00004113572798669338,0.04676530853861477
1761476479102924800,0.8639248046875,0.05021861363053322,0.022000161818787455,0.022832703652791678
1761476479112957700,0.873957763671875,0.07721124997437,0.019283413673378526,-0.011425914239184931
1761476479122990800,0.883990966796875,0.0750152012348175,0.01270882105603814,-0.0062005260074045505
1761476479133023700,0.894023681640625,0.09004442806243897,0.00331657720208168,0.0006231962325284257
1761476479143058000,0.904057861328125,0.09898585940897464,-0.0048926308797672385,0.007135030378540978
1761476479153090800,0.9140908203125,0.10213117169737815,0.006092727384530008,0.016787308841594493
1761476479163124000,0.9241240234375,0.08285422429740429,0.019190328562445937,0.008982028218405321
1761476479173156900,0.934156982421875,0.09036708414554595,0.046123380206152795,-0.015657213399698958
1761476479183189800,0.944189697265625,0.10804770226478576,0.03647785571087152,-0.007706921115517616
1761476479193222700,0.95422265625,0.07410393160879611,-0.04933288030456751,-0.011151293982309289
1761476479203255800,0.964255859375,0.04091185610294342,-0.1452432777909562,-0.0642252057124162
1761476479213288700,0.974288818359375,-0.0218985280752182,-0.18792959622051567,-0.08949742517154663
1761476479223323000,0.984322998046875,-0.04581657927930355,-0.14779632327463477,-0.060956732835224826
1761476479233355800,0.994355712890625,-0.02860533223748207,-0.042773119930177926,-0.021963204508996567
1761476479243389000,1.004388916015625,-0.021757073777914047,0.029385705492831767,0.009498430475057102
1761476479253421800,1.014421875,-0.030223873350024223,0.05996763503290713,0.019952535973442716
1761476479263454700,1.024454833984375,-0.04364800306856632,0.06253390532433986,0.02549415054754354
1761476479273488000,1.03448779296875,-0.08146715385317801,0.032888745177723465,0.014792586793843656
1761476479283520800,1.044520751953125,-0.05672492678463459,-0.008692498086765407,0.0014151640275493263
1761476479293554000,1.054553955078125,-0.0340501536399126,-0.025617439000494777,-0.0142955148587469
1761476479303587600,1.064587646484375,0.015596797582507132,-0.0403439930871129,-0.04580639581200666
1761476479313620700,1.074620849609375,0.0742483085155487,-0.04145429241657257,-0.06433894545231014
1761476479323653600,1.084653564453125,0.09488543835282325,-0.021010895053111017,-0.07189370821341871
1761476479333686800,1.094686767578125,0.08361468727588653,0.01321925479620695,-0.06964191069863736
1761476479343719700,1.1047197265625,0.10134148262441157,0.059678150567039845,-0.056136642035283145
1761476479353752800,1.1147529296875,0.08598375449478626,0.09088402069173752,-0.039609157740231604
1761476479363785700,1.12478564453125,0.07513444370031357,0.10172489245142786,-0.022852860524831337
1761476479373819000,1.13481884765625,0.09408931953907013,0.08600150934718549,-0.02019042724939063
1761476479383852800,1.144852783203125,0.10408932002782821,0.08255111316498369,-0.017213082805881276
1761476479393886000,1.154885986328125,0.09360299732685089,0.06848017344288528,-0.023447428884496913
1761476479403918800,1.1649189453125,0.08475801209211349,0.06150708302725106,-0.02607336607445031
1761476479413952000,1.174951904296875,0.07306991238594054,0.0459282960254699,-0.015721730003273114
1761476479423984600,1.184984619140625,0.04073182336091995,0.023621114084124564,-0.007433940259879455
1761476479434017800,1.195017822265625,0.07707330280840397,0.014661051102355122,-0.011689259616797789
1761476479444050700,1.20505078125,0.09306874431967735,0.023567374602891503,-0.017445841248985378
1761476479454083600,1.21508349609375,0.08198737833499908,0.02360927751585841,-0.026399912881385535
1761476479464117800,1.22511767578125,0.09289514131844043,0.024160335527360438,-0.01121017999611795
1761476479474151000,1.23515087890625,0.09630641106665133,0.026409685356728732,-0.009973459541704505
1761476479484183800,1.245183837890625,0.03731470839381218,0.0208089427402243,0.0035600305691361423
1761476479494216700,1.255216796875,-0.03332300840914249,0.014070501330681145,0.022439630948286503
1761476479504249900,1.265249755859375,-0.039297406643629074,0.010838935530930757,0.025568138232361523
1761476479514282800,1.27528271484375,-0.013669044390320777,0.0002354892563074827,-0.01026037759114988
1761476479524316000,1.28531591796875,-0.000443067592382431,-0.007314633862301707,-0.049155660574138164
1761476479534349600,1.295349609375,0.013539280530810355,-0.019229016605019567,-0.09239355760500766
1761476479544382700,1.3053828125,0.013740940582752227,-0.0249026783272624,-0.106060373505624
1761476479554415600,1.31541552734375,0.013919804280996323,-0.006009177286922932,-0.10906407623309641
1761476479564448800,1.32544873046875,0.0065951604813337325,0.02745510275643319,-0.10668805868360214
1761476479574481700,1.335481689453125,0.0025356559574604034,0.03773161863163113,-0.11155715342415497
1761476479584514800,1.345514892578125,0.05726151787936687,0.03084021515008062,-0.12970758101223037
1761476479594547700,1.355547607421875,0.09164484899640082,0.01104019372407347,-0.14122401394592599
1761476479604580900,1.365580810546875,0.08431085284650325,0.007889365010336042,-0.13758569397618994
1761476479614614800,1.37561474609375,0.05413374124765396,-0.0029283085368573664,-0.12864515767879783
1761476479624648000,1.38564794921875,0.04029050933420658,0.005473901366442441,-0.11136272683059796
1761476479634680800,1.395680908203125,0.019732874473929404,0.020119572236575185,-0.10878275680737569
1761476479644714000,1.4057138671875,-0.006225158125162124,0.01587236312087625,-0.1088523879774846
1761476479654745900,1.415745849609375,-0.03188859169185161,-0.0015677973059937357,-0.10558651804933324
1761476479664778800,1.42577880859375,-0.051425066810846326,-0.01386862208303064,-0.10457650075657293
1761476479674812000,1.43581201171875,-0.03161328188180923,-0.032380795655585826,-0.12682535837311296
1761476479684845600,1.445845458984375,-0.0022317045748233796,-0.03401511885914951,-0.1372389080988243
1761476479694878700,1.455878662109375,0.0035071313381195065,-0.03975278572831303,-0.13263998120231554
1761476479704911600,1.46591162109375,-0.0001835398733615875,-0.03930379985179752,-0.11638429958596824
1761476479714944800,1.47594482421875,0.039810032340884205,-0.028390556975640354,-0.12056938498457893
1761476479724977700,1.485977783203125,0.045541853991150856,-0.0320491525484249,-0.1193216499458067
1761476479735010800,1.4960107421875,0.010738251635432242,-0.02134191710576415,-0.10605481141451746
1761476479745043700,1.506043701171875,0.00421849447786808,-0.02878302689194679,-0.11260649808030575
1761476479755078000,1.516077880859375,0.018501871374249457,-0.04250453212186694,-0.12403698802990838
1761476479765110800,1.52611083984375,0.020073066213726995,-0.033747042507492005,-0.12464947563875466
1761476479775144000,1.53614404296875,0.017292495584487914,-0.020997999038919805,-0.12456678405767306
1761476479785176800,1.5461767578125,0.01449322025477886,-0.024971396181918678,-0.09910539413541555
1761476479795210000,1.5562099609375,0.011833061134815215,-0.028753545069135723,-0.09544307223558425
1761476479805243000,1.566242919921875,0.01409983702301979,-0.029736820485442874,-0.09984744467437266
1761476479815276000,1.576276123046875,0.031177813073992727,-0.03152048903182149,-0.10373984900303185
1761476479825308700,1.58630859375,0.04243453562557697,-0.0391416680926457,-0.10795693697510286
1761476479835342800,1.5963427734375,0.06584522182941437,-0.04801244535576552,-0.07016655562724917
1761476479845375700,1.606375732421875,0.08780103304982184,-0.027391499468311667,-0.06362387425182386
1761476479855409000,1.616408935546875,0.07326222008764743,-0.016400770909152925,-0.05854357531284913
1761476479865441800,1.62644189453125,0.03445639635324478,-0.010342859109677374,-0.053599177713226524
1761476479875474700,1.636474609375,-0.029530045866966247,-0.013236826985515654,-0.04630386960590258
1761476479885507800,1.6465078125,-0.08922259028553962,-0.021248320538178087,-0.01615794772976078
1761476479895540700,1.656540771484375,-0.1071872860431671,-0.018231530000269412,0.002335548541788012
1761476479905575000,1.666574951171875,-0.09956804321110248,-0.04377473472077399,0.011948458542255683
1761476479915607800,1.67660791015625,0.0020464111357927322,-0.06308748408649116,0.002200240857480094
1761476479925640700,1.686640625,-0.035143209573626516,-0.0854804080825299,0.015040341876680031
1761476479935673600,1.696673583984375,-0.03668985449373722,-0.09776789845395832,0.013109949202835558
1761476479945706800,1.706706787109375,0.022791093000769615,-0.07420187555793673,-0.009952014894876628
1761476479955739600,1.71673974609375,0.05799684641659259,-0.03205901635531336,-0.02767418886721134
1761476479965772800,1.726772705078125,0.05649520968198776,-0.007061426286213099,-0.031660710353264586
1761476479975806700,1.736806640625,0.10223930824697017,-0.0126599404130131,-0.025506133246282113
1761476479985839900,1.74683984375,0.0969441244482994,-0.007807824206724763,-0.011471086821472272
1761476479995872800,1.756872802734375,0.05573650026917457,-0.010823518766090274,0.007950054822163656
1761476480005906000,1.766906005859375,0.03623392741978168,-0.026519612004607913,0.017711113722203298
1761476480015938800,1.776938720703125,0.012246902632713318,-0.025331680861674248,0.022324653665954246
1761476480025972000,1.786971923828125,-0.025505028134584426,-0.031486257968656714,0.040491630530031394
1761476480036004900,1.7970048828125,-0.03844809633791446,-0.040227928959392006,0.05556734511419199
1761476480046038800,1.807038818359375,-0.03988543566465377,-0.04593658892977982,0.06460666561094112
1761476480056071700,1.81707177734375,-0.034601942303776737,-0.029837285185232758,0.08096776209683157
1761476480066104800,1.827104736328125,-0.0016267244189977644,-0.012507453265041112,0.0775700550830923
1761476480076137700,1.8371376953125,0.014461656072735786,-0.003027421529777348,0.08021965627642348
1761476480086170600,1.847170654296875,0.035222120028734205,-0.001868058894202113,0.07896308947722427
1761476480096203800,1.857203857421875,0.06199439162015914,-0.0031108254969120022,0.08313784527806564
1761476480106236700,1.867236572265625,0.0784615422964096,0.0014751871190965176,0.08250761194997466
1761476480116269800,1.877269775390625,0.06665770725607871,0.011665230287238955,0.10039294972792268
1761476480126303700,1.8873037109375,0.035565818899869914,0.021062150316312908,0.10534796918625942
1761476480136337000,1.8973369140625,0.02527472651004791,0.022703122456371783,0.0914859047081787
1761476480146369800,1.907369873046875,0.028745032969117162,0.008245448439009487,0.06753411563127301
1761476480156403000,1.91740283203125,0.05046878899931907,-0.012364026206359267,0.06270520677063614
1761476480166435800,1.927435791015625,0.05229541990458965,-0.021789587808027863,0.052062259602686387
1761476480176468700,1.93746875,0.06039806233942508,-0.026485454006679354,0.045513185019092635
1761476480186501600,1.947501708984375,0.05861468605399132,-0.045694998726248735,0.030974773915717378
1761476480196535800,1.957535888671875,0.061602177432179446,-0.051790904448553915,0.03604519991464913
1761476480206568700,1.967568603515625,0.0615869798630476,-0.053088141184858974,0.04265211476585828
1761476480216601900,1.977601806640625,0.06919277869164943,-0.057995348579250275,0.053473231512308116
1761476480226634800,1.987634765625,0.04894961660802364,-0.043038492868095635,0.0626662356002722
1761476480236668000,1.99766796875,0.0378320102661848,-0.0332170638166368,0.08258891529156825
1761476480246700800,2.00770068359375,0.01206160919368267,-0.039742666193097825,0.11222435776176862
1761476480256734000,2.01773388671875,0.0023129531174898147,-0.02884348837491125,0.11855663865637034
1761476480266767600,2.027767578125,0.013227145841717719,-0.03184215873423964,0.11125216086190193
1761476480276800800,2.03780078125,0.05692132613956928,-0.03776259829178452,0.10172991568641737
1761476480286833700,2.047833740234375,0.06860182706117629,-0.03672269731741398,0.10662412660191767
1761476480296866800,2.05786669921875,0.05887888994812965,-0.0355224912147969,0.0998576464079786
1761476480306899700,2.067899658203125,0.0468950221657753,-0.03224061999991536,0.10815138183496892
1761476480316932600,2.0779326171875,0.05283610265254974,-0.022106690933182835,0.11865971543835475
1761476480326965800,2.0879658203125,0.03136719816625118,0.008170300843566656,0.11313665030109696
1761476480337000000,2.098,0.013621698117256163,0.02246748706959188,0.12228721261997706
1761476480347032800,2.10803271484375,-0.02760930693745613,0.029943083647266028,0.13770461678127757
1761476480357065700,2.118065673828125,-0.01511632058918476,0.04662628822699189,0.1444411767609883
1761476480367099000,2.128098876953125,0.017294249150156975,0.049122671619988977,0.1079568091109395
1761476480377131800,2.1381318359375,0.06648293521106242,0.02614990190938115,0.08327635869961232
1761476480387165000,2.1481650390625,0.09203238700926303,0.008985380086116492,0.07304260425390675
1761476480397197800,2.15819775390625,0.057741410350799556,0.010634425934776663,0.09381299594887532
1761476480407231000,2.16823095703125,0.07316168232262134,0.031185411858558654,0.0976450301261153
1761476480417264600,2.1782646484375,0.07842939359247685,0.025974326146766542,0.10031178338364698
1761476480427297800,2.1882978515625,0.08071019800603389,-0.0017125760715454815,0.09286624401751906
1761476480437330700,2.19833056640625,0.0633949060678482,-0.02473404376208782,0.08375668042930774
1761476480447363800,2.20836376953125,0.04127776680588722,-0.04210376930125057,0.07332465433198958
1761476480457396700,2.218396728515625,0.008954875349998474,-0.05236296871546656,0.05748983760937117
1761476480467430000,2.228429931640625,0.006531447595357894,-0.0434844830699265,0.056359920263988894
1761476480477462800,2.238462890625,0.016229250267148016,-0.033369550964608787,0.06477107152557
1761476480487497000,2.2484970703125,0.04883855744898319,-0.01876874214950949,0.06453250439618714
1761476480497529900,2.25852978515625,0.042706338304281236,-0.011909889230690895,0.0529521576471161
1761476480507562800,2.268562744140625,0.002756605231761932,-0.013201536476425826,0.06274443366932682
1761476480517595600,2.278595703125,-0.0333007965773344,-0.015520590541139244,0.07628611621977761
1761476480527628800,2.28862890625,-0.06530863073468209,-0.020076390681974587,0.07585687622334808
1761476480537661700,2.29866162109375,-0.06035597676336765,-0.0242404150262475,0.07391098458627239
1761476480547694600,2.308694580078125,-0.03296060483753681,-0.036192426365613935,0.052407849036809055
1761476480557728800,2.318728759765625,0.019889526340365407,-0.038923897156119346,0.03413702820576727
1761476480567762000,2.328761962890625,0.041779871109127995,-0.03415131245944649,0.018390282492246477
1761476480577794800,2.338794921875,0.0741483552724123,-0.023544907042756677,0.0034566341267433017
1761476480587827700,2.34882763671875,0.11593582516610622,-0.015403247771784662,-0.01657229155115783
1761476480597860900,2.35886083984375,0.10727788693606853,-0.011242365232668817,-0.020168471145909278
1761476480607893800,2.368893798828125,0.09214929138720035,-0.0014122779507189987,-0.015176069686096161
1761476480617927000,2.378927001953125,0.08312135080099105,-0.004209799714758992,-0.02869838081579655
1761476480627960600,2.388960693359375,0.029625322934985158,-0.0021668226450681687,-0.017624029093794524
1761476480637993700,2.39899365234375,-0.00037467853128910064,-0.0127362205196172,0.00506168557005003
1761476480648026600,2.409026611328125,-0.028554478833079336,-0.02419142478536814,0.024898586674034592
1761476480658060500,2.419060546875,-0.059113867747783655,-0.00891509132888168,0.03892850026600063
1761476480668093400,2.429093505859375,-0.06737082396149635,-0.009088146340847016,0.04741181258149445
1761476480678126600,2.439126708984375,-0.051394087150692935,-0.005779898575693368,0.043733288465533406
1761476480688159500,2.449159423828125,-0.00431084893643856,-0.013821750734001397,0.032682317619118835
1761476480698193700,2.459193603515625,0.052797524207830425,-0.021786336405016482,0.013547317706793545
1761476480708226600,2.4692265625,0.08507482295632361,-0.010848032152839004,0.0056929144119843835
1761476480718259500,2.479259521484375,0.08161328432559967,-0.007284530984982848,-0.0027872012994252142
1761476480728292400,2.489292236328125,0.03402969537377357,-0.01464037364050746,0.008365933013521135
1761476480738325200,2.4993251953125,0.011888006192445755,-0.028779410162754353,-0.0008275916642509401
1761476480748358400,2.5093583984375,0.0014209727138280869,-0.030352979622408745,-0.00029330212445929644
1761476480758391300,2.519391357421875,-0.011738368588685988,-0.02489296065084636,-0.00009898512875661254
1761476480768424400,2.529424560546875,-0.01006955859363079,-0.020288791323639453,-0.010595262968167662
1761476480778458400,2.539458251953125,0.00372223539352417,-0.008997472382709383,-0.02716636720923707
1761476480788491500,2.549491455078125,0.019160627543926237,-0.011105988969281316,-0.058047151831723744
1761476480798524400,2.5595244140625,0.010202245062589644,-0.020613383635506032,-0.08293541804114356
1761476480808557600,2.5695576171875,0.004816460371017456,-0.029308731266483663,-0.09895893486943096
1761476480818590500,2.579590576171875,0.0011865794360637664,-0.03861844793614,-0.10986702664643526
1761476480828623600,2.58962353515625,0.00575870965719223,-0.050414464996196326,-0.12358533527227118
1761476480838656500,2.599656494140625,0.017054595175385476,-0.049028198269568384,-0.11853303858507423
1761476480848690400,2.6096904296875,-0.005310965889692306,-0.04854045128524303,-0.10257752722539007
1761476480858723300,2.619723388671875,0.0075111062824726104,-0.0247588859423995,-0.07998411222118884
1761476480868756500,2.629756591796875,0.005692658683657646,0.000629310879483819,-0.08371544423662125
1761476480878789400,2.639789306640625,0.01644552336633205,0.009097060299664735,-0.09453446949068456
1761476480888822500,2.649822509765625,0.02405833645761013,0.004245492082647979,-0.09824083146164193
1761476480898855400,2.65985546875,0.012364391532540321,0.015705993578024206,-0.11453136519566177
1761476480908888300,2.669888427734375,0.02864800233542919,0.014666092603653669,-0.13113823486985637
1761476480918922500,2.679922607421875,0.040742929276824,0.018676899147592484,-0.14032898306865244
1761476480928955600,2.68995556640625,0.046996144452691076,0.012648615301400422,-0.1414843636488542
1761476480938988500,2.699988525390625,0.051445525076985354,0.031368440275266765,-0.15382422352833672
1761476480949021400,2.710021484375,0.01924012252092361,0.027326361810229717,-0.1459741676150821
1761476480959054600,2.7200546875,-0.02463818217217922,0.005919343579001725,-0.1276238335407339
1761476480969087500,2.73008740234375,-0.034711832419037816,-0.006916720585897564,-0.12285766031853854
1761476480979120400,2.740120361328125,-0.033416531911492346,-0.0008700243001803755,-0.12429404979720711
1761476480989154300,2.750154296875,-0.04544248526990413,0.011174231899902224,-0.11576930949278175
1761476480999187500,2.7601875,-0.034142508098483085,0.018168620831891892,-0.11069323007119819
1761476481009220400,2.770220458984375,-0.014172902259230612,0.014973003128357231,-0.11814615815933793
1761476481019253500,2.78025341796875,0.02584112822115421,-0.005638480811007321,-0.11600748389651998
1761476481029286400,2.790286376953125,0.06496142473220824,-0.013619944551587104,-0.1140211506512016
1761476481039319600,2.800319580078125,0.05980827975273132,-0.019092238482832907,-0.11362469867952167
1761476481049352400,2.8103525390625,0.034471009400486946,-0.03152143887989223,-0.09928255906691774
1761476481059385600,2.820385498046875,0.012000818917155265,-0.02409939912036061,-0.0781310864993371
1761476481069419300,2.830419189453125,0.013775427374243735,0.0036001433838158845,-0.06176206243531778
1761476481079452400,2.840452392578125,0.0042991584986448285,-0.005735949836112558,-0.061365391267929226
1761476481089485300,2.8504853515625,0.019337737676501272,-0.0015595774669200182,-0.05308048760136589
1761476481099518500,2.8605185546875,0.030018121644854543,-0.004284033994749188,-0.049810124161187554
1761476481109551400,2.87055126953125,0.026031682357192037,-0.006113222183287143,-0.06429486884856596
1761476481119584500,2.88058447265625,0.04347615363299846,-0.0035540757523849606,-0.06632485857252031
1761476481129617400,2.890617431640625,0.06216098035871982,-0.0031063319848850367,-0.05148087038500234
1761476481139651600,2.900651611328125,0.06637362961769104,0.010815116263926028,-0.03772248547710478
1761476481149684500,2.9106845703125,0.07583996162116527,0.029270079756528136,-0.03307339929593727
1761476481159717600,2.920717529296875,0.05433306321203708,0.04491710968893021,-0.02900161981238052
1761476481169750500,2.93075048828125,-0.01955050364434719,0.04936042589861899,-0.01857426075702533
1761476481179783400,2.940783447265625,-0.10750058977603912,0.05256061017941683,0.014229546083603054
1761476481189816600,2.950816650390625,-0.1272170976370573,0.035614772608131166,0.02742764849392697
1761476481199849500,2.960849365234375,-0.08319850769042968,0.0003127922762185335,0.012989866487123072
1761476481209883400,2.97088330078125,-0.018677812463045118,-0.030061412797309457,-0.006241616069618612
1761476481219916300,2.980916259765625,0.05125321737527847,-0.03221274561230093,-0.024413817098084836
1761476481229949400,2.990949462890625,0.11219605411589145,-0.029562377233989533,-0.04914913950180635
1761476481239982300,3.000982421875,0.13870353729128837,-0.0300596957642585,-0.0699773714643903
1761476481250015500,3.011015380859375,0.11430500909388065,-0.027876214245334267,-0.06704705363353713
1761476481260048400,3.02104833984375,0.09092004185318946,-0.009295140155032277,-0.05030844733845442
1761476481270081500,3.03108154296875,0.08428045770823955,-0.008985489683970808,-0.029984767364524302
1761476481280115500,3.041115478515625,0.07328793905079364,-0.010244476769119501,-0.014057020794600247
1761476481290148600,3.051148681640625,0.02670095992088318,-0.012687559072300791,0.00617065145894885
1761476481300181500,3.061181396484375,0.004670914420485496,-0.030259821446239947,0.012378237394802271
1761476481310214400,3.07121435546875,-0.03394493969976902,-0.02962769755516201,0.02217814873419702
1761476481320247300,3.081247314453125,-0.05878595096766948,-0.03232669084817171,0.03648295201109722
1761476481330280400,3.091280517578125,-0.055503860557079315,-0.024954262384027242,0.03910128128333017
1761476481340313300,3.101313232421875,-0.022626257827877996,-0.024497677722945806,0.016772764293011277
1761476481350346500,3.111346435546875,0.014276362633705138,-0.020191614559479057,-0.0013184256548061967
1761476481360380400,3.12138037109375,0.026185996136069298,-0.0023617606952786446,0.012262830854207277
1761476481370413600,3.13141357421875,0.0366208809107542,0.009477109125815331,0.03280583440093324
1761476481380446500,3.141446533203125,0.06174947694838047,0.015669534025155005,0.021383801752422004
1761476481390479600,3.151479736328125,0.06641103901863098,0.024375731843709943,0.036431057427078486
1761476481400512500,3.161512451171875,0.05987842237949371,0.007469020706415176,0.039462022620812054
1761476481410545400,3.17154541015625,0.030322073027491566,-0.009121683284267783,0.0404779764640145
1761476481420578600,3.18157861328125,0.017078560572862625,-0.01345134651903063,0.03999669575309381
1761476481430612500,3.191612548828125,0.03436871806979179,-0.006332125630974769,0.0306655709692277
1761476481440645400,3.201645263671875,0.04103109856843948,-0.02390888151694089,0.01666607078183442
1761476481450678300,3.21167822265625,0.056954059365391725,-0.03488466823529452,-0.0010662775246426462
1761476481460711400,3.22171142578125,0.06701718821823596,-0.04053188034202903,-0.007017915938049554
1761476481470744300,3.231744384765625,0.0643359863102436,-0.04389514623004943,-0.012951744700130075
1761476481480777500,3.241777587890625,0.07121931608319282,-0.04177256458550691,-0.0024184227859601376
1761476481490810400,3.251810302734375,0.06765256351232528,-0.04662292722612619,0.010732059356663376
1761476481500844500,3.261844482421875,0.04719721998274326,-0.06671601331457495,0.014803199519403279
1761476481510877400,3.27187744140625,0.021970424267649648,-0.07139949495568872,0.010690339106786996
1761476481520910600,3.28191064453125,0.0019815292060375213,-0.07605828054696322,0.013040738157834858
1761476481530943500,3.291943603515625,-0.006796236011385917,-0.07652107575312256,0.015498543106112627
1761476481540976600,3.3019765625,-0.02802197939157486,-0.07075323294140398,0.019102485882211476
1761476481551009500,3.312009521484375,-0.028178631258010862,-0.059086322153732176,0.014375822686497121
1761476481561042400,3.32204248046875,-0.025800796210765836,-0.06959730437193065,0.004633596351090818
1761476481571075300,3.332075439453125,-0.018057050216197967,-0.07611918042134493,-0.003062931234575808
1761476481581109500,3.342109619140625,0.0243950210660696,-0.07326642133872956,-0.004981816133717075
1761476481591142400,3.352142333984375,0.05920856029391289,-0.05078395589571446,0.026468557670805602
1761476481601175600,3.362175537109375,0.06156301446557045,-0.03745499364733696,0.025893031938327475
1761476481611208400,3.37220849609375,0.045810149538516996,-0.028762385962717234,0.027524898323323575
1761476481621241600,3.38224169921875,0.07059680027067661,-0.025756080286204814,0.032150055639632046
1761476481631274500,3.3922744140625,0.08983750731348991,-0.02467274202890694,0.03042999951452948
1761476481641307400,3.402307373046875,0.07662906617224216,-0.007696984243392944,0.04981122927288525
1761476481651341300,3.41234130859375,0.07616203318238259,-0.005829619468934834,0.05059746601344086
1761476481661375000,3.422375,0.05985913315713405,-0.01172952769510448,0.06126108151008375
1761476481671407900,3.432407958984375,0.03846446295082569,-0.02014302617739886,0.08160582253835164
1761476481681441000,3.44244091796875,0.006734861212968826,-0.03492174884267151,0.08333324911915696
1761476481691474000,3.452473876953125,-0.002125321590900421,-0.04193659604080021,0.08225761011112481
1761476481701506800,3.4625068359375,0.002018354085087776,-0.03832600432820618,0.09509116265852935
1761476481711540000,3.4725400390625,0.039675007784366605,-0.012105448335409164,0.10759224098171107
1761476481721572900,3.48257275390625,0.0542933157235384,0.002249240231513977,0.12158826143722981
1761476481731607000,3.49260693359375,0.05785831472873688,0.009891060221567749,0.14546836438425817
1761476481741640000,3.502639892578125,0.05994681144058704,0.002778890128806233,0.1503884403933771
1761476481751673000,3.512673095703125,0.07461772634983062,-0.012693477356433868,0.1348189692092128
1761476481761706000,3.5227060546875,0.08450666767954826,-0.016478073929063974,0.11076747348434292
1761476481771739000,3.53273876953125,0.07571136680543422,-0.013594189055822789,0.12452876273537986
1761476481781771800,3.542771728515625,0.06606091040670871,-0.011257489736564456,0.1466123376544565
1761476481791805000,3.552804931640625,0.04627952061593532,-0.014918167668581008,0.15110982260364106
1761476481801838800,3.5628388671875,0.03699789752960205,-0.011881028462387621,0.15524576249774544
1761476481811872000,3.5728720703125,0.02366787583529949,-0.018065452718362213,0.1485006082196254
1761476481821905000,3.58290478515625,-0.017529811471700667,-0.022819698040746152,0.12642138068210332
1761476481831938000,3.59293798828125,-0.05516308429539203,-0.034145430707931516,0.11634469822794198
1761476481841971000,3.602970947265625,-0.04986497788727283,-0.0391423622123897,0.12513400775268674
1761476481852004000,3.613004150390625,-0.019150106149911878,-0.050426995684206485,0.1240783064209856
1761476481862037000,3.623037109375,0.013337035956978797,-0.06215871533639729,0.11937597394892945
1761476481872071000,3.63307080078125,0.05702595555782318,-0.06887753873001784,0.08958580670789815
1761476481882103800,3.643103759765625,0.10668459721803665,-0.09317479851003736,0.0706127741579432
1761476481892137000,3.653136962890625,0.12266893281340599,-0.0953913785809651,0.05974820186225697
1761476481902169900,3.663169921875,0.1307411801099777,-0.11130272200535982,0.06379063652032055
1761476481912203000,3.673203125,0.09679448684453963,-0.09945800696536898,0.09061081150723621
1761476481922236000,3.68323583984375,0.08322598021924495,-0.07780508768167346,0.10054753750143572
1761476481932268800,3.693268798828125,0.06143734225928783,-0.05240406791083514,0.0996106767764315
1761476481942302000,3.703302001953125,0.019890695384144782,-0.045195597836747765,0.10757577390410006
1761476481952336100,3.713336181640625,-0.037220600369572636,-0.03287511851117015,0.10841545786494389
1761476481962369000,3.723369140625,-0.06593173106908798,-0.03607910218425095,0.1172011506604962
1761476481972402000,3.73340185546875,-0.075969140958786,-0.026522096222639083,0.12012847281666472
1761476481982435000,3.74343505859375,-0.04099368916749954,-0.04129329316858202,0.1009713889366947
1761476481992468000,3.753468017578125,0.028975919115543362,-0.03673325524404645,0.09122079663174226
1761476482002501000,3.763501220703125,0.08412497488558292,-0.004432173761166632,0.08270339938355609
1761476482012534000,3.773533935546875,0.1235614977389574,0.02119691914450377,0.09098797425655647
1761476482022568000,3.78356787109375,0.12336276029646395,0.019406565129011868,0.10825204746415838
1761476482032600800,3.793600830078125,0.1085164888203144,0.017275580982305107,0.11778833943130448
1761476482042634000,3.803634033203125,0.09640227265655994,-0.0029240707531571386,0.15246785874962807
1761476482052667000,3.8136669921875,0.055173605689406394,-0.010895414958521723,0.19444305150145663
1761476482062700000,3.823699951171875,0.0431914914727211,-0.009227079887501894,0.19818837550962343
1761476482072733000,3.83373291015625,0.049517771884799,-0.008711348917707801,0.1806891783718951
1761476482082766000,3.84376611328125,0.08022913649082183,-0.028937523333914576,0.1344881663522683
1761476482092799000,3.853799072265625,0.08037059078812599,-0.037025406591035426,0.08554262313116341
1761476482102833200,3.863833251953125,0.047961190092563624,-0.05049505595173687,0.05290505796922371
1761476482112866000,3.873865966796875,0.042425183275341984,-0.04199694792591035,0.04418404617402703
1761476482122899000,3.88389892578125,0.058844987678527826,-0.03414605176243931,0.04789548617890104
1761476482132931800,3.893931884765625,0.036356092494726176,-0.034347127292491494,0.057144540436193346
1761476482142964700,3.90396484375,-0.0058627545535564415,-0.04327478584200144,0.09470544214341789
1761476482152998000,3.913997802734375,-0.034140170010924335,-0.035409568892233075,0.10373104464206843
1761476482163030800,3.92403076171875,-0.036219314372539516,-0.026122173652239143,0.08200630223117768
1761476482173065000,3.93406494140625,-0.02079261265993118,-0.025564247508533297,0.06283634060332552
1761476482183097900,3.944097900390625,0.0048000937581062315,-0.026787030769139526,0.03495566937858239
1761476482193131000,3.954131103515625,-0.0047784664481878274,-0.016445158040151,0.03549704624628648
1761476482203164000,3.964163818359375,-0.02691606397628784,-0.0032515491418540475,0.03380324794044718
1761476482213197000,3.974197021484375,-0.01956219408214092,-0.0014597338216379284,0.013692406999599187
1761476482223230000,3.98422998046875,-0.0011199439406394957,-0.011193594187498093,-0.01133143175560981
1761476482233263000,3.99426318359375,0.020175942066311837,-0.009323635597154498,-0.014119308908469973
1761476482243296000,4.0042958984375,0.045806642407178876,0.0011160349505022168,-0.051364386132173236
1761476482253330000,4.014329833984375,0.05619242734313011,0.014139986370317638,-0.054348881835676724
1761476482263362800,4.02436279296875,0.04727145426273346,0.014176847781985998,-0.06020878684502095
1761476482273396000,4.03439599609375,0.04732055410146713,0.0006221139537170529,-0.07511351051013916
1761476482283428900,4.044428955078125,0.026561259189248083,-0.034957295080088074,-0.09120525200273841
1761476482293462000,4.0544619140625,-0.017092004576325415,-0.048386174038983876,-0.08708325843559578
1761476482303495000,4.064494873046875,-0.016614450192451478,-0.06942490694709122,-0.09494043820938095
1761476482313528000,4.074528076171875,0.009582651859521864,-0.07234674921054393,-0.10976104552131145
1761476482323561000,4.08456103515625,0.029628245544433593,-0.07412712982129305,-0.10967071862304582
1761476482333595100,4.09459521484375,0.04516717545986175,-0.08450973641946911,-0.10686647485727443
1761476482343628000,4.1046279296875,0.07118716737926006,-0.0808783576471731,-0.10859527141125871
1761476482353661200,4.1146611328125,0.04125555497407913,-0.06310386896571143,-0.09785864547733217
1761476482363694000,4.124694091796875,0.02450023500621319,-0.0634772505890578,-0.07152540462398901
1761476482373726700,4.134726806640625,0.007754267388582229,-0.06595474661849439,-0.0755663871104829
1761476482383760000,4.144759765625,-0.015868015739321707,-0.07468417918216437,-0.08336646640216931
1761476482393792800,4.154792724609375,-0.017058102306723593,-0.08496445791702717,-0.09288865677872672
1761476482403827000,4.164826904296875,-0.007335165193676948,-0.09385846992526203,-0.11945031782677397
1761476482413859800,4.17485986328125,-0.00016191256344318388,-0.08537787928981706,-0.1198751921753399
1761476482423893000,4.18489306640625,0.005821253499388695,-0.045794458779040724,-0.10590636112084612
1761476482433926000,4.19492578125,-0.009278700476884841,0.005309687248058617,-0.10156148205064236
1761476482443959000,4.204958984375,0.00675122782588005,0.025816377372387796,-0.10591048930669203
1761476482453992000,4.214991943359375,0.004965513452887535,0.022451869375351815,-0.11239745843950659
1761476482464025000,4.225025146484375,-0.017469021195173264,0.02302552281115204,-0.10977125638807192
1761476482474058000,4.23505810546875,-0.035251346123218535,0.021251754604279995,-0.11804713649796321
1761476482484092000,4.245091796875,-0.02803191626369953,0.006343615139368921,-0.11593611742705107
1761476482494124800,4.255124755859375,-0.04158113366663456,-0.021272212870419024,-0.11739135773666202
1761476482504158000,4.265157958984375,-0.03953706061840057,-0.02800296416385099,-0.11514169738003983
1761476482514190800,4.27519091796875,0.012953589597344398,-0.01966790121262893,-0.12478820825600996
1761476482524224000,4.28522412109375,0.059307344493269916,-0.02330602025296539,-0.1513667473736219
1761476482534257000,4.2952568359375,0.07377543030679226,-0.025911709239333867,-0.16440328428037462
1761476482544290000,4.3052900390625,0.08178454923927783,-0.028516923301666972,-0.16598472651923074
1761476482554324000,4.315323974609375,0.053258711978793144,-0.04091490657655522,-0.16189857145044953
1761476482564357000,4.325357177734375,0.04131634525060653,-0.042450646510161456,-0.15321633902937173
1761476482574390000,4.33539013671875,0.021724340552091596,-0.04888979444587603,-0.13610864369357004
1761476482584423200,4.345423095703125,0.008096212694048881,-0.05332918339911848,-0.11090338395684957
1761476482594456000,4.3554560546875,-0.025441315248608588,-0.0558521260054782,-0.09310091128991917
1761476482604489000,4.365489013671875,-0.05165186130404472,-0.049202002200204875,-0.09320502925151959
1761476482614521900,4.37552197265625,-0.05273088871240616,-0.04890736663518473,-0.08206972285620867
1761476482624554800,4.3855546875,-0.05426233606338501,-0.04568149992385879,-0.06776250842651352
1761476482634589000,4.3955888671875,-0.04382043702602386,-0.024943028603959826,-0.05820163000738248
1761476482644621800,4.405621826171875,-0.01780629032552242,0.00017426058836281298,-0.03583387698521837
1761476482654658000,4.415657958984375,0.008675473886728286,0.023403324881289152,-0.018660970926098523
1761476482664691000,4.42569091796875,0.03622983576655388,0.02933360997941345,-0.022418496828712522
1761476482674724000,4.43572412109375,0.057661915373802185,0.035619339185394346,-0.016090645514056087
1761476482684757000,4.445757080078125,0.08105272783339024,0.03801489255242049,-0.009106522247754037
1761476482694790100,4.4557900390625,0.050582770767807955,0.06411598688401282,0.009215151987690478
1761476482704823000,4.465822998046875,0.03927577933371067,0.06692284273197874,0.01391337454020977
1761476482714857200,4.475857177734375,0.06299626213908195,0.05808478042837232,0.015832232039887456
1761476482724890000,4.48589013671875,0.07250935589373111,0.04257456515077501,-0.0009586889643222093
1761476482734923000,4.495923095703125,0.08547288236320018,0.010702869794797152,-0.01069530754284933
1761476482744956000,4.505955810546875,0.07541209159791469,-0.003087937811668962,0.0028948263923637566
1761476482754989000,4.515989013671875,0.028854338562488556,0.006447112046461552,0.011425119654741137
1761476482765022000,4.52602197265625,0.022685879060626028,-0.011976871785987168,0.015032514763250945
1761476482775054800,4.536054931640625,0.03235036398470401,-0.03956360156545415,0.012714136551972477
1761476482785088000,4.546087890625,0.006526771420240402,-0.03617898236215114,0.02908390953466296
1761476482795122200,4.5561220703125,-0.01333294430375099,-0.030323625663761046,0.030163923323713242
1761476482805155000,4.566155029296875,-0.009273439779877662,-0.03986112320730462,0.01904635351449251
1761476482815188000,4.57618798828125,0.016612112104892728,-0.051722241392824796,0.018462909337040034
1761476482825221000,4.58622119140625,0.01885550711750984,-0.06100536231650039,0.039204193668533116
1761476482835254000,4.59625390625,0.023800562304258345,-0.06163573264190927,0.05170264164321124
1761476482845287200,4.606287109375,0.0374228449434042,-0.05654295781385153,0.07018810987193137
1761476482855320000,4.616320068359375,0.022464345264434814,-0.04318537225918844,0.08123031289000064
1761476482865354000,4.62635400390625,0.03669160805940628,-0.021191786311659962,0.06254649081127718
1761476482875387000,4.636386962890625,0.04134089516997337,-0.014038937148638068,0.07159901784947141
1761476482885420000,4.646419921875,0.026550737795233724,-0.002545866824220866,0.07285625136895105
1761476482895453000,4.656452880859375,0.012656652477383613,0.012776150671206413,0.07663615350015461
1761476482905486000,4.666486083984375,0.002350362518429756,0.0029446386171504855,0.06988574765818194
1761476482915519000,4.67651904296875,-0.011850012269616126,0.00493955702772364,0.06905570830851793
1761476482925552000,4.68655224609375,-0.012283142989873885,-0.009182802354358137,0.05904880315493792
1761476482935585000,4.6965849609375,0.0038917467415332794,-0.01870205185515806,0.05019833802748471
1761476482945619200,4.706619140625,0.017977555239200593,-0.012827205005008727,0.04682537272935733
1761476482955652000,4.716652099609375,0.041353754651546476,-0.003412749319244176,0.055886503199115395
1761476482965685200,4.726685302734375,0.05816109706759452,-0.005070562996249646,0.05461310399612412
1761476482975718100,4.73671826171875,0.08485212011635303,-0.006694492669962346,0.059956620448548346
1761476482985751000,4.7467509765625,0.07923135762512683,-0.015350604269094764,0.06537477303976193
1761476482995784000,4.756783935546875,0.07255904025435447,-0.0155226546340622,0.07240437941560521
1761476483005816800,4.76681689453125,0.06303893223702907,-0.012013824529200792,0.0930758316475898
1761476483015850000,4.77685009765625,0.03271919729709625,-0.010523951297625898,0.10372951940526254
1761476483025884200,4.78688427734375,-0.006595745003223419,-0.024836956147290763,0.08538334091622382
1761476483035917000,4.7969169921875,-0.0037257425248622893,-0.05724147973833605,0.06861370016206056
1761476483045950000,4.806949951171875,0.013050035709142684,-0.07894227501805871,0.06477648748620413
1761476483055983000,4.816983154296875,0.01606616865992546,-0.08992914938600734,0.05502179439486935
1761476483066016000,4.82701611328125,0.03210661835670471,-0.07482667465908452,0.06989828747934661
1761476483076049200,4.837049072265625,0.03304302242398262,-0.044456579505093394,0.0791705216828268
1761476483086082000,4.84708203125,0.022585925817489624,-0.030941903692577034,0.08093773228474892
1761476483096116000,4.857115966796875,-0.01736672986447811,-0.016693251049704847,0.09059228946985676
1761476483106148900,4.86714892578125,-0.05000467861890793,-0.002079308758396655,0.10723036713306791
1761476483116182000,4.87718212890625,-0.058390814170241355,-0.0055698177552782,0.12119874152983538
1761476483126215000,4.88721484375,-0.04773381107747555,-0.01715873140329495,0.12429373013679869
1761476483136248000,4.897248046875,-0.023265140253305432,-0.019227171707805246,0.12347140830270946
1761476483146281000,4.907281005859375,0.0347515799075365,-0.02436572190634906,0.0865540560628753
1761476483156314000,4.917314208984375,0.08559913909137248,-0.030056407828629016,0.04433791242833249
1761476483166347000,4.927346923828125,0.09692483522593974,-0.02525481623318046,0.028448479441646485
1761476483176381200,4.937381103515625,0.10493278511464595,-0.005526526602823287,0.005658884278219193
1761476483186414000,4.9474140625,0.1004822354465723,-0.005550364136137068,0.014422767100762575
1761476483196447200,4.957447265625,0.06547521947324275,0.013617095007374881,0.02679761609523557
1761476483206480100,4.967480224609375,0.042264439755678174,0.018407672018464653,0.0347471777270548
1761476483216513300,4.97751318359375,0.033546295771002765,0.011782609589211642,0.04068434009053744
1761476483226546200,4.987546142578125,-0.02276595855951309,0.008208185168541967,0.05954751905784942
1761476483236578800,4.997578857421875,-0.04690320547223091,-0.0013037212760187685,0.062841710898187
1761476483246612000,5.007612060546875,-0.03481061661839485,-0.016501564402505754,0.05200191685073077
1761476483256646100,5.017646240234375,-0.023605916514992713,-0.034063725507538764,0.05376787621048279
1761476483266679000,5.027678955078125,-0.018214871126413346,-0.03591823080042377,0.0487890374851413
1761476483276712000,5.0377119140625,-0.004129647150635719,-0.027556078912876546,0.044226268747402354
1761476483286745000,5.0477451171875,-0.006495791760087013,-0.017990560851246118,0.04403827189463191
1761476483296778000,5.057778076171875,0.03661737377941608,0.0050483876970596605,0.029013903905218467
1761476483306811100,5.06781103515625,0.05352583848237991,0.020049283479340374,0.023091044061724096
1761476483316844000,5.077843994140625,0.04558218600153923,0.02003624133467674,0.016222263403935358
1761476483326877200,5.087877197265625,0.05678045636415481,0.027979839016590267,0.014314731015870347
1761476483336910800,5.097910888671875,0.045834114935994145,0.02811731125852093,0.025250267922226337
1761476483346944000,5.107944091796875,0.02217909858226776,0.024177505857869982,0.022411601297045124
1761476483356977000,5.117976806640625,0.032359131813049315,0.024227354615274817,0.021049619628302752
1761476483367010000,5.128010009765625,0.04643909509181976,-0.003084028821531683,0.017141661537485198
1761476483377043000,5.13804296875,0.030462358281016347,0.010218940469063818,0.017345668810140342
1761476483387076000,5.148076171875,0.023756138640642164,0.024842052447516468,0.011803003923268988
1761476483397109000,5.15810888671875,0.036784547039866444,0.022349249251093713,-0.02066072077541612
1761476483407142000,5.168141845703125,0.029895372048020362,0.010194189620297401,-0.026858552502235396
1761476483417176000,5.178176025390625,0.008334113103151321,-0.008467585023399442,-0.00782481187414378
1761476483427209200,5.188209228515625,0.005776245313882827,0.010336575499363242,-0.0007810947745572776
1761476483437242000,5.1982421875,0.00756254420876503,0.019710644375812263,0.0025614388526882977
1761476483447275000,5.20827490234375,0.010983750829100608,0.023769984502904115,-0.010999003197159617
1761476483457308200,5.21830810546875,0.012914426630735396,0.013102167755179106,-0.007443457006895914
1761476483467341000,5.228341064453125,0.041186581391096114,-0.00002117065219208598,-0.013629899690020828
1761476483477374000,5.2383740234375,0.042534488868713374,0.008281487866770475,-0.021555861250543967
1761476483487406800,5.24840673828125,0.029519524472951888,0.01603160880319774,-0.0034993864230811592
1761476483497441000,5.25844091796875,0.017546178084611893,0.007975673320610076,-0.00011482201870530843
1761476483507474000,5.268473876953125,0.020691490373015403,-0.001543758843280375,-0.027470839181682093
1761476483517507000,5.278507080078125,0.03925298298001289,-0.011398195115197449,-0.024931986620137465
1761476483527540000,5.2885400390625,0.06559387741684913,-0.004621558853425085,-0.01996848246124573
1761476483537573000,5.298572998046875,0.06648702686429023,0.011574574595410376,0.004330092493025585
1761476483547606000,5.30860595703125,0.022179683104157445,0.020019381531421094,0.0017924546410329639
1761476483557639200,5.31863916015625,-0.013318331256508827,0.01461452681319788,0.0009687719669193029
1761476483567672000,5.328672119140625,-0.037924364724755286,0.014984145576879382,-0.02001343584782444
1761476483577706000,5.3387060546875,-0.037272622817754744,0.01693252143198624,0.0019252507078461349
1761476483587739000,5.34873876953125,-0.042754853621125216,0.02210086398059502,0.02739339003129862
1761476483597772000,5.35877197265625,-0.06407704311311245,0.03947616074401885,0.0445119994867593
1761476483607805000,5.368804931640625,-0.03928454716205597,0.05934928393885493,0.054345118976011866
1761476483617838000,5.378838134765625,0.026388240709900854,0.0689903331884183,0.0325499142779503
1761476483627871000,5.38887109375,0.08070844444036483,0.06979549382515252,0.031434664778737346
1761476483637904000,5.39890380859375,0.0831108294069767,0.07058741138782351,0.03876566525395028
1761476483647937000,5.40893701171875,0.05528992554545402,0.06845995263876394,0.028153085824800653
1761476483657966000,5.418966064453125,0.031048049214482305,0.05812339540570974,0.02461885641720146
1761476483668000000,5.429,0.021308745488524437,0.025294180129189044,0.003372581705637276
1761476483678033200,5.439033203125,0.02249357135891914,0.012729754246212541,-0.002145971653284505
1761476483688066000,5.449066162109375,0.03775426885485649,-0.009074044750258326,0.010776665683370082
1761476483698099200,5.45909912109375,0.09792729026675223,-0.01885231051342562,0.04157726120911538
1761476483708132000,5.469132080078125,0.10636252565681933,-0.008829513670969754,0.04225421062260866
1761476483718165000,5.4791650390625,0.09774842656850814,0.012963471670541911,0.03225001801592298
1761476483728198100,5.4891982421875,0.07535480845272541,0.004172920036781579,0.03000153583623469
1761476483738231000,5.49923095703125,0.008503039929270744,-0.02461746817771345,0.05292505044448189
1761476483748265000,5.509264892578125,-0.07631693148314952,-0.06447263656826689,0.07474093260439112
1761476483758297900,5.5192978515625,-0.08348784602582454,-0.0717926407254301,0.09251859962362796
1761476483768331000,5.5293310546875,-0.04201835604012012,-0.06091008524848148,0.0953875335229095
1761476483778364000,5.539364013671875,-0.004555763608217239,-0.07579566582171246,0.0883718552077189
1761476483788397000,5.54939697265625,0.03232581406533718,-0.07427170765744522,0.06925713089844211
1761476483798430000,5.559429931640625,0.06411971321105957,-0.06119502140339464,0.042421393016213546
1761476483808463000,5.569463134765625,0.08704583076834678,-0.061005727642681445,0.012530587545456363
1761476483818496000,5.57949609375,0.11427461395561694,-0.057031782510410994,-0.009556613235967234
1761476483828530200,5.5895302734375,0.09732231011092662,-0.027501079056318847,-0.022375269608339292
1761476483838563000,5.59956298828125,0.0626975714534521,-0.009667791126016527,-0.009553060438856483
1761476483848596200,5.60959619140625,0.020730653339624403,0.0019070026651024816,0.010277456590114161
1761476483858628900,5.61962890625,-0.007307108142971992,0.020796064992342142,0.03344511868515983
1761476483868662000,5.629662109375,-0.03607669103145599,0.03658926192978397,0.03935585883259773
1761476483878695000,5.63969482421875,-0.01859539487659931,0.03105056996513158,0.025351225812360642
1761476483888728000,5.64972802734375,-0.013540449574589728,0.015203706611692904,0.0028055589400231835
1761476483898761000,5.659760986328125,-0.006256137785315513,0.020225443763844667,-0.011008108952222392
1761476483908795100,5.669795166015625,0.010897241589426994,0.02463493076916784,-0.004987451290059834
1761476483918828000,5.679828125,0.030007600250840184,0.038147323293052614,0.003478188371425494
1761476483928861200,5.689861083984375,0.0498924504160881,0.024093005912192163,-0.0009774210642557592
1761476483938894000,5.69989404296875,0.060526072633266446,0.0009716763100586831,-0.008012735661678016
1761476483948927000,5.709927001953125,0.0687935502409935,-0.012503909601084887,-0.00962774224341847
1761476483958960000,5.719960205078125,0.04850128831863403,-0.018651381113845854,0.006371005469793453
1761476483968993000,5.729992919921875,-0.002751344534754753,-0.017356774726044386,0.019422776478296145
1761476483979026200,5.740026123046875,-0.03395136944055557,-0.007109521477948874,0.028830820689583196
1761476483989059000,5.75005908203125,-0.030295185020565985,-0.027817962985765186,0.02134973508603871
1761476483999093000,5.760093017578125,-0.008858429238200188,-0.05676573371905833,-0.011935151536110787
1761476484009126000,5.7701259765625,0.019297405666112898,-0.082874572965689,-0.03138223133860156
1761476484019159000,5.780158935546875,0.036975101175904274,-0.09519391978010534,-0.03807726286468096
1761476484029192000,5.79019189453125,0.01260579907298088,-0.09447609036695212,-0.034747853580489756
1761476484039225000,5.80022509765625,0.008582534906268119,-0.08711610125927254,-0.04030693074604496
1761476484049258000,5.810258056640625,0.028034838873147963,-0.0804760604565963,-0.03456346432375722
1761476484059291100,5.820291015625,0.03444762852489948,-0.06416099506951868,-0.03178716801083647
1761476484069324000,5.830323974609375,0.0040320319950580595,-0.04910889882296324,-0.020302755916910244
1761476484079358200,5.840358154296875,-0.02040975082218647,-0.021508524110633878,-0.0031985311798285693
1761476484089391000,5.85039111328125,-0.0020616087049245835,-0.002150693494174629,0.012120563706150278
1761476484099424000,5.860424072265625,-0.002713350611925125,0.014187241311836987,0.00504200362204574
1761476484109457000,5.870456787109375,0.01535597456395626,0.029779088724590837,-0.00550450656726025
1761476484119490000,5.880489990234375,0.040325580647587775,0.020153602370340376,-0.01998829227341339
1761476484129523000,5.89052294921875,0.04406885882914066,0.01728725315378979,-0.02124743462218903
1761476484139555800,5.900555908203125,0.058149406629800796,0.029575547242816535,-0.026580110020190475
1761476484149589000,5.910589111328125,0.03288227890431881,0.03324862799867988,-0.02351627460331656
1761476484159623200,5.920623046875,0.020621347746253012,0.041733365086279804,-0.012475816017761826
1761476484169656000,5.930656005859375,0.04860124156177044,0.038465284934733064,-0.02514142811973579
1761476484179689000,5.94068896484375,0.048295536613464356,0.038617954745795574,-0.019171158071095123
1761476484189722000,5.95072216796875,0.010888473761081695,0.0284431822120212,-0.005605966780893504
1761476484199755000,5.960755126953125,0.0053594812065362925,0.003455108889937401,-0.0000611921353265643
1761476484209788200,5.9707880859375,0.005524900901317596,-0.021041381522919983,-0.014826653460226952
1761476484219821000,5.980821044921875,0.025439561682939527,-0.03916632760986685,-0.0076617028674576424
1761476484229854200,5.990854248046875,0.024404957938194274,-0.03951130512263626,-0.014563819539267569
1761476484239887000,6.00088720703125,0.024409634113311766,-0.03132874758569523,-0.009570011573657392
1761476484249921000,6.010921142578125,0.01557341670691967,-0.03791092072129249,0.01198978606648743
1761476484259954000,6.020953857421875,-0.0124263508528471,-0.04899809539224952,0.002495716672716662
1761476484269987000,6.030987060546875,-0.0004886602997779846,-0.04998716122852638,-0.016974433478107676
1761476484280020000,6.04102001953125,0.04571428794860839,-0.046897908242605625,-0.010913087612530216
1761476484290053000,6.05105322265625,0.03328092283308506,-0.04385061296857893,0.0005000219440087675
1761476484300086000,6.0610859375,0.019828736063838004,-0.021529000643081962,0.027253223508782683
1761476484310119200,6.071119140625,0.057119479060173034,-0.009869834770448505,0.03291058255019597
1761476484320152000,6.081152099609375,0.04861760817468166,0.003922452407050877,0.025185002399981022
1761476484330186200,6.091186279296875,0.044728199520707126,0.01074599655047059,0.02147306007160805
1761476484340219100,6.10121923828125,0.018206687819957733,0.012533921146858484,0.021308444094425068
1761476484350252000,6.111251953125,-0.03585574175715446,0.01750047577936202,0.0392601616394706
1761476484360285000,6.121284912109375,-0.08047989638149738,0.012323712462279944,0.05271013818532228
1761476484370317800,6.13131787109375,-0.10292845955491066,-0.00893554959502071,0.07649600524394773
1761476484380351000,6.14135107421875,-0.06310556773245335,-0.025334566938504575,0.07899875444564967
1761476484390383900,6.1513837890625,0.01053659158349037,-0.05957761280201375,0.06318220403208397
1761476484400417000,6.1614169921875,0.07743219924867152,-0.06879367810515687,0.05516154079227708
1761476484410450000,6.171449951171875,0.12591653643250464,-0.06324616351323202,0.03918594562578946
1761476484420483000,6.181483154296875,0.15822539936304092,-0.05553557086959481,0.02121690248660743
1761476484430517000,6.19151708984375,0.12843465673327445,-0.05037911968817934,0.03389519140706397
1761476484440550100,6.201550048828125,0.09520692539215088,-0.05810500123249367,0.06137670724638737
1761476484450583000,6.2115830078125,0.04192833966910839,-0.08529363507246598,0.056507183247571806
1761476484460616200,6.2216162109375,0.0010550620108842848,-0.08673247223654762,0.06902940482348204
1761476484470649000,6.231649169921875,-0.04028817124664783,-0.0928291086112149,0.07740563090215437
1761476484480682200,6.24168212890625,-0.07087035651504993,-0.07290728743644431,0.07777277458095923
1761476484490715100,6.251715087890625,-0.08262158458530902,-0.06595087416097521,0.07692648734939284
1761476484500748000,6.261748046875,-0.07523790407478809,-0.057523493283800776,0.07757592770145275
1761476484510781000,6.271781005859375,-0.057529813426733016,-0.0521074230518192,0.08603617880176752
1761476484520815000,6.281815185546875,-0.03218026811480522,-0.043575065696518867,0.07813958946620114
1761476484530848000,6.291847900390625,0.039269349592924115,-0.022909166422486305,0.051079312979942185
1761476484540881200,6.301881103515625,0.08843874643146991,0.002034501502290368,0.03828189119184389
1761476484550914000,6.3119140625,0.11203238798677921,0.007183737491630017,0.03218663392351009
1761476484560947000,6.321947021484375,0.10152911415100097,0.016715901272930205,0.04793057575859129
1761476484570980000,6.33197998046875,0.07144494153261184,0.029084968980588016,0.06188429144234396
1761476484581013000,6.342012939453125,0.04647065927386283,0.031824550012312824,0.07544350964948535
1761476484591046100,6.352046142578125,0.02093640504479408,0.027615225221589206,0.07473011894943192
1761476484601079000,6.3620791015625,0.026845336827635763,0.015061320732627063,0.051258268009731545
1761476484611112200,6.3721123046875,0.04428220931887626,-0.012597232174035161,0.012410714892297982
1761476484621145900,6.382145751953125,0.043591304445266724,-0.03587625482222065,-0.018143778651580213
1761476484631179000,6.392178955078125,0.00022679449319839477,-0.04677229083525017,-0.025035940184956414
1761476484641212000,6.4022119140625,-0.027018355306982992,-0.04650609591342508,-0.018673191086854786
1761476484651245000,6.4122451171875,-0.031412790873646734,-0.05919409337714314,-0.03605837905663065
1761476484661278000,6.42227783203125,-0.04017068234682083,-0.07319593165209516,-0.020767185957729816
1761476484671310800,6.432310791015625,-0.019164719197154043,-0.0889217259091325,-0.00485719424020499
1761476484681344000,6.442343994140625,0.016072598400712013,-0.08951291500162332,-0.000519731291476637
1761476484691377000,6.452376953125,0.02874386392533779,-0.08787119394289329,0.014422319576190784
1761476484701409800,6.462409912109375,0.006132219144701957,-0.07985100562712177,0.02761169069078751
1761476484711443000,6.47244287109375,0.020941081219911575,-0.07092078979434445,0.024626144674513486
1761476484721477000,6.48247705078125,0.043238253223896024,-0.059899702629540114,0.029419306368334217
1761476484731510000,6.492510009765625,0.028879473003745076,-0.053451604202389716,0.01996958757294342
1761476484741543000,6.50254296875,-0.01092179150879383,-0.04787316474923864,0.0047875448037870225
1761476484751576000,6.512576171875,-0.00360240840613842,-0.028737269787769762,-0.020781780738662926
1761476484761609000,6.52260888671875,0.013723989447951316,-0.022487379080150274,-0.03036934623531997
1761476484771641900,6.532641845703125,0.019364625683426857,-0.021320362861081958,-0.0438298076425679
1761476484781674800,6.5426748046875,0.008847323322296142,-0.022219412326347082,-0.03281144215781241
1761476484791708000,6.5527080078125,-0.0065974985688924785,-0.02675911984890699,-0.03154224420590326
1761476484801740800,6.56274072265625,-0.004822890111804009,-0.010522891851700841,-0.03211821746295318
1761476484811774000,6.57277392578125,-0.009767360776662825,-0.02014207632932812,-0.042033626674488185
1761476484821806800,6.582806884765625,0.005346037203073501,-0.014016761849448084,-0.04776058948654681
1761476484831841000,6.592841064453125,0.025993103912472722,-0.008241137590073049,-0.05150753919621929
1761476484841874000,6.6028740234375,-0.00004734627306461334,-0.0056842927141115066,-0.03747848412077874
1761476484851907000,6.612906982421875,-0.00857902777493,-0.019398162626847622,-0.042439412730094044
1761476484861940000,6.62293994140625,-0.0008119009047746658,-0.04260854048561304,-0.052494248678628355
1761476484871972900,6.632972900390625,0.03297521788477897,-0.05223989032506943,-0.0699959117680788
1761476484882006000,6.643006103515625,0.04415244545936584,-0.07931772073432802,-0.07867653675395996
1761476484892039000,6.653038818359375,0.029292729979753494,-0.08180603041872382,-0.07346875724410638
1761476484902072000,6.663072021484375,0.04556815747618675,-0.08312891305293887,-0.05422030528625473
1761476484912105000,6.67310498046875,0.05362403815984726,-0.07432531927451491,-0.0320069391082041
1761476484922137900,6.683137939453125,0.04569324516057968,-0.057244676342420274,-0.032871940173394974
1761476484932170800,6.693170654296875,-0.0023246435552835465,-0.05299549446534365,-0.033262820920813826
1761476484942204000,6.703203857421875,-0.02551145787537098,-0.05754194225594401,-0.03636431233379989
1761476484952237800,6.71323779296875,-0.04916705875098705,-0.05717873496674001,-0.04230621480448171
1761476484962271000,6.72327099609375,-0.07089198382496834,-0.05960800794027745,-0.04278890202119946
1761476484972304000,6.733303955078125,-0.11476093616783618,-0.05834839980062097,-0.028420239727851
1761476484982337000,6.7433369140625,-0.09023264411091804,-0.06932568435631692,-0.016560180988255888
1761476484992370000,6.753369873046875,-0.03200198893845081,-0.05652965994086116,-0.04494030790142715
1761476485002403000,6.763403076171875,0.029380992785096167,-0.05532021108586341,-0.06560747668393888
1761476485012436000,6.77343603515625,0.06531973665058613,-0.038918928720057006,-0.07200073965131305
1761476485022468900,6.78346875,0.07386603119969368,-0.018129859724082053,-0.07507058468386531
1761476485032502000,6.793501953125,0.07640285620093346,-0.014472944651730357,-0.09017762598805129
1761476485042535000,6.803534912109375,0.05348375290632248,-0.011324052166752516,-0.06144078545854426
1761476485052568000,6.813568115234375,0.03564531387686729,-0.00528155713211745,-0.05560220636501908
1761476485062601000,6.82360107421875,-0.008991115707159042,-0.021241562003828585,-0.059871782576153054
1761476485072635000,6.833634765625,0.0015957447588443754,-0.04013981228452176,-0.05433085298864171
1761476485082667800,6.843667724609375,-0.006975099709630012,-0.03224704974070191,-0.05219411495458334
1761476485092701000,6.853700927734375,-0.00775251382291317,-0.03182429428398609,-0.03874591024070978
1761476485102733800,6.86373388671875,-0.03232289145588874,-0.043932226837426425,-0.019298255049483848
1761476485112767000,6.87376708984375,-0.04477379222810268,-0.043662762246280906,-0.009058171327691525
1761476485122799900,6.8837998046875,-0.016222820526361464,-0.04705280654337257,0.00971834313631989
1761476485132833000,6.8938330078125,0.033122517400979996,-0.03821151110306382,0.005327378168376163
1761476485142866000,6.903865966796875,0.07095511218905448,-0.036657486594095824,-0.009964993107458575
1761476485152899000,6.913899169921875,0.06314589974284171,-0.05779087551571428,-0.00827597144143656
1761476485162932000,6.923931884765625,0.06297054317593574,-0.05578490598816424,0.003199097435409203
1761476485172964900,6.93396484375,0.03902034326791763,-0.034751031918264924,0.033049415632151066
1761476485182998000,6.943998046875,0.01897708767056465,-0.02661423148550093,0.04538194158854894
1761476485193031000,6.954031005859375,0.0032902737170457837,-0.015701865392178296,0.06151238939003087
1761476485203064000,6.96406396484375,-0.019412556478381155,-0.006409830509684979,0.06998543603983708
1761476485213097700,6.97409765625,-0.028494857600331304,-0.02443659518547356,0.047141946131549775
1761476485223131000,6.984130859375,-0.01080196452140808,-0.03129044313561171,0.022947754000360143
1761476485233163800,6.994163818359375,0.020780337700247762,-0.022651574932225048,0.005254276399547234
1761476485243197000,7.004197021484375,0.02375730768442154,-0.02052168676406145,-0.0031321240132674575
1761476485253229800,7.014229736328125,0.013850830698013305,-0.014670732246153055,-0.002606300907721743
1761476485263263000,7.024262939453125,0.029355273821949957,-0.01709277176130563,-0.0012493698734324424
1761476485273296000,7.0342958984375,0.028680735561251638,-0.013030746486783026,0.01926625247602351
1761476485283329000,7.0443291015625,0.04506020795404911,-0.011930201366357505,0.029531726367399095
1761476485293362000,7.05436181640625,0.04288286391496658,-0.019248086631670592,0.04238607510766014
1761476485303395000,7.06439501953125,0.05972527764439582,-0.008243146884068846,0.06301394392624497
1761476485313428000,7.074427978515625,0.06283610314130783,-0.018604053107090294,0.07299249976817518
1761476485323460900,7.0844609375,0.0532604655444622,-0.01901705435477197,0.07641937807747162
1761476485333494000,7.094493896484375,0.03622574411332607,-0.037154293667711315,0.07762023263406008
1761476485343527000,7.10452685546875,0.027871172744035718,-0.047504495833627876,0.0684436499579344
1761476485353560000,7.11456005859375,0.005593874484300613,-0.04986614693105221,0.06523664321070537
1761476485363593000,7.124593017578125,-0.0029331308424472807,-0.04775156592987478,0.05504801568151451
1761476485373627000,7.134626953125,-0.009070026162266731,-0.05387691694237291,0.047035928473807866
1761476485383659800,7.14465966796875,-0.021795067700743673,-0.061736325205862516,0.05306116184638813
1761476485393693000,7.15469287109375,-0.004902385088801383,-0.05097739610858261,0.0645730373359751
1761476485403725800,7.164725830078125,-0.002528641694784164,-0.04090495143812149,0.06569740172340534
1761476485413759000,7.174759033203125,0.002685293561220169,-0.024952472285740077,0.06708605220336467
1761476485423791900,7.1847919921875,0.04651332937180996,-0.02399056845102459,0.05884476848281919
1761476485433825000,7.194824951171875,0.0631166736483574,-0.020353015666268764,0.05901772303008474
1761476485443858000,7.20485791015625,0.04516249928474426,-0.011267865000106394,0.07132551640402525
1761476485453890800,7.214890869140625,0.024075872114300727,-0.00577208059541881,0.07542531640566885
1761476485463924000,7.224924072265625,0.03679214582443237,-0.004166289366595447,0.05471113927680999
1761476485473956900,7.234956787109375,0.04814823709726333,-0.004615750167146325,0.027151142240641638
1761476485483990000,7.244989990234375,0.02267886479794979,-0.025655213727615773,0.03490841443706304
1761476485494023000,7.25502294921875,0.013059972581267357,-0.035345600277930496,0.04494517587278969
1761476485504056000,7.26505615234375,0.0257283154964447,-0.02582666130438447,0.05264669016082771
1761476485514089000,7.2750888671875,0.02463350599706173,-0.01795527034215629,0.061929637554567304
1761476485524122000,7.2851220703125,0.010233224722743033,-0.00822703599948436,0.0702892504251562
1761476485534155000,7.295155029296875,0.01723871957063675,-0.005226319813542068,0.08485571857923642
1761476485544189000,7.30518896484375,0.005979074409604072,-0.010801927988789975,0.07920258818836882
1761476485554221800,7.315221923828125,-0.029359365475177764,-0.026257417404465376,0.07330708214268088
1761476485564255000,7.3252548828125,-0.034005729976296424,-0.04876063337456435,0.09112917282553389
1761476485574288000,7.335287841796875,-0.011236264285445212,-0.05960519492868334,0.0975564111277461
1761476485584321000,7.345321044921875,0.0015589198797941208,-0.07542597399279474,0.09425676679415627
1761476485594354000,7.35535400390625,0.03682838618159294,-0.07259283292610198,0.07880451051518321
1761476485604386800,7.36538671875,0.06881985372602939,-0.07571089188139886,0.034643004966527224
1761476485614420000,7.375419921875,0.08344225331842899,-0.052060953561589116,-0.014297935144696385
1761476485624452900,7.385452880859375,0.08007014653682708,-0.03989997564665973,-0.03028908407334238
1761476485634486000,7.395486083984375,0.03925181393623352,-0.01947685388624668,-0.038588701251847664
1761476485644519000,7.405518798828125,-0.02316986318528652,-0.030348595708236097,-0.04343322780672461
1761476485654552000,7.415552001953125,-0.025782676032185554,-0.034739378013089295,-0.054515762835182245
1761476485664585500,7.42558544921875,-0.043674891075491905,-0.04920669664163142,-0.035344321636296805
1761476485674618400,7.435618408203125,-0.058878305426239966,-0.04257423635721207,-0.006104344757087528
1761476485684651300,7.4456513671875,-0.04071779483556747,-0.031530718164891,-0.006561678336840122
1761476485694684400,7.455684326171875,-0.015537760871648787,-0.027654022862017152,-0.007126490879058837
1761476485704717300,7.46571728515625,-0.0127922615557909,-0.03061473583113402,0.02734813525062054
1761476485714750500,7.47575048828125,-0.00013853168785572052,-0.03243497352823615,0.059865361968521026
1761476485724783400,7.485783447265625,0.02153027928471565,-0.01166709345076233,0.08329904545545577
1761476485734816500,7.49581640625,0.07121288634240627,-0.011313128913938998,0.06775585949001833
1761476485744849400,7.505849365234375,0.09815817641317844,-0.017974121173098684,0.03806328000510111
1761476485754883600,7.515883544921875,0.06838321587443351,-0.039169286751933395,0.03435330130495131
1761476485764916500,7.52591650390625,0.03381283775269985,-0.03990848774667829,0.0473882307765074
1761476485774949600,7.53594970703125,0.0019224924951791761,-0.05203512500058859,0.06133011902514845
1761476485784982500,7.545982421875,-0.029951486149430273,-0.03972352310121059,0.07482132263053208
1761476485795015700,7.556015625,-0.040859249132871624,-0.028819742173142728,0.06938364335494115
1761476485805048600,7.566048583984375,-0.008801146093010902,-0.035302674451656635,0.05547746574049815
1761476485815081500,7.57608154296875,0.03433832293152809,-0.04263352879639715,0.04646797412643209
1761476485825114400,7.5861142578125,0.06025894612967968,-0.0473878471840173,0.019924743784219025
1761476485835147300,7.596147216796875,0.033949031352996824,-0.04857552259862423,0.003087134094070643
1761476485845180400,7.606180419921875,0.012116554251313208,-0.04757639202605932,0.015536062104906885
1761476485855213300,7.61621337890625,-0.0015028057783842085,-0.03616027766168117,0.023159725383762268
1761476485865246500,7.62624658203125,0.027948329633474347,-0.037137488663382824,0.009030114276986568
1761476485875279400,7.636279296875,0.038978257691860196,-0.048077217687666415,0.005075969823729247
1761476485885312500,7.6463125,0.04417290372550487,-0.059699302952922875,0.014634528421610593
1761476485895345400,7.656345458984375,0.02244622508585453,-0.03945862508732825,0.025228366617672145
1761476485905378300,7.66637841796875,-0.005265373182296753,-0.02137581937536597,0.04176078281616792
1761476485915411500,7.676411376953125,-0.05961363396346569,-0.005220511127263307,0.06313757030591369
1761476485925444400,7.6864443359375,-0.05189034623503685,0.00251936240978539,0.0624562187119387
1761476485935477500,7.6964775390625,-0.036106501647830004,-0.011412168841622768,0.06173219702001661
1761476485945510400,7.706510498046875,-0.015246668970584869,-0.013886596131138502,0.06550137682780623
1761476485955543600,7.71654345703125,-0.003191489517688751,-0.00718180126287043,0.09246849513789639
1761476485965576400,7.726576416015625,0.012779402074217796,0.007000453346595168,0.10536569663919508
1761476485975609600,7.736609619140625,0.029198037433624265,0.012878368936665356,0.1038124393152073
1761476485985642500,7.746642578125,0.05759878700971603,0.007567329981736839,0.0967489672023803
1761476485995675600,7.756675537109375,0.0738783061593771,0.021924831560254095,0.1127458700183779
1761476486005708500,7.76670849609375,0.08865969570577144,0.02381795183047652,0.12286810864731669
1761476486015741400,7.776741455078125,0.07128361349105834,0.021609482000768183,0.1269504095248878
1761476486025775400,7.786775390625,0.05586217247545719,0.012640870386362075,0.10458978036325424
1761476486035808500,7.79680859375,0.06290975289940834,-0.013518347340635955,0.07615224244073032
1761476486045841400,7.80684130859375,0.07102057864069938,-0.028410869111306962,0.06286761252442374
1761476486055874300,7.816874267578125,0.052658992519974704,-0.03261120687797665,0.05913277337765321
1761476486065907500,7.826907470703125,0.004688450077176094,-0.014560842130891979,0.06513674476649611
1761476486075940400,7.8369404296875,-0.021283611047267913,-0.0051939153812825675,0.04742134759481996
1761476486085973500,7.846973388671875,-0.03710077338218689,-0.010044058826193213,0.012790270528104155
1761476486096006400,7.85700634765625,-0.04307224900722503,-0.031277766317129134,-0.019493202232848852
1761476486106039600,7.86703955078125,-0.0212450326025486,-0.046587563651800154,-0.05993351356759667
1761476486116072400,7.877072509765625,-0.009611877954006195,-0.052029718173108995,-0.08834328670036047
1761476486126105600,7.887105712890625,-0.009494973576068877,-0.037284057527221734,-0.08171506419964135
1761476486136138500,7.897138427734375,0.006637830579280853,-0.012511910244449972,-0.07962251236718147
1761476486146171600,7.907171630859375,0.002895136919617653,0.011564984783157706,-0.09478658108823
1761476486156204500,7.91720458984375,-0.024175825357437133,0.01792334083393216,-0.09215091708870604
1761476486166237400,7.927237548828125,-0.041819034075737,0.006770955439656973,-0.09128704853467642
1761476486176270600,7.9372705078125,-0.03477612982690334,-0.011535393362492322,-0.09912985272323713
1761476486186303500,7.947303466796875,-0.04866729253530502,-0.020089871218055486,-0.1148980796162039
1761476486196336400,7.95733642578125,-0.0395095880895853,-0.022136172755993902,-0.12180321936216204
1761476486206369300,7.967369384765625,0.027408231407403946,-0.029368535162322223,-0.14366203648149967
1761476486216402400,7.97740234375,0.07561901234686375,-0.024138160228170454,-0.15273513138368724
1761476486226435300,7.987435302734375,0.06605331162214279,-0.03631492023412138,-0.19393826205078513
1761476486236468500,7.997468505859375,0.041650107249617575,-0.049068311084248126,-0.2112254056067206
1761476486246501400,8.00750146484375,0.027397125491499898,-0.06117912971451878,-0.1699502143504098
1761476486256534300,8.0175341796875,0.01672550935149193,-0.05042158885672688,-0.12822972701201216
1761476486266567400,8.0275673828125,0.0035100539475679394,-0.0219592818191275,-0.12130370887480675
1761476486276600300,8.037600341796875,-0.00941430955529213,-0.009457198848947882,-0.10993433799529448
1761476486286633500,8.047633544921876,-0.011427402943372725,-0.019959120977856216,-0.10894410311523824
1761476486296666400,8.057666259765625,-0.02019406224489212,-0.023713395477458835,-0.10667307117702439
1761476486306699500,8.067699462890625,-0.09435352343320846,-0.015601254561915993,-0.09131148885618895
1761476486316732400,8.077732421875,-0.09563011924028396,-0.008852730149775744,-0.06995603641541674
1761476486326765600,8.087765625,-0.028344050952792167,-0.015534692131727933,-0.06296827815361321
1761476486336798500,8.097798583984375,0.021322774013876913,-0.01280252722147852,-0.07417619312740861
1761476486346831600,8.10783154296875,0.03183013950288296,-0.012697495944425463,-0.08022612254982814
1761476486356864500,8.117864501953125,0.060767480173707006,-0.010844890347681938,-0.09547081875903532
1761476486366897400,8.1278974609375,0.07338613872826098,0.007697714895755052,-0.1055920527409762
1761476486376930600,8.1379306640625,0.04559738357067108,0.019012743505835532,-0.10490151319354772
1761476486386963500,8.14796337890625,-0.010022212320566177,0.014607384686358272,-0.09980643681054935
1761476486396996600,8.15799658203125,-0.021062661772966385,0.014072949016094207,-0.08433288201522082
1761476486407029500,8.168029541015626,-0.0038268648117780685,-0.004399111741781234,-0.10339501762073486
1761476486417062400,8.1780625,-0.03386310663521289,-0.01768511163126677,-0.10666022996176033
1761476486427095300,8.18809521484375,-0.0332049349874258,-0.019793445554748178,-0.09108555287951603
1761476486437128400,8.19812841796875,-0.006501636978983879,-0.016316051767766473,-0.09757001952799037
1761476486447161300,8.208161376953125,0.03426584221720695,-0.011780673360452056,-0.11586133515778928
1761476486457194500,8.218194580078125,0.049131987437605856,-0.016786884149909018,-0.131123201697506
1761476486467227400,8.228227294921876,0.03479834165871143,-0.027401144079491496,-0.13117865821179
1761476486477260300,8.23826025390625,0.029417233142256735,-0.026290406358614564,-0.11862650728849694
1761476486487294500,8.24829443359375,0.019083470654487608,-0.022185674453526733,-0.10196361484443768
1761476486497327600,8.25832763671875,0.002904489269852638,-0.0176879977080971,-0.09907669776389375
1761476486507360500,8.268360595703125,0.00813245305120945,-0.0042222573375329375,-0.09543512639114633
1761476486517393400,8.278393310546875,0.024610125121474265,0.001638049530610442,-0.07687546041505411
1761476486527426600,8.288426513671874,0.015083002841472624,0.004916450146771967,-0.056750791878253215
1761476486537459500,8.29845947265625,0.004079378268122673,0.011912373448722063,-0.05576740686409175
1761476486547492600,8.30849267578125,0.0036947628647089003,0.03139262486845255,-0.05329917185334489
1761476486557525500,8.318525390625,0.010613748472929,0.032438261463865636,-0.05935187775474041
1761476486567558400,8.328558349609375,-0.004631751453876495,0.023152400593832133,-0.06511440507052466
1761476486577591300,8.33859130859375,0.002264437800645828,0.011121551864594221,-0.0578642147465609
1761476486587624400,8.34862451171875,0.028774259063601492,0.014407441667467356,-0.05178686759425327
1761476486597657300,8.3586572265625,0.01416822608411312,-0.0015017828650772571,-0.036466110474150625
1761476486607690500,8.3686904296875,0.0006447276443243027,0.006034019467234611,-0.02961419875277206
1761476486617723400,8.378723388671874,0.008685410758852959,0.0009324585445225238,-0.0289353131105192
1761476486627756300,8.38875634765625,0.015223872616887091,-0.004982026196271181,-0.043689540655352174
1761476486637789400,8.39878955078125,0.006934767699241637,-0.008537490188144146,-0.06216474321838468
1761476486647822300,8.408822265625,0.014494973820447921,-0.025084026243537665,-0.07018703215969727
1761476486657855500,8.41885546875,0.038349896660447115,-0.031108218436501918,-0.06773227768503129
1761476486667891700,8.4288916015625,0.03855857097506523,-0.02746471083499491,-0.07418570987442508
1761476486677924600,8.438924560546875,0.019929273828864096,-0.028654870467633008,-0.08234457600852474
1761476486687957800,8.448957763671874,-0.020382862815260885,-0.02453758960822597,-0.050701045118924225
1761476486697990700,8.45899072265625,-0.04392915809750557,-0.03406200847448781,-0.035233481672964986
1761476486708023800,8.46902392578125,-0.07453647780716419,-0.0666656348342076,-0.05801323129581287
1761476486718056700,8.479056640625,-0.0957633902311325,-0.07654442009609193,-0.05760072323847562
1761476486728089900,8.48908984375,-0.08695990605056285,-0.07156332548158242,-0.0748643397883512
1761476486738122800,8.499122802734375,-0.022075053685903546,-0.06684117406420409,-0.0809944948401302
1761476486748155600,8.50915576171875,0.014827566775679587,-0.05019289466738701,-0.06530159820569678
1761476486758188800,8.519188720703125,0.060004094585776324,-0.026388934829644856,-0.04448571426803246
1761476486768221700,8.5292216796875,0.10359247642159461,-0.014878383647464214,-0.03576141453720629
1761476486778254800,8.5392548828125,0.11309621782600879,-0.003731916537322104,-0.03869805251099169
1761476486788287700,8.549287841796875,0.07187924129664898,0.003437317504920065,-0.013221117959730326
1761476486798321000,8.55932080078125,-0.007062193471193313,0.009269092398323119,0.009097151631209999
1761476486808353500,8.569353515625,-0.07361936296224594,0.02006857270170003,0.051562420321768145
1761476486818386700,8.57938671875,-0.08228022380173206,-0.010656418570876122,0.08633162721754051
1761476486828419600,8.589419677734375,-0.05396715250909328,-0.04505498378966003,0.10252764193536713
1761476486838452700,8.59945263671875,-0.007218260815739631,-0.08020086024440824,0.10512194187804125
1761476486848485600,8.609485595703125,0.02773907079696655,-0.10166490589249878,0.08352427817923017
1761476486858518500,8.6195185546875,0.06435995170772076,-0.10874901893455534,0.0802743912714999
1761476486868551700,8.6295517578125,0.09197861099541187,-0.10346475838869809,0.07768333359868265
1761476486878584600,8.63958447265625,0.09262450768351554,-0.08074881298337132,0.07687012665281072
1761476486888620500,8.64962060546875,0.035764556342363356,-0.057920420179516076,0.10470705920052714
1761476486898653700,8.65965380859375,0.013134206861257552,-0.05202394601944834,0.1153007603992708
1761476486908686600,8.6696865234375,0.007830839756131172,-0.06062898501846939,0.12165654090046882
1761476486918719700,8.6797197265625,-0.006750058782100677,-0.07021203873679041,0.12850898234480992
1761476486928752600,8.689752685546875,-0.04479191240668297,-0.06016158670242876,0.15604014601213856
1761476486938785800,8.699785888671874,-0.07052198146879672,-0.05295143612790852,0.1902060349862091
1761476486948818700,8.709818603515625,-0.07107493917644024,-0.03294292305037379,0.20044428294394165
1761476486958851800,8.719851806640625,-0.10259820468723774,-0.0395885716099292,0.1558233797226101
1761476486968884700,8.729884765625,-0.08581541219055652,-0.06300218042321502,0.11176225667535326
1761476486978917600,8.739917724609375,-0.0298719911724329,-0.12282445216868072,0.11280654156389645
1761476486988950800,8.74995068359375,0.03156359752118587,-0.09216602332629263,0.14685947168278507
1761476486998983700,8.759983642578124,0.05392798954248428,-0.002332717263884842,0.1789323065008968
1761476487009016800,8.770016845703125,0.043082185879349706,0.07010108917560429,0.22244389677345752
1761476487019049700,8.7800498046875,0.061442018434405325,0.09940368296224623,0.2595331258483231
1761476487029083000,8.790082763671874,0.0663666153550148,0.06468143874704838,0.28745807460621
1761476487039115800,8.80011572265625,0.07013210536837577,0.02413348405305296,0.26607461991366
1761476487049148700,8.810148681640625,0.07691898902952671,-0.0037119331952184436,0.2426577048984356
1761476487059181600,8.820181640625,0.07803367227315902,-0.030479272883199154,0.20071729119904339
1761476487069214700,8.830214599609375,0.07346329561769963,-0.04311919342149049,0.16865688660424202
1761476487079247600,8.84024755859375,0.06333236222565174,-0.04328395552914589,0.15616046618986873
1761476487089280500,8.850280517578126,0.0741308196157217,-0.019885398154519496,0.13829866455113515
1761476487099313700,8.860313720703125,0.05661854380071163,-0.008769618443585932,0.13502210883218793
1761476487109346600,8.8703466796875,0.038348727616667744,-0.011833937917649745,0.14091887525320052
1761476487119379700,8.880379638671876,0.01753624121248722,-0.027091457075811922,0.1549803712935187
1761476487129412600,8.89041259765625,0.013204934009909628,-0.05212470298018306,0.15426478863637894
1761476487139445800,8.90044580078125,0.010398644417524337,-0.07936656484473496,0.13069971558842808
1761476487149478700,8.910478759765626,-0.00017769465446472167,-0.10748520954381674,0.09820124836992472
1761476487159511800,8.92051171875,0.008249941951036453,-0.13552848745174706,0.07163577879643998
1761476487169544700,8.930544677734375,0.008585457515716552,-0.15400891417916862,0.07000119073139503
1761476487179577600,8.94057763671875,-0.008591302734613417,-0.15162603763062507,0.07451896954993717
1761476487189610800,8.95061083984375,-0.004539396995306015,-0.13810794601831583,0.06755672932188027
1761476487199643600,8.9606435546875,0.000384030881524086,-0.14561269562523813,0.05683612294099293
1761476487209676800,8.9706767578125,-0.009685527712106705,-0.144444017172046,0.04163269032393582
1761476487219709700,8.980709716796875,-0.00944996539056301,-0.16040142822787165,0.03839748039552942
1761476487229742800,8.990742919921875,0.008280337089300155,-0.1466151871986687,0.059665208887076
1761476487239775700,9.000775634765626,0.007163315758109092,-0.12342128555066882,0.06299916648222133
1761476487249809000,9.010808837890625,-0.02072130098938942,-0.09828735575079918,0.07976657874668017
1761476487259841800,9.020841796875,-0.027955928418040274,-0.07819996875077485,0.08443076203227974
1761476487269874700,9.030874755859376,0.0028086276799440383,-0.07566701620705425,0.07724981015278026
1761476487279907600,9.040907470703125,0.03714695061147213,-0.06236841256432235,0.07824062955472617
1761476487289940500,9.0509404296875,0.027321137645840644,-0.036523704146593804,0.08754377948627806
1761476487299973600,9.0609736328125,0.03393091117441654,-0.01919467594400048,0.09903674934599548
1761476487310006500,9.071006591796875,0.04665770627856254,-0.0006695698246359825,0.10088875215454027
1761476487320039700,9.081039794921875,0.07899287269413471,0.019491539998725056,0.08793890715055167
1761476487330072600,9.091072509765626,0.08576748139560222,0.026759923566505313,0.10177726195948197
1761476487340105700,9.101105712890625,0.06775017866790295,0.029668614087440072,0.12571407266296444
1761476487350138600,9.111138671875,0.06205459737479686,0.027413309441320595,0.12984984816028736
1761476487360171800,9.121171875,0.04994213477671146,0.01296001933813095,0.11598017576448619
1761476487370204700,9.13120458984375,0.040831776604056354,0.017707286930456756,0.10058517523123882
1761476487380237800,9.14123779296875,0.023778350472450256,0.012904672421701251,0.057177821651287375
1761476487390270700,9.151270751953126,0.0002548515439033508,-0.025035766655020414,0.051272807991737494
1761476487400303600,9.1613037109375,-0.003252279794216156,-0.04885412034429609,0.057617135517159475
1761476487410336800,9.171336669921875,-0.006493453672528266,-0.03877860693391412,0.06147703494885936
1761476487420369700,9.18136962890625,-0.016031097346544263,-0.03248162568155676,0.047925680387765165
1761476487430402800,9.19140283203125,-0.05459083736538887,-0.028979462779499587,0.04968923772787675
1761476487440435700,9.201435791015625,-0.08146013959050179,-0.025215543668717144,0.04807645963584073
1761476487450468900,9.21146875,-0.08452946403324603,-0.029852044362947344,0.045583144982764494
1761476487460501800,9.221501708984375,-0.061709144937992094,-0.048973947331681845,0.05257391718556173
1761476487470535000,9.231534912109375,-0.025568741020560264,-0.04755352260712534,0.034022160521289334
1761476487480566800,9.24156689453125,0.025236148065328597,-0.028763883800059554,0.03409710718733258
1761476487490599700,9.251599609375,0.09355448201000689,-0.022141323855146763,0.03561560372519307
1761476487500632800,9.2616328125,0.1380880357414484,-0.017616138048283755,0.009096704106638208
1761476487510665700,9.271665771484376,0.15419512093365192,-0.02122282077074051,-0.011036942321062088
1761476487520699000,9.281698974609375,0.14292027820348738,-0.027444142971001565,-0.010739694673847406
1761476487530731800,9.291731689453124,0.11383329992890358,-0.034199498982727526,-0.020378752895724026
1761476487540765000,9.301764892578126,0.06873509805202484,-0.035669717665761706,0.0014379238486289978
1761476487550797800,9.3117978515625,0.0013479074776172636,-0.014304492749646305,0.020024112505465746
1761476487560830700,9.321830810546874,-0.06377952147126198,0.0024098010880872606,0.034745643357094375
1761476487570863600,9.331863525390625,-0.10166647679507732,0.0011472703389823436,0.04643018113300204
1761476487580896500,9.341896484375,-0.12040566405653953,-0.002665967806242406,0.029225217701494693
1761476487590929700,9.3519296875,-0.09532850594520569,-0.009970957057364284,0.01670198234543204
1761476487600962600,9.361962646484375,-0.05618950473368167,-0.029696086616255342,0.002358052634540945
1761476487610995700,9.37199560546875,-0.023194413104653356,-0.01377579270042479,-0.014175660471897571
1761476487621028600,9.382028564453124,0.014134323814511298,0.00862823721151799,-0.0400644820259884
1761476487631061800,9.392061767578125,0.06089022977054119,0.010008110729977489,-0.06724060344425961
1761476487641094700,9.4020947265625,0.09119593618512153,-0.0036580841161310673,-0.07931604023389517
1761476487651127800,9.4121279296875,0.11135141998529434,0.01066748795416206,-0.07626189509397373
1761476487661160200,9.42216015625,0.09893383696079254,0.024101846805773673,-0.050251438187900926
1761476487671193300,9.432193359375,0.06936813525855541,0.040063093786500394,-0.039320367394108324
1761476487681226200,9.442226318359374,0.03804711432158947,0.04388148303087801,-0.06048555795978754
1761476487691259400,9.45225927734375,0.01855798547565937,0.03519011745527387,-0.09979925815109163
1761476487701292300,9.462292236328125,0.018656185153126715,0.005955620468780398,-0.13387427223762496
1761476487711325400,9.472325439453124,0.0034586160212755203,-0.018944062183797357,-0.16524835680238903
1761476487721358300,9.4823583984375,0.010521978536248207,-0.0278487782491371,-0.18911098802480847
1761476487731391200,9.49239111328125,0.0055944590061902996,-0.023186083667725323,-0.17325455312542618
1761476487741424400,9.50242431640625,0.0048310734182596205,0.006273929170332849,-0.17746438937280326
1761476487751457300,9.512457275390625,-0.0040308629512786865,-0.0017199921930208801,-0.17698882601661606
1761476487761490400,9.522490478515625,0.012086743634939194,-0.014947722556628285,-0.17992084261421112
1761476487771523300,9.5325234375,-0.004414309310913086,-0.010228329351916908,-0.16405010519484056
1761476487781556500,9.542556396484375,-0.0056266077101230615,-0.003247676684334874,-0.15113251849263906
1761476487791589400,9.55258935546875,0.019216157123446462,-0.00614884148593992,-0.13440598622784017
1761476487801622300,9.562622314453124,0.036460721912980075,0.009115107413008808,-0.11469077527476473
1761476487811655200,9.5726552734375,0.01706745465695858,-0.017222206827253103,-0.14339138458026573
1761476487821688000,9.58268798828125,0.024775544816255567,-0.038230800325423475,-0.14980386370476334
1761476487831721200,9.59272119140625,0.039836920347809786,-0.021556144378334283,-0.1388731582371518
1761476487841754000,9.602754150390625,0.033221886122226714,0.006616458997689187,-0.141653071279265
1761476487851787300,9.612787353515625,0.026008301481604573,0.02043378928489983,-0.12164892384959385
1761476487861819400,9.6228193359375,0.010710779106616974,0.021909560925886033,-0.11632782015837728
1761476487871852300,9.632852294921875,-0.010431962165236473,0.0046894729904830455,-0.12735221352512016
1761476487881885200,9.64288525390625,-0.03158464030921459,-0.005819938325136899,-0.14184475792646406
1761476487891918000,9.65291796875,-0.03015723785459995,-0.0031490386154502626,-0.13919712949451057
1761476487901951200,9.662951171875,-0.027545594051480292,-0.011977218845859169,-0.13726144872419535
1761476487911984000,9.672984130859374,-0.05547697255015373,0.013235694474354385,-0.0956996225462295
1761476487922017300,9.683017333984376,-0.024153029003739356,-0.005473974431678652,-0.14334515255205332
1761476487932050200,9.69305029296875,-0.00480886158645153,-0.03897990165967494,-0.1439542060947977
1761476487942083300,9.703083251953124,0.04968728323280811,-0.005027582371048629,-0.11735663348315283
1761476487952116200,9.7131162109375,0.028925065711140632,0.011285546787269413,-0.1380377120600082
1761476487962149400,9.7231494140625,0.055603813800215715,0.014264270337112247,-0.12999989675600082
1761476487972182300,9.733182373046875,0.09156944567263126,0.011598010269924998,-0.09943100936058909
1761476487982215400,9.74321533203125,0.08954349280297756,0.0027671266257762906,-0.07664340522484854
1761476487992248300,9.753248291015625,0.05700666633546352,-0.006215367383509874,-0.07924730411292985
1761476488002281200,9.76328125,-0.013813421297073364,-0.03792589909471571,-0.09602854397334158
1761476488012314400,9.773314453125,-0.006797989577054977,-0.058179180713556704,-0.06698405313361436
1761476488022347300,9.78334716796875,0.011152093133330345,-0.02428556934222579,-0.016103340598847715
1761476488032380400,9.79338037109375,0.021469489008188247,0.001043006246909499,-0.016714860093314198
1761476488042413300,9.803413330078126,0.045395723518729204,-0.0016120017739012836,-0.04366351116495207
1761476488052446500,9.813446533203125,0.09533785829544067,-0.012424085830524564,-0.042340409335028376
1761476488062479400,9.823479248046874,0.0910883841574192,-0.000059274172876030205,-0.01390834217206575
1761476488072512500,9.833512451171876,0.045238487130403515,0.019880648914165792,-0.012075692517962306
1761476488082545400,9.84354541015625,-0.014665069690346717,0.026006401785463092,-0.007794946458842605
1761476488092578000,9.853578125,-0.044025604209303855,-0.0017326507451944052,-0.007378666408685967
1761476488102611200,9.863611083984376,-0.07307341951727866,-0.06705353817325085,-0.023905082124657927
1761476488112644000,9.87364404296875,-0.09821545955836772,-0.09638124813484028,-0.011631218419782817
1761476488122677200,9.88367724609375,-0.1001642555385828,-0.09538699466679244,-0.004490306289726868
1761476488132710100,9.893710205078126,-0.07399930219054221,-0.06690357177592814,-0.029098129856260493
1761476488142742300,9.9037421875,-0.03529284717738628,-0.06583006079290062,-0.055377037573326376
1761476488152775200,9.913775146484374,-0.016226327657699584,-0.07747240339489653,-0.06677378051695414
1761476488162808000,9.92380810546875,-0.013505378261208534,-0.09138829868575557,-0.05814012734480202
1761476488172841200,9.93384130859375,0.0176285956710577,-0.07765380611009895,-0.05225616560643539
1761476488182874000,9.9438740234375,0.02945581158697605,-0.05728840588629246,-0.05600941719273105
1761476488192907300,9.9539072265625,0.03934241482913494,-0.06861054009059443,-0.02972451812629588
1761476488202940200,9.963940185546875,0.05700608181357383,-0.06871381780197844,-0.0019581117978319526
1761476488212973300,9.973973388671874,0.05446224254965782,-0.06205496270097792,0.0022410203924402594
1761476488223006200,9.984006103515625,0.033495442366600035,-0.05802877592481672,0.01428039035485126
1761476488233039400,9.994039306640625,0.0038379707276821134,-0.044928946257196366,0.018185791162401436
1761476488243072300,10.004072265625,-0.009218494722247124,-0.040118038844130934,0.04693264162926934
1761476488253105400,10.01410546875,0.01619827060699463,-0.040206137252692134,0.09271355594014749
1761476488263138300,10.02413818359375,0.01695113480091095,-0.040431726169493046,0.10468390665380284
1761476488273171200,10.034171142578124,0.04466039498150348,-0.04240596711821854,0.09553653180585242
1761476488283204400,10.044204345703125,0.05831599536836147,-0.04211524054333567,0.09039315016856417
1761476488293237200,10.0542373046875,0.035766309908032416,-0.031382140007056296,0.11448150730510241
1761476488303270400,10.0642705078125,0.012456745991110801,-0.003823047153186053,0.13137063711993396
1761476488313303300,10.07430322265625,0.016215806263685226,0.015059165308158843,0.14877323288223707
1761476488323336400,10.08433642578125,0.016681085687875748,-0.006418105147685855,0.16707948121968655
1761476488333369300,10.094369384765624,0.026437340548634527,-0.0032321685879491266,0.1741046671487391
1761476488343402500,10.104402587890625,0.033521745851635934,-0.001729180146474391,0.16306600779462604
1761476488353435400,10.114435302734375,0.03464928857684135,-0.02125604718690738,0.15373298331461846
1761476488363468300,10.12446826171875,0.04760638530552387,-0.05687260989332571,0.15460779338777064
1761476488373500400,10.13450048828125,0.04424713800549507,-0.05334911194229498,0.15547387216519565
1761476488383533300,10.144533203125,0.042054011875391005,-0.05096460969224572,0.15243967383475973
1761476488393566500,10.15456640625,0.05329904398918152,-0.05387960208980366,0.14191357624582013
1761476488403599400,10.164599365234375,0.03609071955680847,-0.05097849208712577,0.15788473269920794
1761476488413632500,10.174632568359375,-0.004162964898347854,-0.05296738261571154,0.20110537720117716
1761476488423665400,10.18466552734375,0.007814473143219947,-0.07431587559273466,0.19104718025177717
1761476488433698300,10.1946982421875,0.021904957816004753,-0.09960987305883318,0.16635894839279353
1761476488443731200,10.204731201171874,0.027629180681705473,-0.1081212972239591,0.16910927001424134
1761476488453764000,10.21476416015625,0.021687515673041342,-0.095821787621174,0.19968745496096088
1761476488463797200,10.22479736328125,-0.013579028019309044,-0.06766562392329797,0.20400606707874686
1761476488473830100,10.234830078125,-0.006365443378686905,-0.05973632876137271,0.16363403520723804
1761476488483863300,10.24486328125,0.02222176868021488,-0.060246305843815205,0.11050919700749218
1761476488493896200,10.254896240234375,0.029696634605526923,-0.08010962003068998,0.09499936532238498
1761476488503929300,10.264929443359375,0.021142741271853446,-0.07614535604221746,0.10710519725028425
1761476488513962200,10.274962158203126,0.019908815562725064,-0.05905132390558719,0.11457452848395332
1761476488523995400,10.284995361328125,-0.03340308790802955,-0.040882209883350874,0.13173592676836995
1761476488534028300,10.2950283203125,-0.01712882945537567,-0.03368948536766693,0.13664288756758905
1761476488544061200,10.305061279296876,-0.008778349739313126,-0.043614667054545135,0.15244929104647598
1761476488554094300,10.31509423828125,-0.013137129470705985,-0.041839675004966555,0.18016195789370684
1761476488564127200,10.325127197265624,0.030538346126675605,-0.032481388219539074,0.1781491932991892
1761476488574160400,10.335160400390626,0.07197334932088852,-0.03707962099630385,0.1431701247787103
1761476488584192300,10.345192138671875,0.05775485435426235,-0.0651285249274224,0.12398822611789219
1761476488594225400,10.355225341796874,0.03920505218505859,-0.08306361099807545,0.1300707061030436
1761476488604258300,10.36525830078125,0.05986088672280311,-0.07463730783313513,0.13613424392570742
1761476488614291200,10.375291259765625,0.07226502574384212,-0.0571739857263863,0.1422662347415462
1761476488624324400,10.385324462890624,0.048591304689645766,-0.03508766172779724,0.14927899044728837
1761476488634357200,10.395357177734375,-0.04916004448831081,-0.02062167653981596,0.17906440844796598
1761476488644390400,10.405390380859375,-0.08721241950690746,-0.013554003175906836,0.18431728747487067
1761476488654423300,10.41542333984375,-0.040435470762848855,-0.031216208855621513,0.15877748028784988
1761476488664456400,10.42545654296875,0.012910334977507591,-0.06429695120779796,0.1275007642834913
1761476488674489600,10.435489501953125,0.04441255770027637,-0.0900595160337165,0.08323740579555743
1761476488684522500,10.4455224609375,0.0703968937844038,-0.10046488245297222,0.05621936101582832
1761476488694555600,10.4555556640625,0.041948213413357735,-0.09897502748770638,0.05834268244588747
1761476488704588300,10.46558837890625,0.0017038813084363936,-0.07445546672651544,0.06209034454161301
1761476488714621200,10.47562109375,0.0036579379856586454,-0.033967936982866376,0.05785924631049856
1761476488724654300,10.485654296875,-0.025373510709404943,0.001556472194381058,0.07065306050255894
1761476488734687200,10.495687255859375,-0.052775896897912025,0.03860478473696857,0.10599202097714878
1761476488744720400,10.505720458984374,-0.01569675082564354,0.04931826725732535,0.10368391756471246
1761476488754753300,10.515753173828125,0.028571429967880247,0.016554646296612918,0.05421993082691915
1761476488764786400,10.525786376953125,0.03546937278807163,-0.058859746856242415,-0.0011390048341359943
1761476488774818300,10.535818359375,0.022366730108857154,-0.12271507351007312,-0.017734932989208026
1761476488784851200,10.545851318359375,0.03398234910070896,-0.13166428630426524,-0.05133252968918532
1761476488794884400,10.55588427734375,0.055770987060666084,-0.10941288967076689,-0.07367865540143102
1761476488804917200,10.565917236328126,0.07019406468868256,-0.0712846729369834,-0.09255663921223022
1761476488814950400,10.575950439453125,0.08546236096918583,-0.05229927409579977,-0.11204958571675233
1761476488824983300,10.5859833984375,0.07165653845667838,-0.035502361742220816,-0.11521706417119129
1761476488835016400,10.596016357421876,-0.026415128716826438,-0.047115478249732404,-0.10301097760605625
1761476488845049300,10.60604931640625,-0.06779752494096755,-0.024681546389870343,-0.05612083254479803
1761476488855082500,10.61608251953125,0.0015209259569644927,0.0036175877089612185,-0.044668231228087094
1761476488865115400,10.626115478515626,0.025046762973070142,-0.010509630511328577,-0.07555961944297887
1761476488875148300,10.636148193359375,0.00862169787287712,-0.048168841493874785,-0.10102995072351768
1761476488885181400,10.646181396484375,-0.027990415209531782,-0.08298236245540902,-0.07707578702643514
1761476488895214300,10.65621435546875,-0.037947161078453064,-0.06870395399508998,-0.04818279695399105
1761476488905247500,10.66624755859375,0.026335633739829063,-0.0324204700788483,-0.05100585501808673
1761476488915280400,10.6762802734375,0.07073124030530452,-0.00233384977504611,-0.03981160324346274
1761476488925313500,10.6863134765625,0.08761223247945309,0.016414561972487716,-0.043278146842867134
1761476488935345400,10.696345458984375,0.08401333120465278,-0.005131645533721894,-0.08260300774900242
1761476488945378300,10.70637841796875,0.06248188287615776,-0.028810134094581007,-0.0935165976850316
1761476488955411500,10.716411376953126,0.024985388174653053,-0.015842461172956974,-0.07404854815974832
1761476488965444400,10.7264443359375,0.2668254748135805,0.09283981266831978,-0.04976732619907707
1761476488975477500,10.7364775390625,0.01533200916647911,0.16272501233723013,0.000008530366327613592
1761476488985510400,10.746510498046876,-0.2004278797984123,0.020694869640190152,-0.06952792893014847
1761476488995543600,10.75654345703125,-0.05945815114080905,-0.07919849653514102,-0.15065834337593986
1761476489005576400,10.766576416015624,0.0045651159584522245,-0.104451066012308,-0.17288732724823055
1761476489015609600,10.776609619140626,-0.009742810857295989,-0.12252073824806138,-0.18036529844608157
1761476489025642500,10.786642578125,-0.07385901693701744,-0.1090409876184538,-0.18752815754646435
1761476489035675600,10.796675537109374,-0.0711111795336008,-0.04187366860611364,-0.17850242718365042
1761476489045708500,10.80670849609375,-0.04539280090928077,0.00773192769261077,-0.16863673886535688
1761476489055741200,10.8167412109375,0.021680501410365104,-0.00858328382493928,-0.1778534252230078
1761476489065774300,10.8267744140625,0.045725978386402126,-0.04084193267188966,-0.20545812905058264
