time,seconds_elapsed,z,y,x
1761475468209471200,0.06047119140625,-0.3764572313994169,-0.09479403374232351,-0.42149256064053625
1761475468219448300,0.0704482421875,-0.39754327404797074,-0.01885558018274605,-0.400717958561331
1761475468229425200,0.080425048828125,-0.2872135983258486,0.050519496273249385,-0.3200007097600028
1761475468239403300,0.0904033203125,-0.13344050219655035,0.06584726765602826,-0.1941601977057755
1761475468249380400,0.10038037109375,-0.03180149793028831,0.05003339325673878,-0.028592691951617597
1761475468259357200,0.110357177734375,0.09156126236617565,0.0562808362789452,0.05378711976706981
1761475468269335300,0.120335205078125,0.25258359897136684,0.09778539757803081,0.1186583089325577
1761475468279312100,0.13031201171875,0.31079379587769507,0.10411138572916388,0.1713443355899304
1761475468289289200,0.140289306640625,0.3608984277397394,0.0900109641842544,0.16213665452264248
1761475468299267300,0.150267333984375,0.37688977759778497,0.1306188689045608,0.18095025872718543
1761475468309244200,0.160244140625,0.3952046019673347,0.14416910922080278,0.25150727497674524
1761475468319222300,0.17022216796875,0.46113867112398144,0.14261340421140192,0.3713153019336983
1761475468329199400,0.180199462890625,0.4619640160322189,0.13917583097815514,0.4026836326111108
1761475468339176200,0.19017626953125,0.29173253705501556,0.10720957094021141,0.2880582324564457
1761475468349154300,0.200154296875,0.15188742851316928,0.11400814503915607,0.20197503617517648
1761475468359131400,0.21013134765625,0.14648469268679618,0.13295892922468483,0.12480915971249341
1761475468369108200,0.220108154296875,0.22022563620209692,0.07385470608808099,0.157145860498026
1761475468379086300,0.23008642578125,0.27386896358430385,-0.030488588700816034,0.2331230386327952
1761475468389063400,0.2400634765625,0.24187749603986738,-0.1073911380521953,0.18647548842206596
1761475468399040300,0.250040283203125,0.1747615236222744,-0.07634418481625616,0.10527239233255385
1761475468409018400,0.260018310546875,0.04819032267332077,-0.055438247974961996,0.08203209425956011
1761475468418995200,0.2699951171875,-0.11007774678766727,-0.07998371036238967,0.0768001118902117
1761475468428972300,0.27997216796875,-0.1921849521100521,-0.03435432421825826,0.038645883932337165
1761475468438950400,0.289950439453125,-0.20446926414370536,0.00835705558732152,0.06544533579163253
1761475468448927200,0.29992724609375,-0.21376725384294987,0.0029576076965779066,0.07959010793492198
1761475468458904300,0.309904296875,-0.12800503314435482,0.005641001561656594,0.08500899117849767
1761475468468882400,0.31988232421875,-0.021644261053204536,0.014832827472686766,0.09744410985969007
1761475468478859300,0.329859375,-0.03050678194463253,-0.0004747779048979282,0.07355250827111304
1761475468488836400,0.33983642578125,-0.08366320259273052,-0.006860241158306598,0.04306216600462794
1761475468498814500,0.349814453125,-0.07584288423061371,0.009987944724783301,0.052770563135668636
1761475468508791300,0.359791259765625,-0.058927405264973635,0.024454203907400367,0.07816906215585767
1761475468518768400,0.369768310546875,-0.061522097933292386,0.002465148004516959,0.06704312637709081
1761475468528746200,0.379746337890625,-0.149345927336812,0.023931860533729196,0.0007484802797436714
1761475468538723300,0.389723388671875,-0.14041618642807005,0.0526940638333559,-0.07127301903180777
1761475468548700400,0.399700439453125,-0.062223524200916286,0.05091266030929982,-0.06397672454379498
1761475468558678300,0.40967822265625,0.02675999663174152,0.015258359408378601,-0.0009425415471196174
1761475468568655400,0.4196552734375,0.1485848798364401,-0.00977218308225274,0.09189560888707637
1761475468578632400,0.429632568359375,0.21706045016944406,-0.027426351585984228,0.13893420424200595
1761475468588610000,0.439610107421875,0.2624333773344755,-0.05076338803172111,0.13881291594989598
1761475468598587400,0.44958740234375,0.21407529687881469,-0.08157061422765255,0.12059753336682914
1761475468608564200,0.459564208984375,0.008036591461300849,-0.07181238660551607,0.000945610287040472
1761475468618542000,0.4695419921875,-0.20267770455181597,-0.016796894087269903,-0.13988909381404518
1761475468628519400,0.47951953125,-0.2959744124084711,0.030259675315767526,-0.15555369593575596
1761475468638496300,0.489496337890625,-0.2617196761071682,0.04002053328640759,-0.10385916453376412
1761475468648474000,0.49947412109375,-0.15465046348571776,0.026775413396582005,0.008355155891180037
1761475468658451200,0.509451171875,-0.028691256955265997,0.013191855332627891,0.06765139446854591
1761475468668428300,0.51942822265625,0.01430325064063072,-0.02338986261151731,0.07053498708084226
1761475468678406100,0.52940625,0.02064531314373016,-0.03418284010887146,0.05284457821995019
1761475468688383200,0.53938330078125,0.09294482567906379,-0.031000702941417692,0.029206878327205775
1761475468698361000,0.549361083984375,0.16260288379490376,-0.03178944216631353,0.04976743579693138
1761475468708338200,0.559338134765625,0.24783377409577367,-0.04194178367257118,0.11065291632711886
1761475468718315000,0.56931494140625,0.29817630636692044,-0.0532989709239453,0.14735950275994836
1761475468728293000,0.579293212890625,0.35730654072761536,-0.05525470810160041,0.16175211218446492
1761475468738270200,0.589270263671875,0.3716536305099726,-0.04972038178481161,0.17880787640362977
1761475468748247000,0.5992470703125,0.30681144824326034,-0.032376229078322646,0.17202391535192726
1761475468758225200,0.60922509765625,0.0827273830473423,-0.008982347878813744,0.09181326436586677
1761475468768202200,0.6192021484375,-0.09407646005749702,0.06868263721242547,-0.007997939951345324
1761475468778179000,0.629178955078125,-0.1548889484167099,0.09881970906183123,-0.01907280313000083
1761475468788157200,0.6391572265625,-0.14259586855471135,0.06074132281914353,0.02443834875114262
1761475468798134300,0.64913427734375,-0.11329846239984034,0.015472075224295258,0.05576660314649343
1761475468808111000,0.659111083984375,-0.07400047123432159,-0.007217018706724047,0.09067951109558343
1761475468818089200,0.669089111328125,-0.04811608839333057,-0.015817162334918974,0.08967457183673977
1761475468828066300,0.67906640625,-0.0395838223695755,-0.008351648759841918,0.1260337330713868
1761475468838043100,0.689043212890625,-0.02092822173833847,0.015941592432186007,0.13984905406460166
1761475468848021200,0.699021240234375,0.006185410636663437,0.013515972720459103,0.18413133644871413
1761475468857998000,0.708998046875,-0.01128653316795826,-0.018374226406589148,0.14928418721221387
1761475468867975200,0.71897509765625,-0.023891163197159764,-0.017894699261337518,0.10201368279755114
1761475468877953300,0.728953369140625,-0.026574118670821188,-0.014236249819025397,0.07319185826517641
1761475468887930000,0.73893017578125,-0.07810264585614204,-0.03525200371034443,0.018579831981286404
1761475468897907200,0.7489072265625,-0.04663490992486476,-0.0353301104478538,0.012938245897740125
1761475468907884800,0.758884765625,-0.016297639328241346,-0.02963525980710983,0.028448753436282274
1761475468917862000,0.76886181640625,0.007490648016333579,-0.05449292994886636,0.055203416305780406
1761475468927840000,0.778840087890625,0.03626607612371444,-0.05799662722088396,0.04682517179995775
1761475468937816800,0.78881689453125,0.03512392035126686,-0.066613795049116,0.04079027554988861
1761475468947794000,0.7987939453125,0.05916179854273796,-0.046901305776089426,0.030930779510363934
1761475468957772000,0.80877197265625,0.049887189719080925,-0.05219407842196524,-0.0155459441781044
1761475468967748900,0.818748779296875,0.012761281895637511,-0.0383909593231976,-0.0869994343433529
1761475468977726000,0.828725830078125,-0.0049719431936740876,-0.002013750975206494,-0.1159093755505979
1761475468987703800,0.838703857421875,-0.018297288712859152,0.01775397561639547,-0.10748400396741926
1761475468997681000,0.848680908203125,0.022701661151647567,0.0358613677803427,-0.05005428991429507
1761475469007658000,0.858657958984375,0.0690589231789112,0.057127150909975166,0.010161766921728849
1761475469017635800,0.8686357421875,0.06852642373740672,0.03497311370372772,0.010728899285197257
1761475469027613000,0.878613037109375,0.051555415192246434,0.042847061949223275,-0.022033041175082323
1761475469037590000,0.888590087890625,0.022930209210515022,0.05465900723077356,-0.07817176556959748
1761475469047568000,0.89856787109375,-0.00021627309918403624,0.07403218154683709,-0.07653736930079758
1761475469057545000,0.908544921875,0.0211707983225584,0.08932027850635349,-0.05709456381462514
1761475469067521800,0.918521728515625,0.05491992318928241,0.07397365629263222,0.005419321634992957
1761475469077500000,0.9285,0.07605448115468025,0.06141344992704689,0.054338908430933947
1761475469087477000,0.93847705078125,0.07768821983635425,0.03651581310108304,0.06679543522633612
1761475469097453800,0.948453857421875,0.004956745624542236,0.013802242315933107,0.03438355031274259
1761475469107432000,0.958431884765625,-0.0825964501440525,0.017585633312165738,0.005197933969274163
1761475469117409000,0.968408935546875,-0.11120528951287269,0.029103856344148516,-0.02146437444165349
1761475469127385900,0.9783857421875,-0.07764145808517932,0.029433307494223116,0.033947570048272604
1761475469137364000,0.988364013671875,-0.031247371178865432,0.0040869039874523875,0.0618293372515589
1761475469147341000,0.998341064453125,0.0005757540613412857,-0.01027194929793477,0.08092880919277667
1761475469157319000,1.00831884765625,0.017581833919882772,-0.02250752681903541,0.07415595405697822
1761475469167296000,1.0182958984375,0.0034328970581293103,-0.015946780063956976,0.06984481285959482
1761475469177272800,1.02827294921875,-0.030502690291404722,-0.00549867048151791,0.0601409457731992
1761475469187251000,1.0382509765625,-0.09493336914777756,0.023948592472821474,0.0456865962240845
1761475469197228000,1.04822802734375,-0.10399112035036086,0.06346103010661899,-0.004443754601106047
1761475469207204900,1.058204833984375,-0.10839257017970085,0.07607866574786604,-0.02423325463309884
1761475469217183000,1.068182861328125,-0.019830489629507064,0.08827683386802673,0.0026726532753556967
1761475469227160000,1.07816015625,0.05408347236514091,0.08591675367318093,0.03114800245761871
1761475469237137000,1.088136962890625,0.11165478684604167,0.0662747723530978,0.07166888648159801
1761475469247115000,1.098114990234375,0.09177578189969063,0.04710267356708646,0.137188894944638
1761475469257092000,1.108092041015625,0.05881050088703632,0.08389072773829102,0.14850509259849787
1761475469267069000,1.11806884765625,0.023320085310935972,0.12533954026214777,0.12574147212654352
1761475469277047000,1.128047119140625,-0.04244797962903976,0.1029234180536121,0.1298269878745079
1761475469287024000,1.138024169921875,-0.054121466287970536,0.09294511794000863,0.11285422576367854
1761475469297001000,1.1480009765625,0.032223522734642025,0.11064151815026999,0.07910203215703368
1761475469306978800,1.157978759765625,0.08226502623260021,0.0942957288313657,0.10218107525371015
1761475469316956000,1.167955810546875,0.08375321896374226,0.05432992140688002,0.09636237903758883
1761475469326933000,1.17793310546875,0.07848258508443832,0.07724171817786991,0.09229089181497692
1761475469336910800,1.187910888671875,0.059386839470267294,0.07027224449142813,0.10059102958329022
1761475469346888000,1.197887939453125,0.05370996287763118,0.031764088529348374,0.15500760636031627
1761475469356865000,1.207864990234375,0.02376549099087715,0.0018270692966878414,0.13565744759365916
1761475469366843000,1.2178427734375,-0.0333007965773344,-0.01377666948325932,0.054682241975888606
1761475469376820000,1.227820068359375,-0.06123217507600784,-0.011604147749766707,-0.019330796479061246
1761475469386797000,1.237797119140625,-0.0811935976088047,-0.024942060489580035,-0.016965090261027216
1761475469396775000,1.24777490234375,-0.11595043821334838,-0.015430428039655088,0.0058694034900516265
1761475469406751700,1.257751708984375,-0.10203823271691799,-0.014927008562162518,0.014755597518011927
1761475469416729900,1.267729736328125,-0.06281389130949974,-0.021717618550360203,0.027584903148561716
1761475469426706700,1.277706787109375,-0.03242868991792202,-0.06507036499939858,0.033708500595390795
1761475469436683800,1.287683837890625,-0.005314473021030426,-0.1079999906655401,0.019232523736357688
1761475469446662000,1.297661865234375,-0.002377250525355339,-0.11470277623981237,-0.021720614225044847
1761475469456638700,1.307638671875,-0.04941664959788322,-0.08835384462699293,-0.048959480414912104
1761475469466615800,1.31761572265625,-0.08029811007380486,-0.053236792407929896,-0.06799962338432669
1761475469476594000,1.327593994140625,-0.06256254689693451,-0.028059681053459642,-0.05120448286272585
1761475469486570800,1.33757080078125,-0.004405541482567787,-0.030067002287879584,-0.009857888604328036
1761475469496547800,1.3475478515625,0.029215573090314865,-0.01096088141016662,0.02842339979931712
1761475469506526000,1.35752587890625,0.05792085857093334,-0.016420754251256584,0.05370053746215999
1761475469516502800,1.367502685546875,0.04641279160678386,-0.030531916385889053,0.026224282319843768
1761475469526480000,1.37747998046875,-0.0046200610160827636,-0.016666911032050848,-0.02826550582386553
1761475469536458000,1.3874580078125,-0.03351063993573188,0.014477292033284902,-0.012456380664929746
1761475469546434800,1.397434814453125,-0.04690495903789997,0.06660341978557408,0.006469926666468381
1761475469556412000,1.407411865234375,-0.056311085286736486,0.10286240858137607,0.04488587430045008
1761475469566389800,1.4173896484375,-0.0302946004986763,0.10744469487033784,0.07091236902587116
1761475469576366800,1.427366943359375,-0.0013344634741544723,0.10544453402906656,0.08401844577118754
1761475469586344000,1.437343994140625,0.03539572302997112,0.1044443440105766,0.04997947111241519
1761475469596321800,1.44732177734375,0.045185880160331725,0.0664510057028383,0.0293872763954103
1761475469606299000,1.457298828125,0.04247779024541378,0.0284401317384094,-0.006991539387777447
1761475469616276000,1.46727587890625,0.06688859340250491,0.027077245887368914,-0.014375219898298382
1761475469626253800,1.47725390625,0.12800327957868576,0.03517857314795256,-0.0018058803781867026
1761475469636231000,1.48723095703125,0.14935761777460574,0.00957863327153027,0.07272752868905663
1761475469646207700,1.497207763671875,0.13743570931255816,0.021446473458781836,0.09447554237768054
1761475469656185900,1.507185791015625,0.13520575830340384,0.06287007847614585,0.10774112053364515
1761475469666163000,1.517162841796875,0.14176175581812858,0.054391515401005744,0.09156491562798619
1761475469676141000,1.52714111328125,0.17663550080060958,0.018258564137667417,0.09992335945479572
1761475469686118000,1.537117919921875,0.22315409086942672,-0.010365180539339781,0.08125694516859948
1761475469696095000,1.547094970703125,0.2361082649886608,-0.034649215511605144,0.06180887898541987
1761475469706072800,1.55707275390625,0.2274772147655487,-0.05604951174110174,0.03992803269736469
1761475469716050000,1.5670498046875,0.18624387162327766,-0.0552620876904577,0.055782531367987394
1761475469726027000,1.577027099609375,0.13073942654430865,-0.025070216913893818,0.10883951022960245
1761475469736004900,1.5870048828125,0.10399462748169898,-0.009312091289833187,0.14757957525141535
1761475469745982000,1.59698193359375,0.06603986761868,0.009959230086952446,0.17694405529312787
1761475469755958800,1.606958740234375,0.008690671455860137,0.011523556794226168,0.1448375100016594
1761475469765937000,1.61693701171875,-0.07381050162017345,0.005668766351416707,0.0897409150712192
1761475469775914000,1.6269140625,-0.1823731676697731,0.019362579856812952,0.029287323152273892
1761475469785890800,1.636890869140625,-0.2726975817173719,0.05178593601249158,0.014615458394959568
1761475469795869000,1.646868896484375,-0.3344593336254358,0.08859167197085917,0.04210165040940046
1761475469805846000,1.656845947265625,-0.3874515036225319,0.12980799091309309,0.05676365135982632
1761475469815822800,1.66682275390625,-0.39454701484143734,0.12949402959309517,0.061162836166843766
1761475469825801000,1.676801025390625,-0.3215980984866619,0.08122318902947008,0.04540178793333471
1761475469835778000,1.686778076171875,-0.22945874397158622,0.040741029580682514,0.03193973735719919
1761475469845755000,1.6967548828125,-0.14175766416490077,-0.017153963896632193,-0.00106616792678833
1761475469855733000,1.70673291015625,-0.055444823846220966,-0.02659976456873119,0.026148805930837987
1761475469865710000,1.7167099609375,0.006396423038840294,-0.016643895482644437,0.07288987964391708
1761475469875687000,1.72668701171875,0.049613633474707604,0.007940364545211196,0.14149974388107656
1761475469885665000,1.7366650390625,0.08161737597882747,0.04419175455644726,0.18176862590536474
1761475469895641900,1.746641845703125,0.08827098864912986,0.04652567739672959,0.16773483985587953
1761475469905618400,1.756618408203125,0.08537059103250504,0.019048326275870203,0.14154504432752726
1761475469915596500,1.766596435546875,0.12665186496973038,-0.0005996463935822248,0.07470474704615772
1761475469925573400,1.776573486328125,0.09927461322247981,-0.03755407010763883,0.01994286396279931
1761475469935550500,1.786550537109375,0.042783495193719864,-0.03755100136771798,-0.014066592340543865
1761475469945528300,1.7965283203125,-0.0024140754044055935,0.01639978452846408,-0.03329370924942195
1761475469955505400,1.80650537109375,-0.037104280513525004,0.06673135701417923,-0.010167539075389503
1761475469965483500,1.8164833984375,-0.01742342848777771,0.09650836337953805,0.061450347871333355
1761475469975460400,1.82646044921875,0.06600771891474723,0.08948898613676429,0.11470138800032437
1761475469985437400,1.8364375,0.1178670854896307,0.039014936440438026,0.10445523073077201
1761475469995415600,1.84641552734375,0.14483458739221095,0.023298165740072724,0.046455461704730985
1761475470005392400,1.856392333984375,0.09991700277924537,-0.002912818706780672,-0.030892785587534305
1761475470015369500,1.866369384765625,0.0419628264605999,-0.025738690759986638,-0.08198043713755905
1761475470025347600,1.87634765625,0.00002864157259464264,0.005701864903420209,-0.09803257727213203
1761475470035324400,1.886324462890625,-0.02254851641654968,0.00887640328630805,-0.048842795232683416
1761475470045301500,1.896301513671875,0.04177928658723831,0.011373115472868085,-0.001954056677222252
1761475470055279400,1.906279296875,0.1403670865893364,-0.03485153315067291,0.016850231709703803
1761475470065256400,1.91625634765625,0.19584405913949013,-0.06692403004206716,-0.029759836034849284
1761475470075233500,1.926233642578125,0.19854338122606277,-0.11275682980380952,-0.08875270775146782
1761475470085211400,1.93621142578125,0.1897498339176178,-0.13665478806793688,-0.10637158574610948
1761475470095188500,1.9461884765625,0.15736439861953258,-0.14117153484001754,-0.06450286730974912
1761475470105165600,1.95616552734375,0.13387246387302876,-0.11686711466684936,-0.022378274416178463
1761475470115143400,1.966143310546875,0.06706979518830776,-0.06616992373913526,0.0187424751970917
1761475470125120500,1.97612060546875,-0.03866495395898819,-0.027584172496199606,0.0407908600717783
1761475470135097300,1.986097412109375,-0.12100304542779922,0.0052700493574142455,0.009021218584477901
1761475470145075200,1.9960751953125,-0.1483434722959995,0.0069015230167657135,-0.02866393055692315
1761475470155052500,2.006052490234375,-0.13199907121658325,0.007874971158802509,0.0038297143559902903
1761475470165029400,2.016029296875,-0.11362579465806484,-0.014730463076755403,0.019737915975227952
1761475470175007200,2.02600732421875,-0.09090192167460918,-0.036084874337911604,0.044835532352700824
1761475470184984300,2.035984375,-0.06349895096421242,0.0029191753823310136,0.07330525551177561
1761475470194962200,2.045962158203125,-0.08551146080791949,0.006551759731024503,0.0856728619147092
1761475470204939300,2.055939208984375,-0.08297346676290035,0.02273570955172181,0.11290529836378992
1761475470214916400,2.065916259765625,-0.04724982695281505,0.022897622115164995,0.1094946862027049
1761475470224894200,2.075894287109375,-0.049960254955291744,0.020020678439363837,0.14017967425845562
1761475470234871300,2.085871337890625,-0.048832712230086325,-0.001507555018737912,0.12651019147671758
1761475470244848000,2.09584814453125,-0.09848784675896168,0.018641791301593182,0.07913286568671464
1761475470254826200,2.105826171875,-0.1205377660036087,0.043786607821658254,0.052058250147849316
1761475470264803300,2.11580322265625,-0.13390753518640994,0.06023914545066655,0.035598771321401
1761475470274780200,2.1257802734375,-0.10204933863282203,0.05560001440793275,0.02443929859921336
1761475470284758300,2.13575830078125,-0.03271744373142719,0.062189914192259305,0.02627133633196354
1761475470294735400,2.1457353515625,0.056821372896432874,0.043309126503020524,0.04252718234509229
1761475470304712200,2.155712158203125,0.1611006625384092,0.036152605811879034,0.05278313035629689
1761475470314690300,2.165690185546875,0.21235621800124643,0.04035268785022199,0.1068753705497831
1761475470324667400,2.17566748046875,0.19402035084366798,0.050634135628864166,0.1511497618883848
1761475470334644200,2.185644287109375,0.13839490973353386,0.07195595979467034,0.14115662953183053
1761475470344622300,2.195622314453125,0.09428571889400482,0.08728037017658352,0.12256459565609693
1761475470354599400,2.205599365234375,0.06723638392686844,0.09020663288682698,0.0989234616972506
1761475470364576300,2.215576171875,0.040265374892950054,0.059771820199862116,0.05437989802844822
1761475470374554400,2.225554443359375,0.02891863597035408,0.020070289734750984,0.01221869945153594
1761475470384531200,2.23553125,0.045240240696072576,0.004873232059553265,-0.028091975887864825
1761475470394508300,2.24550830078125,0.02792202614843845,-0.0019015958376228808,-0.0017369067952036858
1761475470404486400,2.255486328125,0.0020657003581523894,0.016361717540398238,0.033124417097121474
1761475470414463200,2.265463134765625,-0.028372108003497123,0.03975362597852945,0.09392134256102144
1761475470424440300,2.2754404296875,-0.06149930157959461,0.05486234778314829,0.09467354916781187
1761475470434418400,2.28541845703125,-0.08099193755686282,0.0641004239886999,0.09887428879328071
1761475470444395300,2.295395263671875,-0.08927753534317016,0.06695566728934645,0.05363755522854626
1761475470454373400,2.305373291015625,-0.05310147559046745,0.043050913958251474,0.008825476816669106
1761475470464350500,2.3153505859375,-0.055251931622624394,0.02889401298575103,-0.023466069652885196
1761475470474327300,2.325327392578125,-0.05364508094787598,0.018600144116953016,-0.03550648992806673
1761475470484305400,2.335305419921875,-0.07487257789373397,0.03153649031855166,-0.027932255281507966
1761475470494282500,2.345282470703125,-0.0815460643082857,0.045370808273181316,-0.019645342320948837
1761475470504259300,2.35525927734375,-0.05475274992883205,0.023246947009488938,-0.022271891432255504
1761475470514237400,2.365237548828125,-0.0015653496205806732,0.014490297645330429,-0.026458383336663244
1761475470524214300,2.37521435546875,0.040844051563739776,-0.016107377453148365,-0.02427519407868385
1761475470534191400,2.38519140625,0.06353519132137299,-0.01510126915052533,-0.009972162633761763
1761475470544169500,2.39516943359375,0.007085574346780777,-0.001957271547615528,-0.007124664248153567
1761475470554146300,2.405146240234375,-0.014655132818222045,0.023769436513632534,-0.02117613208480179
1761475470564123400,2.415123291015625,-0.022065701335668562,0.03510404660701751,-0.028153058425337076
1761475470574101500,2.4251015625,-0.010747603985667228,0.037781449122726914,-0.02635243874415755
1761475470584078300,2.435078369140625,0.04544774596691131,0.01603321623839438,-0.0056140404894948
1761475470594055400,2.445055419921875,0.0860036282390356,-0.016461889979243277,-0.003742182203009724
1761475470604033500,2.455033447265625,0.10869242990911006,-0.014148425405099987,-0.01836355888210237
1761475470614010400,2.46501025390625,0.08412906653881072,-0.006262129134684801,0.00375774509832263
1761475470623987500,2.474987548828125,0.06415536904633044,0.010331716661155224,0.010448767169564962
1761475470633965300,2.48496533203125,0.0971364321500063,0.007247267714515328,0.04661671668104827
1761475470643942400,2.4949423828125,0.1123071132749319,-0.005912731175124645,0.047684272847324606
1761475470653919500,2.50491943359375,0.12829027982652186,-0.011740779741480946,0.08757979151457547
1761475470663897300,2.5148974609375,0.11760288159549236,-0.02432721652686596,0.061361354413628576
1761475470673874400,2.52487451171875,0.0808925688356161,-0.021560089901089666,0.054222150183469056
1761475470683852500,2.5348525390625,0.04725333408415317,0.012646204148605466,0.0765773359850049
1761475470693829400,2.544829345703125,0.03904723127484321,0.026290625554323196,0.099721407141909
1761475470703806500,2.554806396484375,0.04881283848583698,0.0016047317828983068,0.134604504474625
1761475470713784600,2.56478466796875,0.04279109397828579,0.003495367835089564,0.13551372827403246
1761475470723761400,2.574761474609375,0.03213058375418186,-0.010530892495065928,0.10692578556276858
1761475470733738500,2.584738525390625,0.003933832317590713,-0.018000570788607,0.08411978725381195
1761475470743716400,2.59471630859375,-0.029239538487792014,0.006611746289953589,0.07020597432218492
1761475470753693400,2.604693359375,-0.08922142124176025,-0.01242920039705932,0.07479089095965027
1761475470763670500,2.61467041015625,-0.1044207439392805,-0.0006632862143218517,0.07340725458152592
1761475470773648400,2.6246484375,-0.14220423888862133,0.04104658839851617,0.08339527237154543
1761475470783625500,2.63462548828125,-0.15075988578796387,0.04778736789561808,0.12184519534036517
1761475470793602600,2.6446025390625,-0.13216449091136453,0.03900244228504598,0.13931494718790052
1761475470803580200,2.654580078125,-0.13763795388638972,0.053112800702080125,0.08970219049602747
1761475470813557500,2.6645576171875,-0.12979016299545765,0.06928652138970792,0.06281944426745176
1761475470823534300,2.674534423828125,-0.09974281525611876,0.044975233084335924,0.01403144796192646
1761475470833512200,2.68451220703125,-0.07948036395013332,0.017556553348153828,0.019165084523335096
1761475470843489500,2.694489501953125,-0.00709025052189827,0.014251008996739983,0.024548019670695066
1761475470853466400,2.70446630859375,0.09302022900283335,0.008333674711734056,0.04385382783897221
1761475470863444200,2.7144443359375,0.12247077989280224,-0.024962811016663908,0.0786141025096178
1761475470873421300,2.72442138671875,0.13583470385670662,-0.03886179170534015,0.04996361595615744
1761475470883398400,2.7343984375,0.09527999062836169,-0.03507598955631256,0.01063143026009202
1761475470893376300,2.744376220703125,0.058521747073531145,-0.023126608565449715,0.0019699848987162114
1761475470903353300,2.754353271484375,0.003319499811530113,-0.0013823942691087723,0.00041289164982736106
1761475470913332000,2.76433203125,-0.01827916853427887,0.0041312545858323575,-0.026995705083757638
1761475470923309000,2.77430908203125,0.004473346021771431,-0.007409764799848198,-0.027945333958789703
1761475470933286000,2.784285888671875,0.04139584022760391,-0.007393252056464552,-0.02969393119178712
1761475470943264000,2.794263916015625,0.07146481527686119,-0.0034266134478151797,0.0013441811505705116
1761475470953241000,2.804240966796875,0.10748714577257633,-0.016332929837331176,0.02806377270668745
1761475470963218000,2.814218017578125,0.08491583300232887,-0.0253252876535058,0.05881400801837444
1761475470973196000,2.824196044921875,0.04592413130700588,0.0017702976081520319,0.05882708669565618
1761475470983172900,2.8341728515625,-0.0018839140504598615,0.03666771572716534,0.04598557917065918
1761475470993150000,2.84414990234375,-0.02189677450954914,0.06136193893551826,0.031684009030461306
1761475471003128000,2.854128173828125,-0.021841244930028914,0.04036868913695216,0.013559592666476964
1761475471013105000,2.86410498046875,-0.035168344014883036,0.0057733227044343945,0.0036244741074740886
1761475471023082000,2.87408203125,-0.02724164266884327,0.004787380407005548,0.017813012327253817
1761475471033060000,2.88406005859375,-0.023749124377965926,0.005250467874109745,0.015640636724233627
1761475471043037000,2.894036865234375,-0.0548158782929182,0.004681728075444698,0.05419928076453507
1761475471053014000,2.904013916015625,-0.05435878217518329,0.01125825692154467,0.08167911610342561
1761475471062992100,2.9139921875,-0.05521043056845665,0.029659663596004245,0.08099193755686282
1761475471072969000,2.923968994140625,-0.03620996202230453,0.01965425627976656,0.07413980663977562
1761475471082946000,2.933946044921875,-0.030651158851385116,-0.0006054185472428798,0.040692587329074735
1761475471092924000,2.943923828125,-0.0041799160331487655,0.007383095988631248,0.02702346987351775
1761475471102901000,2.95390087890625,-0.00869885476231575,-0.004051686543598771,0.014962883593142032
1761475471112878000,2.963878173828125,-0.047777650219202036,-0.00211458100117743,0.04543225613683462
1761475471122856000,2.97385595703125,-0.07957388745248317,0.023910890810936686,0.0640139878142625
1761475471132833000,2.9838330078125,-0.07281798345148563,0.0245111217264086,0.04609722285158932
1761475471142811100,2.99381103515625,-0.06497077708244324,0.005747603741288185,0.03127462451197207
1761475471152788000,3.0037880859375,-0.014039046746492385,-0.0025689006399363277,0.008036591461300849
1761475471162765000,3.01376513671875,0.040216859576106066,-0.0004338613726198673,0.0024178747966885567
1761475471172743200,3.0237431640625,0.05118482831418514,-0.022666516773030162,0.01369512867964804
1761475471182720000,3.033719970703125,0.0224345346480608,-0.024131840085238217,0.02765036960020661
1761475471192697000,3.043697021484375,0.006116437053680419,-0.0033165041368454695,0.010468421718105672
1761475471202675200,3.05367529296875,-0.028888825353980064,0.014482114338874816,0.008392565292119979
1761475471212652000,3.063652099609375,-0.05806991165280342,0.034999051862582564,0.03189399851933122
1761475471222629000,3.073629150390625,-0.04363222097754478,0.04526427915878593,0.053363560592755675
1761475471232607000,3.08360693359375,0.005933481702208519,0.03928330505304038,0.061321460794657466
1761475471242584000,3.093583984375,0.04363689715266227,0.0204808432970196,0.042627500914409755
1761475471252561200,3.10356103515625,0.09485504321455955,0.01547580155134201,0.03939524099491536
1761475471262539000,3.1135390625,0.11945347789824008,0.006473433797806501,0.04933401281572878
1761475471272516000,3.12351611328125,0.16154314560890196,-0.00391848861798644,0.06184738436490297
1761475471282493000,3.133492919921875,0.17082418417334555,-0.023295608456805346,0.04677563356980681
1761475471292471000,3.143470947265625,0.12903729880154133,-0.020309359187632797,0.06972564345933496
1761475471302448000,3.1534482421875,0.07044950075447559,-0.006871420139446854,0.03231909206360578
1761475471312426000,3.163426025390625,-0.012565467062592506,0.014624591549485921,0.015471198441460728
1761475471322403000,3.173403076171875,-0.062305941787362096,0.042625747348740695,-0.011479425391554832
1761475471332380200,3.183380126953125,-0.07073533195853234,0.06644267626591026,0.0030715163998305795
1761475471342357800,3.193357666015625,-0.058198506468534465,0.05084222542159259,0.03189721338972449
1761475471352335000,3.203335205078125,-0.008686579802632332,0.050773617164790626,0.0349965676445514
1761475471362312200,3.213312255859375,-0.010638882914185523,0.03543086740858853,0.024462021887674927
1761475471372289800,3.223289794921875,-0.027518706044554708,0.032823607519641515,0.06356449048109353
1761475471382267000,3.233266845703125,-0.040407998234033585,0.05592478938288986,0.031723610388487575
1761475471392244200,3.243244140625,-0.024078210201859473,0.037200872755795714,0.010919234225526452
1761475471402221800,3.253221923828125,0.037352702316641805,0.03770297705903649,0.017828794418275354
1761475471412199000,3.263198974609375,0.05172784914970398,0.012890899624675512,0.010830752224475144
1761475471422176000,3.273176025390625,0.05262333668470382,0.014348697217553854,0.029798999001458285
1761475471432153900,3.28315380859375,0.07278349665999412,0.04495528627485037,0.056464741478487845
1761475471442131000,3.293130859375,0.06781213798820972,0.03371777988038957,0.0780260734885931
1761475471452108000,3.30310791015625,0.09122983845472335,0.01624474009722471,0.09048932228572666
1761475471462086000,3.3130859375,0.12998539330661296,-0.026546061620116232,0.08044752848185599
1761475471472063000,3.32306298828125,0.13309972593486308,-0.03986103187575936,0.061336000776663416
1761475471482039800,3.333039794921875,0.098076927870512,-0.05092895385697484,0.07697912171892822
1761475471492018000,3.343017822265625,0.040135026511549945,-0.04559796809256077,0.08556165662519634
1761475471501995000,3.3529951171875,-0.009136077135801314,-0.006061930387467145,0.0884562090229243
1761475471511972900,3.362972900390625,-0.0087619831264019,0.018249504048377274,0.08222169854752719
1761475471521950000,3.372949951171875,-0.01643383292853832,0.010881313367933035,0.07146313477642834
1761475471531927000,3.382927001953125,-0.03041442748606205,-0.0011037965234369038,0.07547383172251283
1761475471541905000,3.39290478515625,-0.07299684714972972,0.003611833821609616,0.08893800119049847
1761475471551882000,3.402882080078125,-0.06537234362065791,0.009716653502732514,0.06476371020302175
1761475471561858800,3.41285888671875,-0.08804477867782115,-0.0022146803747862577,0.010285539431869982
1761475471571837000,3.4228369140625,-0.0890928264260292,-0.028301161659136414,0.011406579351052642
1761475471581814000,3.43281396484375,-0.04898001174628734,-0.02297638643980026,-0.0012572335194796322
1761475471591790800,3.442790771484375,-0.01715980911552906,-0.02391008709333837,0.03418737015351653
1761475471601769000,3.45276904296875,0.0059796589314937585,0.007811842794716358,0.07931428666822612
1761475471611746000,3.46274609375,0.023583120161294935,-0.008607304021343588,0.09684767833650111
1761475471621723000,3.472722900390625,0.02484159578979015,0.00003302548676729202,0.10077581156566738
1761475471631701000,3.482700927734375,0.016289456021785734,0.02497472065016627,0.05860007300674915
1761475471641678000,3.492677978515625,-0.004556348130106926,0.01453925135359168,0.0024979542955756184
1761475471651655000,3.502655029296875,-0.05419043987095356,0.024838600115105507,-0.008768851258605718
1761475471661633000,3.512633056640625,-0.06832885533869267,0.045203927273675795,-0.04015738447383046
1761475471671609900,3.52260986328125,-0.07369184367656707,0.045011911832913754,-0.04419263133928179
1761475471681587000,3.5325869140625,-0.06982698494195938,0.049257878839597105,-0.029485476072877645
1761475471691565000,3.54256494140625,-0.012067454412579537,0.04429368056096136,-0.006319558410346508
1761475471701542000,3.5525419921875,0.022359131324291227,0.025928587308898566,0.043528322211652995
1761475471711520000,3.56252001953125,0.05582593211829662,0.03800517487600445,0.06825681301578879
1761475471721497000,3.5724970703125,0.07200549802482127,0.06462766273319721,0.09213782014511525
1761475471731474000,3.582473876953125,0.08523089030086993,0.05983524082489311,0.10122019433230162
1761475471741452000,3.5924521484375,0.06279635565280914,0.06839359113797545,0.0638856852594763
1761475471751429000,3.60242919921875,0.07516893049180508,0.07962050307318567,0.032816520191729065
1761475471761406000,3.612406005859375,0.09791676887273788,0.05696070830188691,0.02112630159370601
1761475471771384000,3.622384033203125,0.1420709678977728,0.03840520704425871,0.05933299039117992
1761475471781361200,3.632361083984375,0.16611936748325823,0.02779313907176256,0.10317571231424807
1761475471791338000,3.642337890625,0.14320961653888226,0.02859115758165717,0.1155819702271372
1761475471801316000,3.652316162109375,0.10131576366126537,0.026374066054075954,0.09533939266540109
1761475471811293000,3.66229296875,0.053848494565486904,0.01622588926628232,0.06768105895444751
1761475471821270000,3.67227001953125,0.03714928869903088,0.003492883617058396,0.0583776624277234
1761475471831248100,3.682248046875,-0.011172551399469375,0.020138021208718417,0.07225698856785893
1761475471841225000,3.692224853515625,-0.02896832033097744,0.03970445307455957,0.07867993428744376
1761475471851202000,3.7022021484375,-0.04951134214401245,0.058016208704188464,0.05707688202746212
1761475471861180200,3.71218017578125,-0.08948153348267078,0.022765154841914773,0.036841537924110886
1761475471871157000,3.722156982421875,-0.10884440560042857,0.02155402548648417,0.016222528265416623
1761475471881134000,3.732134033203125,-0.11865268290936946,0.02896123300306499,0.0052421384371817105
1761475471891112200,3.7421123046875,-0.1487578983157873,0.031687296966090794,0.023498729813471435
1761475471901089000,3.752089111328125,-0.1567711089015007,0.0257991887755692,0.049075873336195945
1761475471911065300,3.7620654296875,-0.15137830994725227,0.031321459328383205,0.044551820040494204
1761475471921043500,3.77204345703125,-0.11110825887918471,0.037877456843107934,0.036311230439692734
1761475471931020300,3.782020263671875,-0.04974515089988708,0.006770517048239708,0.015742854989692568
1761475471940998400,3.791998291015625,0.0043944355666637415,-0.030781288037076592,0.007360884156823158
1761475471950975500,3.8019755859375,0.03817454009354114,-0.039259558851271865,-0.014676394801959395
1761475471960952300,3.811952392578125,0.04318389268815517,-0.05224507795684039,-0.008127849941328168
1761475471970930400,3.821930419921875,0.028669045123457908,-0.029302009264752266,0.026194763964414596
1761475471980907500,3.831907470703125,0.029379823741316792,-0.025560923040285705,0.03381356840506196
1761475471990884400,3.84188427734375,0.03332476197481155,-0.011186141533404588,0.02363521567471325
1761475472000862500,3.851862548828125,0.040599136891961096,-0.02671177357584238,0.0016598960362374782
1761475472010839600,3.861839599609375,0.05189326884448528,-0.05265592378005385,-0.014800897964462637
1761475472020816400,3.87181640625,0.06355272697806358,-0.05298990497477352,-0.03000277794525027
1761475472030794500,3.88179443359375,0.03690671211481094,-0.026402488430961966,0.0011934475682675839
1761475472040771600,3.891771484375,0.0054845688909292215,0.01752725418843329,0.04013254229351878
1761475472050748400,3.90174853515625,-0.005730652606487274,0.04689940607994795,0.027622824006155133
1761475472060726500,3.9117265625,0.014236030623316765,0.04888334643878042,0.03164579591192305
1761475472070703400,3.921703369140625,0.05673661722242832,0.07268668522201478,0.012136501060798763
1761475472080680400,3.931680419921875,0.10946867497861384,0.05578918030448258,-0.018954364382103083
1761475472090658300,3.941658203125,0.12221768191456794,0.004053147848322987,-0.03668715107999742
1761475472100635400,3.951635498046875,0.1401525670558214,-0.013587503586709498,-0.0384584716014564
1761475472110613200,3.96161328125,0.15835048704743385,0.010513649099320172,-0.012022811553254723
1761475472120590300,3.97159033203125,0.17164193029701708,0.015668693774938583,0.04709938563145697
1761475472130567400,3.9815673828125,0.15298632966578005,0.03396554409638047,0.08209770684167743
1761475472140545300,3.991545166015625,0.10711129819750785,0.03602876023650169,0.07318542852438986
1761475472150522400,4.0015224609375,0.05016483761668205,0.032925825785100456,0.06760572869591415
1761475472160499500,4.01149951171875,-0.047619244787096976,0.0409461967639625,0.04020020070225
1761475472170477300,4.021477294921875,-0.11894962002933025,0.05364150075130164,0.028190321695804595
1761475472180454100,4.0314541015625,-0.16758944003582,0.08234569025337696,0.025443653336167334
1761475472190431200,4.04143115234375,-0.17971826924681664,0.09003368747271596,0.03754062610417604
1761475472200409300,4.051409423828125,-0.14695990898311137,0.07086604566611349,0.09763649062663317
1761475472210386200,4.06138623046875,-0.1482832665413618,0.052095513418316836,0.1308274701539427
1761475472220363300,4.07136328125,-0.13768062398433684,0.05143997211903333,0.1551598012473434
1761475472230341400,4.08134130859375,-0.11790624845623969,0.015329598013684153,0.15573387480825185
1761475472240318200,4.091318115234375,-0.10544073463678359,0.018729031193628905,0.12855426452495156
1761475472250295300,4.10129541015625,-0.08231471059322357,0.0055363721434026954,0.09813793734274805
1761475472260273400,4.1112734375,-0.05835691190063953,0.003615633213892579,0.05045088801644742
1761475472270250200,4.121250244140625,-0.010546528455615043,0.0005560264475643634,0.058813350431248544
1761475472280228400,4.131228271484375,0.04854454293847084,-0.009239975901693105,0.09076711631380022
1761475472290205400,4.141205322265625,0.06550444556772708,-0.015671543319150806,0.11627988936342298
1761475472300182300,4.151182373046875,0.06789455557465553,-0.006915332346409559,0.12162643802314996
1761475472310160400,4.161160400390625,0.0924082345843315,-0.0022916180685162543,0.06878339417316019
1761475472320137200,4.17113720703125,0.06930559141635895,-0.022504238883405924,0.04536715501137078
1761475472330114300,4.1811142578125,0.07948854725658894,-0.03718333709910512,0.03817607446350157
1761475472340092400,4.191092529296875,0.07792728928923606,-0.02854848748371005,0.014998612493649125
1761475472350069200,4.2010693359375,0.04660568383038044,-0.050695875753462315,-0.004456175691261887
1761475472360046300,4.21104638671875,0.019774375528097153,-0.03324029856175184,0.007935834500566124
1761475472370024400,4.2210244140625,0.010758125379681587,0.004839841246604919,0.016070552574098108
1761475472380001300,4.231001220703125,0.00916062705516815,0.016577406117692588,0.017271379731222985
1761475472389978400,4.240978271484375,-0.013932663762569427,0.022149287965893744,-0.007176248304918408
1761475472399956500,4.25095654296875,-0.01869943977296352,0.034825302730873225,-0.046285292769595976
1761475472409933300,4.260933349609375,-0.030028058516979216,0.0456542283244431,-0.04203428426161408
1761475472419910400,4.270910400390625,-0.023915128594636917,0.05657032074481248,0.006947554115578532
1761475472429888300,4.28088818359375,-0.016454291194677353,0.06198255505189299,0.03734166946597397
1761475472439865300,4.290865234375,-0.04092822271585464,0.06472988099865615,0.04773315349034965
1761475472449842400,4.300842529296875,-0.04190145166218281,0.06272986628785729,0.03271488644815981
1761475472459820300,4.3108203125,-0.01469371126294136,0.04620828201062977,0.011928922724723815
1761475472469797400,4.32079736328125,0.06156535255312919,0.03775171157158911,0.022552169678360223
1761475472479775500,4.330775390625,0.12844751621484757,-0.005946779575198889,0.032454262750595805
1761475472489752300,4.34075244140625,0.08465046006441115,0.016764160861447452,0.05562069186978042
1761475472499729400,4.3507294921875,0.03398877884149551,0.049663610096275804,0.051621831491962075
1761475472509707500,4.36070751953125,0.03534837675690651,0.04258030077181756,0.06350311568267643
1761475472519684400,4.370684326171875,0.04580430431962013,0.0021392039857804773,0.08639905729740857
1761475472529661400,4.380661376953125,0.08550561558902263,-0.025607392530515787,0.07113587558344006
1761475472539639600,4.3906396484375,0.09023264411091804,-0.029052856809273362,0.07972958947084843
1761475472549616400,4.400616455078125,0.029620646759867666,-0.03972929525487125,0.06260507086440921
1761475472559593500,4.410593505859375,-0.05350947186946869,-0.018339374288916587,0.04989573835171759
1761475472569571300,4.4205712890625,-0.080038582354784,0.020767916610091922,0.05625161018446088
1761475472579548400,4.43054833984375,-0.05921031385958194,0.03766330263577401,0.07479505567811429
1761475472589525500,4.440525390625,-0.010336685097217559,0.036386852959170934,0.10343545922897755
1761475472599503400,4.45050341796875,0.03228489753305912,0.003646978200227022,0.08430340019240976
1761475472609480400,4.46048046875,0.027196049961447713,0.0003149842333048582,0.06318206703476607
1761475472619457500,4.47045751953125,-0.08109247532188892,-0.009144041246548294,0.03521897822357714
1761475472629435400,4.480435302734375,-0.15994856989383696,0.023024536430463195,-0.0163405286218971
1761475472639412500,4.49041259765625,-0.15422960772514344,0.04402348531745374,-0.0025379940450191494
1761475472649389300,4.500389404296875,-0.1009352399110794,0.02132240868769586,0.03675035250931978
1761475472659367400,4.510367431640625,-0.05400631547570228,0.012341960505023598,0.04515950361005962
1761475472669344500,4.520344482421875,-0.045187633726000785,0.012747107239812611,0.05212861197032034
1761475472679322400,4.530322265625,-0.035787937217950816,0.03239383780024946,0.03165850926302373
1761475472689299500,4.540299560546875,-0.02219137354195118,0.050601110142096874,0.03881590673699975
1761475472699276500,4.550276611328125,-0.013224807754158973,0.04718509115353226,0.05689473039358854
1761475472709254100,4.560254150390625,0.019881927555799483,0.0077406041894108055,0.0685525810919702
1761475472719231500,4.5702314453125,0.06136661511063576,-0.007287745855376124,0.03717084294371307
1761475472729208600,4.58020849609375,0.09151040896177291,-0.03325125834718346,-0.002453238371014595
1761475472739186200,4.590186279296875,0.06020633915960789,-0.06135982004366815,-0.029730829136073587
1761475472749163300,4.600163330078125,-0.004575052830576897,-0.03299859876036644,-0.06194032334536314
1761475472759140400,4.610140380859375,-0.025076573589444158,-0.003969122826680541,-0.04869396134652197
1761475472769118200,4.6201181640625,-0.05501695382297039,0.02674984056390822,-0.042244273750483986
1761475472779095300,4.63009521484375,-0.044403205350041386,0.052580008999630806,-0.016996508312597868
1761475472789072400,4.640072265625,0.0013233575582504273,0.053259881022572515,0.012705094728991388
1761475472799050200,4.65005029296875,0.0673252312541008,0.04214410131163895,0.015275748934596775
1761475472809027300,4.66002734375,0.08768354414999484,0.016563085331395267,0.02482186817601323
1761475472819005200,4.670005126953125,0.1134703118354082,0.007848813804239034,0.006153481128439307
1761475472828982300,4.679982177734375,0.13075696220099925,-0.0007775602437555789,0.04249890609867871
1761475472838959400,4.68995947265625,0.08934183275103569,0.026857027265429496,0.0787011962711811
1761475472848937200,4.699937255859375,0.05288227988183498,0.0405836470618844,0.08633534441143274
1761475472858914300,4.709914306640625,0.02125321590900421,0.048636605136096474,0.08363317278064787
1761475472868891400,4.719891357421875,-0.02127250513136387,0.030805107304081317,0.0670876231059432
1761475472878869200,4.729869140625,-0.04894669399857521,0.034513606433197855,0.06750745595321059
1761475472888846300,4.739846435546875,-0.03682546357214451,0.03153561353571713,0.06942622212134301
1761475472898823200,4.7498232421875,-0.02575929515659809,0.0237448865942657,0.09533515488170087
1761475472908802300,4.75980224609375,0.011398761370778084,0.021094810476899147,0.15227350522130728
1761475472918779400,4.769779296875,-0.026482348734140394,0.03803155142627656,0.16268179425001145
1761475472928756500,4.779756591796875,-0.07662614356279372,0.0577598958555609,0.12926957318745552
1761475472938734300,4.789734375,-0.1297492464631796,0.08824519662074744,0.11513481098152696
1761475472948711400,4.79971142578125,-0.14352350479364395,0.07081760341450571,0.06381167017519473
1761475472958688300,4.809688232421875,-0.10736322713196277,0.0607006254825741,0.05710018983781338
1761475472968666400,4.819666259765625,-0.014525368958711623,0.030993688678741454,0.04554433820918202
1761475472978643500,4.8296435546875,0.05859072065651416,0.009138999745249747,0.060286199462786315
1761475472988621600,4.83962158203125,0.0708498982489109,0.021076982559263706,0.08974522592015564
1761475472998598400,4.849598388671875,0.08030395529270172,0.03906586291007697,0.10818316521272063
1761475473008575500,4.859575439453125,0.07622516154646873,0.041693873326107855,0.12499715656526386
1761475473018553300,4.86955322265625,0.06552256574630737,0.05145721551477909,0.10378938723318278
1761475473028530400,4.879530517578125,0.05037234288752079,0.05011939103975892,0.08833345942609011
1761475473038507500,4.889507568359375,0.0758779555439949,0.03195763834007084,0.027567075230926275
1761475473048485400,4.8994853515625,0.08465046006441115,-0.009200301478430628,-0.014742226579785345
1761475473058462500,4.90946240234375,0.1229647008895874,-0.0045180619463324545,-0.004192921645194292
1761475473068439600,4.919439453125,0.13096271390616893,0.0016212445262819527,0.016038476935401558
1761475473078417400,4.92941748046875,0.1088654483884573,0.023589330706372855,0.03494914830625057
1761475473088394500,4.93939453125,0.09281681538522243,0.029656156464666128,0.06086188045889139
1761475473098371300,4.949371337890625,0.06735679543614387,0.027594693890213965,0.06884279621019959
1761475473108349400,4.959349365234375,0.024922844332456586,0.048739407923445104,0.06945179495401681
1761475473118326500,4.969326416015625,-0.01729132654070854,0.035681261973083016,-0.006593845307081937
1761475473128303400,4.979303466796875,-0.07504325828552245,0.03608202479369938,-0.020314473754167554
1761475473138281500,4.989281494140625,-0.1069090536236763,0.05409596652053296,-0.026557898188382386
1761475473148258600,4.999258544921875,-0.08691139073371887,0.034982466053962706,0.0045450960837304585
1761475473158235400,5.0092353515625,-0.051477673780918116,0.029569866420701144,0.022621727783232928
1761475473168213200,5.019213134765625,-0.03498012796640396,0.011842924941703676,0.04636522613801062
1761475473178190600,5.029190673828125,-0.016633154892921446,-0.002040785112604499,0.07130582532286643
1761475473188168200,5.039168212890625,-0.02876782932281494,-0.010422317554056643,0.04090250375270843
1761475473198145300,5.049145263671875,-0.04268412647247314,-0.00761047500371933,0.008800415440648794
1761475473208122400,5.059122314453125,-0.06596972499191761,0.003737140701711178,0.0009189414758235216
1761475473218100200,5.069100341796875,-0.1000555344671011,0.01762055849507451,-0.0040857349436730145
1761475473228077300,5.079077392578125,-0.10023732077479362,0.02426167700998485,0.004264890902861952
1761475473238054400,5.089054443359375,-0.06244739608466625,0.027718904791772365,0.03448248064257204
1761475473248032300,5.0990322265625,0.009074702337384223,0.0021291209831833836,0.0349533860899508
1761475473258009300,5.10900927734375,0.08207739470601082,-0.017831278636306524,0.03176284642033279
1761475473267986200,5.118986083984375,0.10686346091628074,-0.040733065469935534,0.0507693793810904
1761475473277964300,5.12896435546875,0.08449263915419578,-0.049571694029122586,0.054966465744748706
1761475473287941400,5.13894140625,0.04439268395602703,-0.0192346426282078,0.05704334508404135
1761475473297919200,5.148919189453125,0.01701250959932804,0.010714432368427514,0.0702922643661499
1761475473307896300,5.158896240234375,0.027111878809332846,0.030272315601632,0.06483655624352395
1761475473317873400,5.168873291015625,0.03876607624590397,0.00888707081079483,0.051683936942741274
1761475473327851300,5.178851318359375,0.03158171769976616,0.0172370390702039,0.002643427180871367
1761475473337828400,5.188828369140625,0.02260521503984928,0.023518311296775937,0.009197305803745984
1761475473347805200,5.19880517578125,-0.004401449829339981,0.038563466345891355,0.016339067317172884
1761475473357783300,5.208783203125,-0.019029694640636443,0.06997961822040379,0.06159625914804637
1761475473367760400,5.218760498046875,-0.036383565023541446,0.04633249291218817,0.10112177545912564
1761475473377737200,5.2287373046875,0.003987023809552193,0.043910672592744227,0.0706000882063061
1761475473387715300,5.23871533203125,0.0050192894667387,0.0329888810839504,0.04398892546072602
1761475473397692400,5.2486923828125,0.028490181425213812,-0.011609043120592832,0.04608509402237832
1761475473407669200,5.258669189453125,0.06696691933572292,-0.025785233315452932,0.01910129857212305
1761475473417647400,5.2686474609375,0.09370002796053886,-0.004463847541064023,-0.010336100575327873
1761475473427624400,5.27862451171875,0.07589958285391331,0.005429843029007315,0.04195362024083733
1761475473437601300,5.288601318359375,0.04534896176755428,0.015549378244206309,0.07556194839738309
1761475473447579400,5.298579345703125,-0.023565584504604338,0.03621083880513906,0.07267287589237094
1761475473457556200,5.30855615234375,-0.08198737833499908,0.06157835816517472,0.03631758711524308
1761475473467533300,5.318533203125,-0.11108546252548694,0.05911540211774408,-0.009022095367312431
1761475473477511400,5.328511474609375,-0.06609831980764866,0.05788439901806414,-0.022966887959092856
1761475473487488300,5.33848828125,0.03007365122437477,0.030872838778048754,-0.008071735839918255
1761475473497466400,5.34846630859375,0.09268062178492545,-0.0009779781866818666,0.026195640747249126
1761475473507443500,5.358443359375,0.08469137659668922,0.009382233916595577,0.039423882567510005
1761475473517420300,5.368420166015625,0.050987259915471074,0.04600888698101043,0.05874320780448615
1761475473527398400,5.3783984375,0.03312836261987686,0.07271561905555426,0.08274586855210363
1761475473537375500,5.38837548828125,0.002957096239924431,0.0710639063257724,0.06631649260297418
1761475473547352300,5.398352294921875,-0.002877601262927055,0.048953269869834184,0.06000709026046097
1761475473557330400,5.408330322265625,0.025392215409874914,0.011578209590911865,0.027108883134648203
1761475473567307500,5.4183076171875,0.03402443467676639,-0.012258520005270838,0.021376842288672922
1761475473577284400,5.428284423828125,0.052954760596156114,-0.008897080748155713,0.0031135289106518026
1761475473587262500,5.438262451171875,0.035512627407908434,0.011949673251807688,0.017603972686454653
1761475473597239300,5.4482392578125,-0.013708791878819465,0.03241254250071943,0.06965440485402942
1761475473607216400,5.45821630859375,-0.01221884558200836,0.04572415175549686,0.0728394646309316
1761475473617194500,5.468194580078125,-0.011945873859524727,0.023089564490690825,0.08386573942750691
1761475473627171300,5.47817138671875,-0.005666939720511436,-0.0015120850633829831,0.04445062468834221
1761475473637149400,5.4881494140625,0.017228782698512076,-0.024341318117454647,0.008386062486097216
1761475473647126500,5.49812646484375,-0.020991934624314305,-0.03437880107238889,-0.02345386775843799
1761475473657103400,5.508103271484375,-0.04382102154791355,-0.004916925070807337,-0.033400603689998386
1761475473667081500,5.51808154296875,-0.03332125484347343,-0.012433365115523337,-0.02444280573055148
1761475473677058600,5.52805859375,-0.007930208477377892,-0.007734101383388042,0.007732055556774139
1761475473687035400,5.538035400390625,0.05080956526100635,-0.015648746965453028,0.035632235199585555
1761475473697013500,5.548013427734375,0.06508417432904243,-0.01944565503038466,0.05403532237447798
1761475473706990600,5.557990478515625,0.032196634727716444,-0.019000030154734848,0.06282426657304167
1761475473716967400,5.567967529296875,0.027659575819969175,-0.015577289164438842,0.03992722897976637
1761475473726945300,5.5779453125,-0.05714870515465736,0.011364055383577942,0.02429806349761784
1761475473736922400,5.58792236328125,-0.11696107656061648,0.040039822508767246,0.03091273239701986
1761475473746899500,5.5978994140625,-0.14076514599621295,0.06969196038544177,0.02763860609717667
1761475473756877300,5.607877197265625,-0.09766893159151077,0.05364566546976566,0.018109072664380072
1761475473766854400,5.6178544921875,-0.03488368185460567,0.014437471479550002,0.02174319138303399
1761475473776831500,5.62783154296875,0.016231588354706762,-0.019484233475103974,0.04823138533607125
1761475473786809300,5.637809326171875,-0.0037660745352506636,-0.03963284914307296,0.05250555552393198
1761475473796786400,5.647786376953125,-0.018515899899601937,-0.029343437253683803,0.02328340656235814
1761475473806764300,5.657764404296875,0.02939034513533115,0.045362040444836015,0.025186902096122503
1761475473816741400,5.667741455078125,0.05966273380219936,0.012435630137845873,0.11448927961960434
1761475473826718200,5.67771826171875,0.06300561448931694,0.005633183581382036,0.16290208593718705
1761475473836696300,5.6876962890625,0.08774316538274288,0.03182802061103284,0.10482800956591963
1761475473846673200,5.697673095703125,0.0503238275706768,0.027797888312116263,0.08075622910484671
1761475473856650200,5.707650146484375,0.046564767298102376,0.01706124411188066,0.059219300883635875
1761475473866628400,5.71762841796875,0.0327560221761465,0.007510302564874291,0.06870192643478512
1761475473876605200,5.727605224609375,0.03918108678758144,0.022606676344573497,0.06271013867408037
1761475473886582300,5.737582275390625,0.0371001888602972,0.03020670301951468,0.08644370015673339
1761475473896560400,5.747560302734375,-0.007406476864218712,0.013057342232763766,0.10072371605224907
1761475473906537200,5.757537109375,-0.0399497330725193,0.019958572988584635,0.06893588132113218
1761475473916513800,5.767513671875,-0.04026362132728099,0.03647949967868626,0.03724610013701021
1761475473926492000,5.777491943359375,-0.02259644721150398,0.026939444851875303,0.03546937278807163
1761475473936468700,5.78746875,0.02233984210193157,0.009497165533155202,0.05519757108688354
1761475473946445800,5.79744580078125,0.036296471261978144,-0.0009496288750320672,0.06304959976151585
1761475473956424000,5.807423828125,-0.0033095629394054413,0.025426117679476737,0.046517567155510184
1761475473966400800,5.81740087890625,-0.06543196485340595,0.053530806918442246,0.016901377375051378
1761475473976379000,5.82737890625,-0.10464870747625828,0.05251724596172571,-0.04044621135257184
1761475473986356000,5.83735595703125,-0.0665846420198679,0.047792117135971784,-0.07278123163767158
1761475473996332800,5.847332763671875,-0.0008756137907505035,0.025110256663337348,-0.06041494040898979
1761475474006311000,5.857310791015625,0.06939268517792224,-0.001988908794894814,-0.009315160029754042
1761475474016287700,5.867287841796875,0.09923252764642237,-0.0034654110882431266,0.01609649073295295
1761475474026264800,5.877264892578125,0.07080956623852253,0.014708251244947313,0.034701822481676935
1761475474036243000,5.887242919921875,0.0590250204205513,0.019039777643233537,-0.010297887456789612
1761475474046219800,5.8972197265625,0.05822364090979099,0.023093729209154843,-0.0677255556832999
1761475474056196900,5.90719677734375,0.06436521240472794,-0.01908522422015667,-0.034478169793635605
1761475474066175000,5.917175048828125,0.09954641590118407,-0.03432341762334108,-0.019745222498849035
1761475474076151800,5.92715185546875,0.12631284227371214,-0.038748467523977155,0.014484671622142195
1761475474086129000,5.93712890625,0.11543898155987262,-0.05264788660407066,0.061160717274993656
1761475474096107000,5.94710693359375,0.05312719455361366,-0.00594604892283678,0.07326908821985124
1761475474106083800,5.957083740234375,0.02516892804801464,0.025808248864859343,0.0799001237321645
1761475474116062000,5.96706201171875,-0.018120178580284117,0.05510602034591138,0.050554129195213314
1761475474126038800,5.977038818359375,-0.04559387643933296,0.044917000091075895,0.06060023384802043
1761475474136016000,5.987015869140625,-0.07278291213810444,0.046465544707328076,0.0511440579123795
1761475474145994000,5.996993896484375,-0.1087649106234312,0.06306647783108055,0.042386677895858885
1761475474155970800,6.006970703125,-0.12267653159797191,0.04631663775593042,0.037474136739224194
1761475474165948000,6.016947998046875,-0.11775135015547275,0.056846215076744554,0.05327602843977511
1761475474175926000,6.026926025390625,-0.09294307211339473,0.04897796591967344,0.07181962006390094
1761475474185902800,6.03690283203125,-0.09184826261401176,0.05193696185573935,0.10218268268890679
1761475474195880000,6.0468798828125,-0.05864741927981376,0.06050524904094636,0.09979754111804068
1761475474205858000,6.056858154296875,-0.028308395117521284,0.06106967799067497,0.09914981779903173
1761475474215835000,6.0668349609375,-0.009293313524127007,0.04109831858575344,0.07863149203583597
1761475474225812000,6.07681201171875,0.005292845711112022,0.03617313714325428,0.05930157233960926
1761475474235790000,6.0867900390625,0.004240121787786483,0.04942972827516496,0.07155373566932975
1761475474245767000,6.096766845703125,-0.011034019711613654,0.045239436978474254,0.09241261849850416
1761475474255744000,6.106743896484375,-0.0004395604610443115,0.04599712347798049,0.08395407529808581
1761475474265721900,6.116721923828125,0.04879062665402889,0.03323649916946888,0.07500212255753576
1761475474275699000,6.126698974609375,0.05094868147075176,-0.02295658576078713,0.03836144096776843
1761475474285676000,6.136676025390625,0.05473229166269302,-0.05624415753036737,-0.01579465824216604
1761475474295654000,6.14665380859375,0.03317746245861053,-0.06904321415312588,-0.05567950938493013
1761475474305631000,6.156630859375,0.025406243935227394,-0.07142901331111788,-0.08135317208468913
1761475474315609000,6.166609130859375,-0.00530512067079544,-0.06202668645456433,-0.06943615899346768
1761475474325586000,6.1765859375,-0.008242343166470528,0.0022348463799804446,-0.03895904153473675
1761475474335563000,6.18656298828125,-0.010769231295585631,0.026053382732346652,0.012616320466995238
1761475474345541000,6.196541015625,-0.0033066403299570083,0.03420980118103325,0.049722646807134147
1761475474355518000,6.20651806640625,-0.001536123526096344,0.021722660051658748,0.014435644848644732
1761475474365495000,6.2164951171875,0.03695172030031681,-0.00651062400303781,-0.02813822618238628
1761475474375473000,6.226472900390625,0.031852935856580736,-0.03726750825121999,-0.04881342300772667
1761475474385450000,6.236449951171875,0.03371405355334282,-0.049863297386839985,-0.01908010965362191
1761475474395427000,6.246427001953125,0.03812193312346935,-0.03659172788150608,0.009927008317783474
1761475474405405000,6.256405029296875,0.04338496821820736,-0.026360183659195898,0.07348061207868159
1761475474415382000,6.266382080078125,0.06190846690237522,-0.010305559306591749,0.09882898834683
1761475474425359000,6.276359130859375,0.04938099376261234,-0.0002500292383134365,0.07782251374050975
1761475474435336700,6.286336669921875,0.036816695743799206,-0.005253390483558178,0.04548858943395316
1761475474445314000,6.29631396484375,0.06284954714477062,-0.00403648897446692,0.02061659850589931
1761475474455291000,6.306290771484375,0.05283259552121162,-0.030443726645782588,0.05312054561711847
1761475474465268700,6.316268798828125,0.017084990313649177,-0.0052841509480029344,0.07599442153051496
1761475474475246000,6.32624609375,-0.046209962511062616,0.05147131710536778,0.11648534880764781
1761475474485224000,6.336223876953125,-0.09659224227070808,0.10197159722149371,0.11503325030319392
1761475474495200800,6.34620068359375,-0.08222060256898403,0.11555858935154974,0.1034465651448816
1761475474505177900,6.356177734375,-0.047370822983980175,0.10004873940013348,0.10177242138758301
1761475474515155700,6.36615576171875,0.007941898915171624,0.09307312823385,0.0986648838263005
1761475474525132800,6.3761328125,0.06882452990114689,0.0802666920222342,0.12006072307638824
1761475474535110000,6.38610986328125,0.11488310124278067,0.06826623843125998,0.13943601628430186
1761475474545087700,6.396087646484375,0.09967442619502544,0.04971124863028526,0.10951054135896265
1761475474555064800,6.40606494140625,0.06918868703842163,0.054421033756434915,0.05580255124270916
1761475474565042000,6.4160419921875,0.04235679421424866,0.02703939809501171,0.01982990510761738
1761475474575019800,6.426019775390625,0.032472529059648515,0.03337342342212796,0.023485943397134543
1761475474584996900,6.435996826171875,0.05842763904929161,0.01282689447775483,0.020423340956121683
1761475474594973700,6.4459736328125,0.04197451689839363,0.006621756227314471,0.04701236493512988
1761475474604951800,6.455951904296875,0.05071721080243587,0.01673449637554586,0.07984525173977017
1761475474614929000,6.465928955078125,0.04003741135597229,0.011738660849630832,0.06684263536892832
1761475474624907000,6.475906982421875,-0.017276713493466378,0.03662329206354916,0.040058819470182055
1761475474634883800,6.4858837890625,-0.04736030158996582,0.04997421041540801,0.00888254076614976
1761475474644861000,6.49586083984375,-0.03965981021523476,0.01631020654886961,-0.005617036164179444
1761475474654838800,6.5058388671875,-0.04795125322043895,-0.0325055545464158,-0.00657543286755681
1761475474664815900,6.51581591796875,-0.029642858591675758,-0.042348903168737885,-0.02157280325219035
1761475474674793000,6.52579296875,0.0012467851907014846,-0.04336714030057191,-0.027049042706191538
1761475474684770800,6.535770751953125,0.018925065222382544,-0.0217351542070508,0.026455679922923445
1761475474694748000,6.545747802734375,0.031467151409387585,-0.011669906462356447,0.06509228457026184
1761475474704725000,6.55572509765625,0.013605916026234626,0.007369871180877089,0.0684600074376911
1761475474714702800,6.565702880859375,-0.036952304822206496,0.017386457478255034,0.06709397978149353
1761475474724680000,6.575679931640625,-0.04072831622958183,0.03256283769160509,0.040390535642579196
1761475474734656800,6.58565673828125,-0.016616788280010224,0.025281448511779308,0.035956644848361606
1761475474744635000,6.595634765625,-0.03583060731589794,0.019390490777045487,0.04572605145163834
1761475474754612000,6.605612060546875,-0.036117607563734055,0.028207053634896874,0.0381762936592102
1761475474764588800,6.6155888671875,0.008901099336147307,0.04240107174739241,0.06978080771267414
1761475474774567000,6.62556689453125,-0.0155938749730587,0.02874627507813275,0.0719928577389568
1761475474784544000,6.6355439453125,-0.028726328268647194,0.0035546968068927523,0.07515818990208208
1761475474794520800,6.645520751953125,-0.03307458660602569,0.009794833305478095,0.048732612856477495
1761475474804499000,6.6554990234375,-0.0034457565397024155,-0.008310366901382803,0.049599678014591336
1761475474814476000,6.66547607421875,0.040434301719069476,-0.023586773423105476,0.08659121886864304
1761475474824454000,6.675453857421875,0.06581424216926098,-0.02175495488606393,0.08512180390320717
1761475474834431000,6.685430908203125,0.08570552207529544,-0.018090587159618733,0.0640686406109482
1761475474844407800,6.69540771484375,0.08093056275844573,-0.01602349856197834,0.03766892865896225
1761475474854386000,6.705385986328125,0.03529576978683471,0.008511077105253935,0.020303879294916987
1761475474864363000,6.715363037109375,0.04007423623502254,0.027523601415380836,0.04118373184688389
1761475474874339800,6.72533984375,0.03577624678015709,0.04256006170138717,0.06853701819665729
1761475474884318000,6.73531787109375,0.019459318229556082,0.03362301426902413,0.09562076689004897
1761475474894295000,6.745294921875,0.03091419370174408,0.01824731209129095,0.1277571958631277
1761475474904272000,6.75527197265625,0.012328735697269439,0.014128990052267908,0.13886077367961405
1761475474914249500,6.76524951171875,-0.05335282000303268,0.016198855128884315,0.10338007577992975
1761475474924226600,6.7752265625,-0.1062292546659708,0.0029804040502756832,0.05362542639933526
1761475474934203600,6.78520361328125,-0.14816811572909355,0.008095408976450561,0.030037483932450412
1761475474944181500,6.795181396484375,-0.14917875407636164,0.008900587879493832,0.04150609566904604
1761475474954158600,6.80515869140625,-0.13396832546293735,-0.0007388356685638427,0.08568754802718757
1761475474964135700,6.8151357421875,-0.10943418818712233,0.001839636517316103,0.12057137601226567
1761475474974113500,6.825113525390625,-0.07766659252643585,0.00013663199171423912,0.12653627576604484
1761475474984090600,6.835090576171875,-0.0146352590739727,-0.021912483535334468,0.14255612106621265
1761475474994068700,6.84506884765625,0.028384382963180542,-0.04048742014579475,0.1264773121204227
1761475475004045600,6.855045654296875,0.030406828701496122,-0.03932276028059423,0.08510024965852499
1761475475014022700,6.865022705078125,0.039296237599849695,-0.03465155359916389,0.08520276018492877
1761475475024000800,6.875000732421875,0.05917641158998012,-0.03371419968381524,0.09042202920317649
1761475475033977600,6.8849775390625,0.08425298517942428,-0.041289091917499895,0.1065877857800573
1761475475043954700,6.89495458984375,0.12019172904491424,-0.04678893144279718,0.10365998869985342
1761475475053932500,6.9049326171875,0.15041326430737972,-0.048545565851777786,0.09870017433539033
1761475475063909600,6.91490966796875,0.16030571276843547,-0.0755255619097501,0.08136215910874307
1761475475073886700,6.92488671875,0.1323223118215799,-0.06205050572156906,0.016627894195914268
1761475475083864600,6.934864501953125,0.03353577437698841,-0.05438683922588825,-0.04075659247599542
1761475475093841700,6.944841552734375,-0.017163900768756866,-0.030562238458916542,-0.13164952712655068
1761475475103818500,6.954818603515625,-0.00907704042494297,-0.01300802319832146,-0.15506350126601753
1761475475113796400,6.96479638671875,-0.027169161954522132,-0.02257401618398726,-0.08315751809291541
1761475475123773700,6.974773681640625,-0.03270692233741283,0.028673794363811612,-0.04945953889153897
1761475475133750500,6.98475048828125,-0.08609890530705451,0.0837495657019317,-0.014422346975654362
1761475475143728400,6.994728271484375,-0.18034429219067097,0.11703107305690645,-0.013065306343510746
1761475475153705500,7.00470556640625,-0.2316951247215271,0.1577851813148707,-0.04634630224183202
1761475475163683300,7.014683349609375,-0.24342472548186778,0.18564364070780573,-0.07341017719097435
1761475475173660400,7.024660400390625,-0.19374562555551528,0.14247384961023926,-0.1040075600285083
1761475475183637500,7.034637451171875,-0.1249339551359415,0.09248751036562025,-0.1254126054983586
1761475475193615400,7.044615478515625,-0.05899988597929477,0.06562354190275073,-0.12897000571899114
1761475475203592400,7.054592529296875,0.01234744039773941,0.05849558971896767,-0.13123802371621132
1761475475213569500,7.064569580078125,0.08511749305427074,0.04280797204785049,-0.119643374447152
1761475475223547400,7.07454736328125,0.1901291886240244,0.04819711774028838,-0.06334945949092508
1761475475233524500,7.0845244140625,0.27089199360013005,0.03545044889189303,-0.05815225617401301
1761475475243501300,7.094501220703125,0.3163467538297176,0.036796968130022284,-0.04119973313361406
1761475475253479400,7.1044794921875,0.29364743076562877,0.005659560131654143,-0.016381810480356217
1761475475263456500,7.11445654296875,0.2719739436179399,-0.005992153086885809,-0.014890329813584685
1761475475273433300,7.124433349609375,0.24151333890259263,-0.02405482932627201,-0.03004793226122856
1761475475283411500,7.134411376953125,0.2039572229683399,-0.038796252188459036,-0.009423881101235747
1761475475293388500,7.144388427734375,0.12344517788290976,-0.05849018289148807,-0.03011727117039263
1761475475303365400,7.154365478515625,0.06265723944306373,-0.04838058454841375,-0.027809359554201364
1761475475313343500,7.164343505859375,-0.047944238957762716,-0.037443084013834595,0.009453107195720076
1761475475323320600,7.174320556640625,-0.08890870203077793,-0.006061857322230935,0.02090250277519226
1761475475333298400,7.18429833984375,-0.1659334895223379,0.025292773623391985,0.01259615446180105
1761475475343275500,7.194275634765625,-0.17796236549019812,0.041654856489971276,0.026503976044058797
1761475475353252600,7.204252685546875,-0.17403963908851144,0.060815337903425096,0.03857902924120426
1761475475363230500,7.21423046875,-0.12098492524921893,0.060640785054117435,0.10187727000154555
1761475475373207600,7.22420751953125,-0.0319675021469593,0.0758509944718331,0.1302159141268581
1761475475383184400,7.234184326171875,0.021606851652264593,0.04210851854160428,0.13814393064714967
1761475475393162500,7.24416259765625,0.04979191265106201,0.00600990793928504,0.11516688662022352
1761475475403139600,7.2541396484375,0.05362520720362663,-0.020034049377590415,0.08909048833847046
1761475475413116400,7.264116455078125,0.03259410961270332,-0.02250065868683159,0.0737055068757385
1761475475423094500,7.274094482421875,0.012667173871397971,-0.000765139153599739,0.08462656773217021
1761475475433071600,7.284071533203125,-0.005035656079649925,0.016613573409616948,0.0986513667576015
1761475475443048400,7.29404833984375,-0.04417231920361519,0.03235211755037307,0.10311163410209119
1761475475453026600,7.304026611328125,-0.07755027267038822,0.04954765556640923,0.07729308303892612
1761475475463003600,7.314003662109375,-0.11873510049581527,0.06618877457007766,0.054990942598879336
1761475475472980500,7.32398046875,-0.1199444762855768,0.06422587699927389,0.08939348987303673
1761475475482958600,7.33395849609375,-0.10278408264815807,0.0513735558193177,0.11122355582192539
1761475475492935400,7.343935302734375,-0.06801204447448253,0.054149231077730654,0.10289178080633282
1761475475502913500,7.35391357421875,-0.06010229426324367,0.0378724884070456,0.09359590999893844
1761475475512890600,7.363890625,-0.08690262290537357,0.026299393382668495,0.06941796574965119
1761475475522867500,7.373867431640625,-0.08661679170131682,0.028496757296472785,0.04497362564913928
1761475475532845600,7.383845458984375,-0.05120879371166229,0.049948126126080745,0.043876770323142404
1761475475542822700,7.39382275390625,-0.0023246435552835465,0.055352907779067755,0.09697978028357028
1761475475552799500,7.403799560546875,0.06430500665009022,0.05739296223931014,0.12530958351530133
1761475475562777600,7.413777587890625,0.11228139431178569,0.032122181252017615,0.10809249125458299
1761475475572754700,7.423754638671875,0.13915771079957484,-0.006064487670734525,0.07633483246602117
1761475475582731500,7.4337314453125,0.12476736639738083,-0.0016337386816740035,0.03120382429808378
1761475475592709600,7.443709716796875,0.10305997698009013,0.011755904245376586,0.026247078673541546
1761475475602686700,7.453686767578125,0.10020867920219897,0.0020019874721765515,0.037668782528489826
1761475475612663600,7.46366357421875,0.12087503513395785,0.008504647364467382,0.05441650371178984
1761475475622641700,7.4736416015625,0.15476619881987572,0.021964652113988993,0.07728979510329663
1761475475632618500,7.483618408203125,0.13047346908450125,-0.00013984686210751532,0.09016410891935228
1761475475642595600,7.493595703125,0.07602934671342372,-0.010769815817475319,0.073752122496441
1761475475652573700,7.50357373046875,-0.028681320083141327,0.01071041378043592,0.019843714437261222
1761475475662550500,7.513550537109375,-0.13655191221535204,0.038152474392205475,-0.020625001008063554
1761475475672528400,7.5235283203125,-0.18717735308110714,0.05942059560939669,-0.0551332006137818
1761475475682505700,7.533505615234375,-0.18606266983747483,0.05156980904377997,-0.05493000619187951
1761475475692482600,7.543482666015625,-0.17033260126411914,0.045445334814116355,-0.04218501784391701
1761475475702460400,7.55346044921875,-0.09050678487718104,0.04026310987062752,-0.013343977154418825
1761475475712437500,7.5634375,0.018164017722010612,0.011007423965632914,0.04205540011487901
1761475475722414600,7.57341455078125,0.06283493409752845,-0.017648761676251887,0.12228190625719726
1761475475732392400,7.583392333984375,0.04170914396047592,-0.0062141983397305004,0.13389672153145074
1761475475742369500,7.59336962890625,-0.0044172319203615185,0.031689854249358176,0.1044193556997925
1761475475752346600,7.6033466796875,-0.056259647360444066,0.02866400362215936,0.06409523635692894
1761475475762324500,7.613324462890625,-0.07677928829789162,0.03396291374787688,0.07021956445612013
1761475475772301300,7.62330126953125,-0.050740591678023333,0.024437764229252933,0.07480828048586845
1761475475782278700,7.633278564453125,0.02740530879795551,0.0072075202260166405,0.06201572666913271
1761475475792256500,7.643256591796875,0.07191606617569923,-0.023062968744710085,0.05503982324190437
1761475475802233300,7.6532333984375,0.06848024650812148,-0.0331232480533421,0.02574073658660054
1761475475812210400,7.66321044921875,0.012894552886486053,0.00017163023985922337,0.06387720969207585
1761475475822188500,7.6731884765625,0.015777414846420288,0.03472944114096463,0.06887209536992013
1761475475832165400,7.683165283203125,0.01779810701906681,0.03800634391978383,0.10453085325025022
1761475475842143500,7.6931435546875,0.03942950859069824,0.04990954768136143,0.13826938365772365
1761475475852120600,7.70312060546875,0.050825931873917575,0.05682553761489689,0.1340747084468603
1761475475862097400,7.713097412109375,0.04357552235424518,0.04328538030125201,0.08266688503175973
1761475475872075500,7.723075439453125,0.04296645054519176,0.047083311279490586,0.0031055647999048233
1761475475882052400,7.73305224609375,0.04657119703888893,0.052453021619096395,0.005213350734114647
1761475475892029400,7.743029541015625,0.058575523087382314,0.0490101146236062,0.04014050640426576
1761475475902007600,7.753007568359375,0.07968436208963393,0.08059424347616731,0.08987849691100418
1761475475911985400,7.7629853515625,0.08713818522691726,0.07769114244580268,0.1719147558890283
1761475475921962200,7.772962158203125,0.08466448858976364,0.06729067139737308,0.1439046861309558
1761475475931940400,7.7829404296875,0.04431669611036777,0.06364106284864246,0.10575082349926233
1761475475941917400,7.79291748046875,-0.032443302965164185,0.025095862811803815,0.012452435142174362
1761475475951894300,7.802894287109375,-0.07741174098253249,0.024235738851130006,-0.060548576726019376
1761475475961872400,7.812872314453125,-0.10751754091084002,0.008936389845237135,-0.05071845291145145
1761475475971849500,7.822849365234375,-0.1404232006907463,0.03503025071844458,-0.008323883970081805
1761475475981826300,7.832826416015625,-0.12964929322004318,0.06547558479942381,0.056035702411457895
1761475475991804400,7.842804443359375,-0.12202011351585387,0.08980192454345524,0.08618329565487802
1761475476001781500,7.852781494140625,-0.10205869098305702,0.0791528855614364,0.025373364578932522
1761475476011759400,7.86275927734375,-0.051709144449234,0.032674335242062806,-0.012970102340728044
1761475476021736400,7.872736328125,0.004113865059614181,0.017313538372516632,-0.014632774855941532
1761475476031713300,7.88271337890625,0.04172434152960777,0.01127776533961296,-0.00016615034714341162
1761475476041691400,7.89269140625,0.04713058448731899,-0.015110036978870629,0.03232479115203023
1761475476051668500,7.90266845703125,0.06732347768843173,-0.0049275925952941176,0.03275909091606736
1761475476061645300,7.912645263671875,0.0970271265566349,0.0046980946883559225,0.025760025808960196
1761475476071623400,7.92262353515625,0.07687398084402083,-0.0025261574767529963,0.004039923040568829
1761475476081600500,7.9326005859375,0.09497837733328342,-0.0018195435773581264,-0.002243468077853322
1761475476091577300,7.942577392578125,0.09502163195312023,-0.007900690121948719,0.003637845045700669
1761475476101555500,7.952555419921875,0.1094184060961008,-0.020040113792195915,-0.015740078510716557
1761475476111532500,7.962532470703125,0.13762041822969912,-0.016164003011211753,0.019893471863120793
1761475476121509400,7.97250927734375,0.1021118824750185,-0.00023614684343338012,0.04100231086537242
1761475476131487500,7.982487548828125,0.04941840316355228,0.015927271645888686,0.05285765689723193
1761475476141464600,7.992464599609375,-0.0004909983873367309,0.033010581459105015,0.03674918346554041
1761475476151441400,8.00244140625,-0.009485036703944206,0.0508658985581249,0.02276946569085121
1761475476161419300,8.012419189453125,-0.018185645031929015,0.04802395313046872,0.028624548394605515
1761475476171396400,8.022396240234375,-0.023913959550857542,0.03599500409737229,0.04937244512997568
1761475476181373400,8.03237353515625,-0.030257775619626042,0.04681443121023476,0.053415875301882625
1761475476191351300,8.042351318359374,-0.048295536613464356,0.031941637053340674,0.029962445934861897
1761475476201328400,8.052328369140625,-0.07493336817026137,0.0354212227974087,0.00952624549716711
1761475476211306200,8.06230615234375,-0.07936287505030631,0.033163945389911534,0.01466083190664649
1761475476221283300,8.072283447265624,-0.07407119838297367,0.04076178010776639,0.015906009662151336
1761475476231260400,8.082260498046875,-0.07165478489100932,0.025433862594515085,0.022378493611887096
1761475476241238300,8.09223828125,-0.07529986339509487,0.040384105901792644,0.03025660657584667
1761475476251215400,8.10221533203125,-0.06376607746779918,0.05181771939024329,0.030426629380509256
1761475476261192400,8.1121923828125,-0.03832943839430809,0.04301350455731153,0.04487739873304963
1761475476271170300,8.12217041015625,-0.01826397096514702,0.023225977286696432,0.03703969084471464
1761475476281147400,8.1321474609375,0.00044072950482368465,0.01680544271990657,0.022095146625861525
1761475476291124200,8.142124267578126,-0.012030045011639595,0.026818302690237758,0.003684168405458331
1761475476301102300,8.152102294921875,0.03155599873661995,0.009034808718413114,0.00017974048107862473
1761475476311079200,8.1620791015625,0.04657119703888893,-0.011930676290392874,0.010066782114654779
1761475476321056300,8.17205615234375,0.01957096191048622,-0.018565657325461504,0.019632482839375732
1761475476331034400,8.182034423828124,-0.0009235445857048034,-0.0009272709127515554,0.021123159788548944
1761475476341011200,8.19201123046875,-0.012928455156087875,0.02147175403051078,0.03183225839473307
1761475476350988300,8.20198828125,-0.03429389926791191,0.0283584448043257,0.03522453118152916
1761475476360966400,8.21196630859375,-0.02682663212716579,0.04176883825846016,0.04142418953925371
1761475476370943200,8.221943115234374,-0.031228081956505775,0.0312930369514972,0.0664725599475205
1761475476380921300,8.23192138671875,-0.036411622074246405,0.03504595974422991,0.042902883789688345
1761475476390898400,8.2418984375,-0.02454933484494686,0.032219065755233166,0.040670960019156335
1761475476400875300,8.251875244140624,0.018324176719784736,0.009529460367560387,0.04344795045182109
1761475476410853400,8.261853271484375,0.035998949620127674,-0.00343728097230196,0.0504298452284187
1761475476420830200,8.271830322265625,0.028297873723506926,-0.006158011173084378,0.04979973063133657
1761475476430807300,8.281807373046876,0.010520224970579146,-0.003005684622004628,0.0224568195451051
1761475476440785400,8.291785400390625,-0.016488193464279172,0.021460428918898104,0.03371975264176726
1761475476450762200,8.30176220703125,-0.004538812473416328,0.042347076537832616,0.04567212930731475
1761475476460739300,8.3117392578125,0.009502572360634804,0.020106968483328817,0.059157268498092885
1761475476470717400,8.321717529296874,0.057232291784882545,0.013162263911962508,0.08507818395718932
1761475476480694300,8.3316943359375,0.08731471083760262,0.007403846515715122,0.07557575772702693
1761475476490672400,8.34167236328125,0.06771160022318362,0.0019203736033290624,0.08439064008444547
1761475476500649500,8.3516494140625,0.05470189652442932,-0.000019727613776922224,0.06345956880189478
1761475476510626300,8.361626220703124,0.003265723797678947,0.024843568551167844,0.05033902513980865
1761475476520604400,8.3716044921875,-0.02926408840715885,0.04598762499727308,0.04489084273651242
1761475476530581500,8.38158154296875,-0.01979308022856712,0.05772708956450224,0.06333703840076924
1761475476540558300,8.391558349609374,0.008495441144704819,0.06422273519411682,0.07601699868850409
1761475476550536400,8.401536376953125,-0.007137012273073196,0.050679655271023506,0.0810369457423687
1761475476560513300,8.41151318359375,-0.054657472860813135,0.08283120874799788,0.0597237432744354
1761475476570490400,8.421490478515626,-0.07995850285589695,0.09763824419230221,0.015021993369236588
1761475476580468500,8.431468505859375,-0.0967740285784006,0.09998130018711089,0.020234759581461547
1761475476590445300,8.4414453125,-0.04695756600797176,0.08762173096016049,0.007454772985354066
1761475476600422400,8.45142236328125,0.02700140417218208,0.05939407292865216,0.017733225089311598
1761475476610400500,8.461400390625,0.05151099152863026,0.02897920705117285,0.02701024506576359
1761475476620377300,8.47137744140625,0.07009878762066364,0.023355521950498222,0.0563617925606668
1761475476630354400,8.4813544921875,0.09146481625437736,0.015068243663758038,0.028041049418225883
1761475476640332500,8.49133251953125,0.07713760021626949,0.02657061153948307,0.016732304418459534
1761475476650309400,8.501309326171874,0.07298164958059787,0.03905585297271609,0.029463337306305765
1761475476660287500,8.51128759765625,0.05608779792487621,0.035835502686724065,0.051821884108707306
1761475476670264600,8.5212646484375,0.07099018350243567,0.014834654103592037,0.051281201360747215
1761475476680241400,8.531241455078124,0.06909048736095429,-0.0028510055169463154,0.0023415216248482465
1761475476690219500,8.541219482421875,0.012828501912951469,-0.014470131640136242,-0.01405555948987603
1761475476700196400,8.5511962890625,-0.014677344650030136,-0.006276522986218333,-0.028811668464541435
1761475476710173400,8.56117333984375,-0.03178396227359771,0.016570757181197403,0.0006042495034635066
1761475476720151600,8.571151611328125,-0.00035480478703975673,-0.008515826345607639,0.026399127430096266
1761475476730128400,8.58112841796875,0.025782091510295868,0.026128274599462747,0.02716463190987706
1761475476740105500,8.59110546875,0.01641863535940647,0.01563384165726602,0.05001045077256858
1761475476750083300,8.601083251953124,-0.0022007249146699906,-0.007262173022702336,0.043914252789318556
1761475476760060400,8.611060302734375,-0.038889410364627834,0.00878054169639945,0.013638137795403599
1761475476770037500,8.62103759765625,-0.0746796856701374,0.020129691771790383,-0.0022944676127284766
1761475476780015400,8.631015380859376,-0.08498363754153251,0.02696925546824932,0.027810309402272103
1761475476789992400,8.640992431640624,-0.04813187048435211,0.019316914084181187,0.0068500850904732935
1761475476799969500,8.650969482421875,-0.03274491626024246,0.0028599925410002468,-0.000433569111675024
1761475476809947100,8.660947021484375,-0.043514147555828095,-0.008129238180816173,0.013110241463780403
1761475476819924500,8.670924560546876,-0.04147299711704254,-0.00315853709615767,0.03885974587872624
1761475476829902300,8.68090234375,-0.043213118782639504,0.002461933134123683,0.04967252405509352
1761475476839879200,8.690879150390625,-0.05020224701762199,0.010098711622878908,0.029585575446486472
1761475476849856300,8.700856201171876,-0.04919394675791263,0.03648760991990566,0.04723908636309206
1761475476859834400,8.71083447265625,-0.05751870751082897,0.060260845825821155,0.057953591796755785
1761475476869811200,8.720811279296875,-0.04305412882864475,0.05996909633763134,0.0770925189655274
1761475476879788300,8.730788330078125,-0.03421381976902485,0.037851445619016884,0.06455635106265545
1761475476889766400,8.740766357421874,-0.0072498249977827065,0.01413264331407845,0.02116531842984259
1761475476899743200,8.7507431640625,0.017675357422232627,0.022472528570890424,0.015202172241732478
1761475476909720300,8.76072021484375,0.03877016789913177,0.005348813682049512,0.04251388447210192
1761475476919697400,8.770697509765625,0.07982172473371028,0.012124226101115345,0.07144158053174615
1761475476929674800,8.7806748046875,0.1042161612778902,0.02942819292768836,0.07493212606124579
1761475476939651800,8.79065185546875,0.11129062970876694,0.03790858263373375,0.07613448758833109
1761475476949629400,8.80062939453125,0.09662906714975833,0.042171939166635274,0.062000382969528436
1761475476959606500,8.8106064453125,0.058034255817532535,0.05966112636700272,0.06889832578971981
1761475476969583600,8.82058349609375,0.023591303467750548,0.0857633166771382,0.07207812486961483
1761475476979561500,8.8305615234375,-0.0167921448469162,0.09392148869149386,0.0656504299096763
1761475476989538600,8.84053857421875,-0.02305354332923889,0.10700111582130194,0.0670072513461113
1761475476999515600,8.850515625,-0.001146247425675392,0.0859651228595525,0.06963840356729924
1761475477009493500,8.860493408203125,0.01716097815930843,0.06030789983794093,0.08289616374298929
1761475477019470600,8.870470703125,0.025168343526124952,0.07628967815004288,0.09653335169032215
1761475477029448400,8.880448486328126,-0.01416647251844406,0.05878295529298484,0.07339505268707872
1761475477039425500,8.890425537109374,-0.037272038295865055,0.03566906007863581,0.07977467072159052
1761475477049402600,8.900402587890625,-0.05251870726644992,0.03604256956614554,0.05322663634009659
1761475477059380500,8.91038037109375,-0.059627662488818164,0.02136164471954107,0.031355142402276395
1761475477069357600,8.920357666015626,-0.027658406776189803,0.02066102216951549,0.024854455271363256
1761475477079334400,8.93033447265625,0.025592706418037414,-0.0028143267683684824,0.020428893914073706
1761475477089312500,8.9403125,0.05376198532581329,-0.014974208704754709,0.057974561519548294
1761475477099289600,8.95028955078125,0.016892098090052602,-0.018462270016223192,0.03677095690593123
1761475477109266400,8.960266357421874,-0.016548399218916893,-0.006933379459753632,0.016783888475224374
1761475477119244500,8.97024462890625,-0.032843115937709805,-0.003653115680068731,0.025222777127102015
1761475477129221600,8.9802216796875,-0.007925532302260398,-0.006388239732384681,0.022032456653192638
1761475477139198500,8.990198486328126,0.07692015807330609,-0.010031783866509795,0.06870229176096618
1761475477149176600,9.000176513671875,0.13126608076691626,-0.028098259498178957,0.05178052918501198
1761475477159153700,9.010153564453125,0.12838321880698203,-0.022388868875429034,0.042005277362838385
1761475477169130500,9.020130615234375,0.043593642532825466,-0.013869608463719487,-0.00008307517357170581
1761475477179108600,9.030108642578124,-0.04329202923774719,0.0209790751427412,-0.03798398595750332
1761475477189085700,9.040085693359375,-0.07917875065505504,0.04343509097024798,-0.06402640890441834
1761475477199063600,9.0500634765625,-0.048614685565233226,0.05063450095504522,-0.02838723250739276
1761475477209040600,9.06004052734375,-0.02497837391197681,0.030839667160809037,0.006636077013611793
1761475477219017500,9.070017578125,0.027644378250837324,0.0012440817769616842,0.019544073903560638
1761475477228995600,9.07999560546875,0.06327449455857277,0.0005054653041064739,0.015993176488950846
1761475477238972700,9.08997265625,0.043649172112345695,0.02602291452884674,0.030401202678307888
1761475477248949500,9.099949462890624,0.018258710268139838,0.04169467704370618,0.041852571019157764
1761475477258927600,9.109927734375,0.009288052827119827,0.04457125539332628,0.049592956012859936
1761475477268904700,9.11990478515625,0.032684125983715055,0.04119403404518961,0.053228901362419125
1761475477278881500,9.129881591796876,0.04959785138368606,0.016186653234437107,0.04062259083278477
1761475477288859600,9.139859619140625,0.03359422656595707,-0.0037255233291536567,0.0016631109066307544
1761475477298836700,9.149836669921875,0.012808043646812439,-0.005978416822478174,-0.025663141305744645
1761475477308813600,9.1598134765625,-0.029908816051483152,0.013684899546578526,-0.018166355809569358
1761475477318791700,9.169791748046874,-0.057951838231086725,0.02735642815493047,0.04266666388101876
1761475477328768800,9.179768798828125,-0.07557751129269599,0.07469824424013495,0.10502908509597182
1761475477338745600,9.18974560546875,-0.0762047032803297,0.06858940597102045,0.11190174734443425
1761475477348723700,9.1997236328125,-0.0797118346184492,0.04332388568073511,0.06286503697484731
1761475477358700500,9.209700439453124,-0.10370704271197319,0.00876008343026042,-0.012538140664249658
1761475477368677600,9.219677734375,-0.11320318533182143,-0.002910334488749504,-0.06125811323486268
1761475477378655700,9.22965576171875,-0.08849252244532108,0.003047404871881008,-0.07462985517904162
1761475477388632600,9.239632568359376,-0.05556991153061389,0.011391162586212157,-0.013665537258982658
1761475477398610700,9.249610595703125,-0.029866730475425717,0.019220687168091534,0.046944779591634865
1761475477408587800,9.259587890625,0.021378303593397138,0.03521181783042848,0.07759374648593366
1761475477418564600,9.269564697265626,0.06714344494640827,0.039836262760683895,0.05689319602362811
1761475477428542700,9.279542724609374,0.10189736294150352,0.03185373957417905,0.04246259267628193
1761475477438519800,9.289519775390625,0.09946458283662796,0.0056477966286242005,0.024801263779401776
1761475477448496600,9.29949658203125,0.05270341618359089,0.00816087542809546,-0.005267930465564131
1761475477458474800,9.309474853515624,0.030651158851385116,0.031274551446735854,-0.020684841436520218
1761475477468451600,9.31945166015625,0.030764556097984314,0.02988558130636811,0.012862038856372236
1761475477478428700,9.3294287109375,0.04325461983680725,0.0365223159071058,0.05331080749221146
1761475477488406800,9.33940673828125,0.07560849095284938,0.0278534909568727,0.0781557642828673
1761475477498383600,9.349383544921874,0.08233399981558323,0.023635288739949464,0.05154145973213017
1761475477508360700,9.359360595703125,0.033243513432145114,-0.0008119009047746658,0.05121105873398483
1761475477518338600,9.369338623046875,-0.03195055101215839,0.0004945055186748505,0.017322817657515404
1761475477528315600,9.379315673828126,-0.040866847917437554,0.052148704910278315,-0.03561528406478465
1761475477538292700,9.389292724609374,-0.01946516344845295,0.059536915465444325,-0.011717618061602115
1761475477548270600,9.3992705078125,0.018957213926315306,0.04998042096048593,0.062066068616881964
1761475477558247700,9.40924755859375,0.07580956648290157,0.0485389169152826,0.09038323156274855
1761475477568224800,9.419224853515624,0.1108516537696123,0.05104812325723469,0.11309073793329298
1761475477578202600,9.42920263671875,0.095641225156188,0.03155629099756479,0.11536430888846516
1761475477588179700,9.4391796875,0.054601358759403223,0.00929017171896994,0.06780490452982485
1761475477598156800,9.44915673828125,-0.013515315133333206,0.012981135191395878,0.03411437798254192
1761475477608134400,9.459134521484375,-0.048126025265455244,0.027505408171564338,0.018107611359655856
1761475477618111500,9.469111572265625,-0.03285597541928291,0.021054770727455614,0.014778832263126969
1761475477628089600,9.479089599609376,-0.022670681491494177,-0.003994476463645697,0.026556948340311644
1761475477638066400,9.48906640625,0.0116594581335783,-0.00812631557136774,0.06079524496346712
1761475477648043500,9.49904345703125,0.031157354807853695,-0.012263196180388332,0.06982289328873158
1761475477658021600,9.509021728515625,0.01075578729212284,-0.00679470164142549,0.06954173825979232
1761475477667998500,9.51899853515625,-0.055112815412878984,-0.0009812661223113537,0.05360431054607034
1761475477677975600,9.5289755859375,-0.09080372199714183,0.04132927779741585,0.03290755947604775
1761475477687953700,9.53895361328125,-0.10195347704291344,0.04880597035363316,0.042822512029856444
1761475477697930500,9.548930419921875,-0.07453472424149513,0.038458033210039134,0.07209595278725027
1761475477707907600,9.558907470703126,-0.019376900643110276,0.020573490016534923,0.07483852949365973
1761475477717885700,9.5688857421875,0.013593056544661522,-0.0031517420291900635,0.06065649407990276
1761475477727862500,9.578862548828125,-0.010892565414309502,-0.01905088355913758,0.05170892525352537
1761475477737839600,9.588839599609376,-0.01735971560180187,0.0011212591148912906,0.03753836108185351
1761475477747817500,9.5988173828125,-0.014316694644093513,0.0008296557571738957,0.04458294583112001
1761475477757794600,9.608794677734375,0.0020469956576824187,0.002969736525788903,0.02119476372003555
1761475477767771600,9.618771728515625,0.036384149545431135,-0.003239858704060316,0.02406111293658614
1761475477777749500,9.62874951171875,0.05669336260259151,-0.019646730560436844,0.008020224848389625
1761475477787726600,9.6387265625,0.07897533703744411,-0.014910203557834028,0.009911226226761936
1761475477797703400,9.648703369140625,0.0747971745699644,-0.0010830459963530302,0.0051397740412503475
1761475477807681500,9.658681640625,0.08706628903448581,0.0068740504879504435,0.019973405231535433
1761475477817658600,9.66865869140625,0.09944587813615799,0.0061263739258050915,0.028199893241748212
1761475477827635500,9.678635498046875,0.08537877433896064,0.018682123311981557,0.03993300113342702
1761475477837613600,9.688613525390625,0.07491232538223266,0.014842472083866595,0.04123874996975064
1761475477847590700,9.698590576171876,0.08872457763552666,0.01125285009406507,0.020729922687262297
1761475477857568500,9.708568603515625,0.09655424834787844,-0.005951674946025013,0.01697327356748283
1761475477867545600,9.718545654296875,0.07582359500825404,-0.005225479563325643,0.014540931854024528
1761475477877522700,9.728522705078126,0.04344283588528633,0.01743088114187121,0.024586232789233324
1761475477887500500,9.73850048828125,-0.0035860417932271956,0.04414148567393422,0.04326002666428685
1761475477897477600,9.7484775390625,-0.05276537550389766,0.05374927197471261,0.027783713656291363
1761475477907454700,9.758454833984375,-0.08010229524075985,0.06608144173808396,0.024467063388973472
1761475477917432600,9.7684326171875,-0.0510556489765644,0.04149140955656767,0.008987243249639868
1761475477927409700,9.77840966796875,-0.027808628901839254,0.01156973402351141,0.013424787305667995
1761475477937386500,9.788386474609375,-0.019179916766285894,-0.00535568181425333,0.010547916695103049
1761475477947364600,9.798364501953126,-0.037570728981494904,-0.003142316613718867,0.016656316572800277
1761475477957341400,9.808341552734374,-0.05549100107550621,0.0004696633383631706,-0.00347724765650928
1761475477967318500,9.818318603515625,-0.04886895258724689,0.0006183510940521956,0.00009023556672036647
1761475477977296600,9.828296630859375,-0.02239128002822399,0.02121587957330048,0.006317220322787761
1761475477987273500,9.8382734375,0.03602583762705326,0.027399244383350015,0.03686806060485542
1761475477997250600,9.84825048828125,0.08835340623557567,0.019597046199813485,0.054455374417454
1761475478007228700,9.858228759765625,0.11480243722200394,-0.023847324055433272,0.06478409540392457
1761475478017205500,9.86820556640625,0.11134615928828716,-0.024678733378276228,0.0493773405008018
1761475478027183600,9.87818359375,0.023996961659193038,-0.018505889962241052,0.010905863287299871
1761475478037160700,9.88816064453125,-0.07157061373889446,0.008081599646806716,-0.017599661837518214
1761475478047137500,9.898137451171875,-0.09711129770874977,0.0331697906088084,-0.008796031526476145
1761475478057115600,9.90811572265625,-0.05147241308391094,0.020838059236854313,0.01625971847064793
1761475478067092500,9.918092529296874,-0.015265373671054839,0.000858881851658225,0.04213979046270251
1761475478077069600,9.928069580078125,0.008743862947821616,-0.006284121770784259,0.0350060661252588
1761475478087047700,9.938047607421876,0.0016565350353717804,-0.0013498071737587452,0.03134162533357739
1761475478097024500,9.9480244140625,0.011219313150644302,0.013140125145390629,0.033807138664275406
1761475478107001600,9.958001708984375,0.018622282883524893,0.010453735605627297,0.04624649512916803
1761475478116979700,9.967979736328125,-0.015775076758861542,0.016643018699809907,0.055812999571487304
1761475478126956500,9.97795654296875,-0.023797639694809913,0.044972821931540966,0.0415348103068769
1761475478136933600,9.98793359375,-0.01993862617909908,0.04396459473706782,0.0403702965721488
1761475478146911700,9.997911865234375,-0.009950900650024413,0.028779592825844882,0.03491173890531063
1761475478156888600,10.007888671875,-0.002899228572845459,0.015531623391807078,0.044656668654456735
1761475478166865700,10.01786572265625,0.02997428250312805,0.016234657094627618,0.06684570410884916
1761475478176843500,10.027843505859375,0.08085983560979366,0.026505510414019225,0.08449431965462863
1761475478186820600,10.037820556640625,0.09564239419996738,0.032016090529039504,0.12649967008270321
1761475478196797700,10.047797607421876,0.06451835713982582,0.02220138347931206,0.14221775595732034
1761475478206775600,10.057775634765624,0.028804654201865194,0.012214900059252977,0.06107815355807542
1761475478216752600,10.067752685546875,-0.002268529453873634,0.024273878904432056,0.0035632454395294185
1761475478226729700,10.077729736328125,-0.0344902986228466,0.009352715561166404,-0.018981690780445933
1761475478236707300,10.087707275390626,-0.023064649245142937,0.008442834174633025,0.02179192589558661
1761475478246684700,10.0976845703125,0.00803308432996273,0.032711013990640636,0.06253602421618998
1761475478256662500,10.10766259765625,0.04258709583878517,0.046065804800018664,0.10353475488498806
1761475478266639400,10.117639404296876,0.03445639635324478,0.08027721341624855,0.1290169136006385
1761475478276616400,10.127616455078124,-0.01591711557805538,0.0905679404798895,0.11239639899358153
1761475478286594600,10.137594482421875,-0.06146130765676498,0.07367759595550596,0.06533164628408848
1761475478296571400,10.1475712890625,-0.07330722827315331,0.08199168918393551,0.016855565471947193
1761475478306548500,10.157548583984376,-0.08202361869215964,0.04657024719081819,-0.026853154807910323
1761475478316526600,10.167526611328125,0.0011994389176368714,-0.019985387930274007,-0.0006359598159790038
1761475478326503400,10.17750341796875,-0.00609071809053421,-0.029477438896894453,0.002900836008042097
1761475478336480500,10.18748046875,-0.07802373540103436,0.06135200206339359,-0.005508315092697739
1761475478346458400,10.197458251953124,-0.04357610687613487,0.01689626280851662,0.022709771392866968
1761475478356435500,10.207435546875,0.01860591627061367,0.03289820712581277,0.016097148320078847
1761475478366412500,10.21741259765625,0.10329495477974414,0.030857129752263426,0.025584157785400748
1761475478376390400,10.227390380859376,0.11951660626232623,0.00672368223182857,0.05910933770313859
1761475478386367500,10.237367431640624,0.1364449447095394,0.006580182107910513,0.03906374401822686
1761475478396344300,10.24734423828125,0.12015198155641556,0.008989362141489982,0.053137642882391804
1761475478406322400,10.257322509765626,0.08648527427613735,0.01879354779720306,0.0634017011348158
1761475478416299500,10.267299560546874,0.0879167683839798,0.0022382073808461427,0.06737761902846395
1761475478426276400,10.2772763671875,0.07934475487172603,0.005482376933842897,0.0513074317805469
1761475478436254500,10.28725439453125,0.06528875699043274,0.006137187580764293,0.0716783118970692
1761475478446231600,10.2972314453125,0.03603635902106762,0.02175736603885889,0.05328837646469473
1761475478456208400,10.30720849609375,0.02325754146873951,0.03862542566619813,0.08591229669377207
1761475478466186500,10.3171865234375,0.026680501654744147,0.0297100055437535,0.13604352430179714
1761475478476163600,10.32716357421875,-0.009440613040328026,0.053734951188415286,0.1391446321222931
1761475478486141400,10.337141357421874,-0.0777513482004404,0.0853028595585376,0.11107274917438625
1761475478496118500,10.347118408203125,-0.12691899147331714,0.08451083239801227,0.08020692465901375
1761475478506095600,10.357095703125,-0.1488765562593937,0.09262056216076016,0.06908807620815932
1761475478516073500,10.367073486328126,-0.13256664197146892,0.09591785014048218,0.0623505115814507
1761475478526050600,10.377050537109374,-0.06466214952468871,0.0807560829743743,0.06265190568082034
1761475478536027400,10.38702734375,0.012828501912951469,0.06646167322732507,0.08074095847047864
1761475478546005500,10.397005615234375,0.00936287162899971,-0.004678367074579,0.1338930682696402
1761475478555982600,10.406982666015624,-0.018110241708159447,0.03338146059811115,0.05673259863443672
1761475478565959400,10.41695947265625,-0.053390229403972624,0.07389847216457128,0.004070025917887687
1761475478575937500,10.4269375,-0.08881167139708995,0.050768575663492084,-0.019596827004104853
1761475478585914600,10.43691455078125,-0.08371054886579513,0.03683160105198621,-0.009746756380051375
1761475478595891500,10.446891357421874,-0.04180266746282577,0.03800305598415434,-0.011725801368057728
1761475478605869600,10.45686962890625,-0.025778584378957747,0.031118045710772275,-0.008521160107851028
1761475478615846700,10.4668466796875,-0.006909048736095428,0.007891410836949945,0.007431757435947656
1761475478625823500,10.476823486328126,0.008079846081137657,-0.008945376869291066,0.01938712977617979
1761475478635801600,10.486801513671875,0.025948095726966856,0.002363587326183915,-0.015969941743835807
1761475478645778400,10.4967783203125,0.017502923464775083,-0.009491320314258336,-0.005547258863598108
1761475478655755500,10.506755615234376,0.013992284995317458,0.004341974727064371,-0.003138078830018639
1761475478665733600,10.516733642578124,0.005135609322786331,-0.006185118375718593,0.016365516932681203
1761475478675710500,10.52671044921875,-0.008750877210497856,-0.005622150730714201,0.0029550504133105276
1761475478685687600,10.5366875,-0.029569793355464932,-0.025522636856511235,-0.02493007779084146
1761475478695665700,10.546665771484374,-0.03590367255210876,-0.0117438484814018,-0.03220342979468405
1761475478705642500,10.556642578125,-0.007319967624545097,0.03344327378794551,0.02355235969685018
1761475478715619600,10.56661962890625,0.01914192284345627,0.05687829071544111,0.06851268747299909
1761475478725597700,10.57659765625,0.01606324605047703,0.022312807964533565,0.0951389016572386
1761475478735574500,10.586574462890624,0.026010055047273634,0.03398760979771614,0.08750709160454571
1761475478745552600,10.596552734375,0.015216273832321166,0.01638115289323032,0.041402489164099096
1761475478755529700,10.60652978515625,-0.004303250151872635,-0.008679930866137147,-0.013532193202897905
1761475478765506600,10.616506591796876,-0.013667875346541404,0.03762655082195997,-0.018499241025745867
1761475478775484700,10.626484619140625,0.016177812340855597,0.00571786619015038,-0.024103929165005682
1761475478785461500,10.63646142578125,-0.002269113975763321,-0.042519948886707425,0.005519567139074206
1761475478795438600,10.6464384765625,0.1030436103671789,0.009704889999702572,-0.07995791833400726
1761475478805416700,10.656416748046874,0.1521960560709238,-0.059412777629122136,-0.04828004678338766
1761475478815393500,10.6663935546875,0.042291912284493444,-0.1085940841011703,0.16465707637835292
1761475478825370600,10.67637060546875,-0.011035188755393027,0.04180456715896726,0.1860301923399791
1761475478835348500,10.686348388671876,-0.028303718942403792,0.15214958658069372,0.26563034674488006
1761475478845325600,10.69632568359375,-0.0492868857383728,0.16417933933138845,0.14371679887603966
1761475478855302700,10.706302734375,-0.10236848758459091,0.06021481472700834,0.11692892785668373
1761475478865280500,10.716280517578125,-0.10343290194571017,0.12547244592681525,-0.003501395717076957
1761475478875257600,10.726257568359374,-0.10444178672730922,0.0983699194677174,0.034988347805477674
1761475478885234700,10.736234619140625,-0.13844634765982627,0.11347688770666718,0.12553590308446436
1761475478895212500,10.746212646484375,-0.10683423482179641,0.15383432479724288,0.14903835922498254
1761475478905189600,10.756189697265626,-0.040224458360672,0.15075769383087753,0.17455186292696742
1761475478915167000,10.7661669921875,0.027613983112573622,0.1141493801407516,0.14442465488445014
1761475478925144800,10.776144775390625,0.06715162825286387,0.06627338411360979,0.13547796284090727
1761475478935122000,10.786121826171875,0.13327508250176906,0.03978329046443105,0.12868592808060347
1761475478945098800,10.7960986328125,0.2658756267428398,0.027698811851814387,0.14109799467977135
1761475478955076900,10.806076904296875,0.39155601633191106,0.007685951392725109,0.16163820348121224
1761475478965053700,10.8160537109375,0.45177229236364363,-0.0010041355412453413,0.17253255899380893
1761475478975030800,10.82603076171875,0.4104074317961931,-0.026776801636070012,0.10873510000705719
1761475478985009000,10.8360087890625,0.28852643449008464,-0.025254049048200247,-0.01492189399562776
1761475478994985700,10.84598583984375,0.11003507668972015,0.01532937881797552,-0.11922328587155788
1761475479004963800,10.8559638671875,-0.08442658818066119,0.03247625538669526,-0.14567827167473732
1761475479014941000,10.86594091796875,-0.11413374418020247,0.027268822936713694,-0.12478168718367814
1761475479024917800,10.875917724609375,-0.0982125369489193,0.01754069819189608,-0.11895754760745912
1761475479034896000,10.885895751953125,-0.055126843938231467,-0.01261734338030219,-0.08979680997692048
1761475479044873000,10.895873046875,-0.04465279619693756,-0.02809672512821853,0.0026830650715157387
1761475479054849800,10.905849853515624,-0.02849602664411068,-0.005901771389693021,0.057564044489897784
1761475479064828000,10.915827880859375,-0.09859481426477432,0.00722169488184154,0.044425819040648636
1761475479074805000,10.925804931640625,-0.177802206492424,-0.0285022371891886,-0.033884222488477826
1761475479084781800,10.93578173828125,-0.29249124646782876,-0.06706628805696964,-0.11835837613791227
1761475479094760000,10.945760009765625,-0.3494131571292877,-0.05627097247205674,-0.18622892978247255
1761475479104736800,10.95573681640625,-0.3443465213894844,-0.07562405384816229,-0.1996062246846035
1761475479114713900,10.9657138671875,-0.2652215467482805,-0.10751089197434484,-0.15039583824854344
1761475479124692000,10.97569189453125,-0.2016355020225048,-0.1142095858953893,-0.13785254648514092
1761475479134668800,10.985668701171875,-0.18442659306824205,-0.1370640264559537,-0.1320176663191989
1761475479144646000,10.99564599609375,-0.16808043842315673,-0.1126635254971683,-0.11456197952963411
1761475479154624000,11.0056240234375,-0.21018179657161234,-0.06888283595964312,-0.1316902609957382
1761475479164600800,11.015600830078125,-0.21054887631833552,-0.02937865469753742,-0.12658146661464123
1761475479174578000,11.025577880859375,-0.17123101140856742,-0.022308277919888497,-0.10615991575680672
1761475479184556000,11.03555615234375,-0.0360632470279932,0.003291954217478633,0.021272906990163026
1761475479194532900,11.045532958984374,0.12818097423315047,0.03184372963681817,0.10825685150343924
1761475479204510000,11.055510009765625,0.2686123582303524,0.039851679525524375,0.17880316369589416
1761475479214487800,11.06548779296875,0.29106150592565533,0.060288318354636425,0.21818371857833116
1761475479224465000,11.07546484375,0.22300912944078444,0.07975384712927043,0.16029957528859376
1761475479234442000,11.08544189453125,0.16595160970091818,0.11679207666926085,0.07389949507787823
1761475479244419800,11.095419921875,0.1565051514416933,0.12135244338735937,0.06184734783228486
1761475479254397000,11.10539697265625,0.1721943034827709,0.10177541706226766,0.12508271595686674
1761475479264375000,11.115375,0.18499883999824523,0.08358056581057607,0.145933926936239
1761475479274351900,11.125351806640625,0.10137304680645465,0.07987126296386123,0.09850739170964806
1761475479284329000,11.135328857421875,-0.03421849594414234,0.09469444582536816,-0.022485022726282475
1761475479294307000,11.14530712890625,-0.15073299778103827,0.12017192836590111,-0.11157609558664261
1761475479304284000,11.155283935546874,-0.20619535728394983,0.10710399167388678,-0.0999348306968808
1761475479314261000,11.165260986328125,-0.18223931215703487,0.15802191268019378,0.05138919177986681
1761475479324239000,11.175239013671876,-0.08064122442305087,0.182571028329432,0.24287490957938132
1761475479334216000,11.1852158203125,0.05206278019249439,0.15984700921550393,0.3373223949063569
1761475479344193000,11.195193115234375,0.09220715905427933,0.10060805378332734,0.21564247313030063
1761475479354171000,11.2051708984375,0.04954524441361427,0.06818959299847484,0.05482603436075151
1761475479364148000,11.21514794921875,-0.014925181931257248,0.007007686804980039,-0.06145151691511273
1761475479374125000,11.225125,0.015126841983199118,-0.009883607567474246,-0.06938377121910452
1761475479384103000,11.23510302734375,0.1320136842638254,-0.016218728873133657,0.0033175270501524206
1761475479394080000,11.245080078125,0.36457799303531646,-0.05394925152622163,0.14798800992183386
1761475479404057000,11.25505712890625,0.21867782223820684,0.011832038221508264,0.21303820891603825
1761475479414035000,11.265034912109375,0.14924071339666842,0.009863295431807636,0.2667182881120592
1761475479424012000,11.275011962890625,0.052885202491283416,-0.031425358094275,0.26663886620029803
1761475479433988900,11.28498876953125,-0.05940086799561977,0.06572882890813052,-0.12128683080524205
1761475479443967000,11.294967041015624,-0.12323767261207103,-0.007375131877884268,-0.18681524177044628
1761475479453944000,11.304944091796875,-0.065277066552639,0.04570062474943697,-0.15859562091492116
1761475479463921000,11.3149208984375,-0.0452478394806385,0.1393004802711308,-0.13838080814294515
