time,seconds_elapsed,z,y,x
1761476453914791000,0.086791015625,0.07874895632266998,0.04511207342147827,-0.020486261695623398
1761476453924824000,0.096823974609375,0.07599978148937225,0.05550079792737961,-0.01941673643887043
1761476453934857700,0.106857666015625,0.07929928600788116,0.06796842068433762,-0.02278183028101921
1761476453944891000,0.116890869140625,0.08494758605957031,0.06217098608613014,-0.024719279259443283
1761476453954923800,0.126923828125,0.09095869958400726,0.03496397286653519,-0.040843334048986435
1761476453964958000,0.1369580078125,0.09334754943847656,0.004176765214651823,-0.0510038286447525
1761476453974990800,0.146990966796875,0.08763761073350906,-0.005295604467391968,-0.04370098561048508
1761476453985024000,0.15702392578125,0.07945584505796432,0.000815284438431263,-0.018703758716583252
1761476453995057000,0.167056884765625,0.06540518254041672,0.00020074239000678062,0.003890909254550934
1761476454005091000,0.177091064453125,0.05005178600549698,0.00044122617691755295,0.01988319307565689
1761476454015124000,0.1871240234375,0.04335560277104378,-0.008099889382719994,0.02827369049191475
1761476454025156900,0.197156982421875,0.048690181225538254,-0.014881094917654991,0.02749178558588028
1761476454035189800,0.207189697265625,0.05087391659617424,-0.013362687081098557,0.020571958273649216
1761476454045224000,0.217223876953125,0.04661845043301582,-0.017747050151228905,0.013487151823937893
1761476454055256800,0.2272568359375,0.036209143698215485,-0.01563325896859169,0.0012919846922159195
1761476454065290000,0.2372900390625,0.02588406763970852,-0.0071572172455489635,-0.005370978266000748
1761476454075323000,0.247322998046875,0.021516453474760056,0.008951470255851746,-0.013544131070375443
1761476454085357000,0.257357177734375,0.016354981809854507,0.017055468633770943,-0.019862746819853783
1761476454095390000,0.267389892578125,0.010617096908390522,0.03026374615728855,-0.02930784597992897
1761476454105422800,0.2774228515625,0.0031597139313817024,0.03783005475997925,-0.032459963113069534
1761476454115456800,0.287456787109375,-0.006164774764329195,0.045811038464307785,-0.030618133023381233
1761476454125490000,0.297489990234375,-0.01592499390244484,0.051895029842853546,-0.02108374983072281
1761476454135522800,0.307522705078125,-0.01926010474562645,0.06104469671845436,-0.004347877576947212
1761476454145556000,0.317555908203125,-0.015903454273939133,0.058967430144548416,-0.0024074986577033997
1761476454155590000,0.32758984375,-0.007721382193267345,0.041485585272312164,-0.012554902583360672
1761476454165623000,0.337623046875,0.0014074016362428665,0.026159359142184258,-0.02307784929871559
1761476454175656000,0.347656005859375,0.007776863873004913,0.018922382965683937,-0.026116667315363884
1761476454185689000,0.357689208984375,0.014108262956142426,0.01243731938302517,-0.021328836679458618
1761476454195722800,0.36772265625,0.015359148383140564,0.007112062536180019,-0.009989628568291664
1761476454205756000,0.377755859375,0.012685602530837059,-0.002733910456299782,0.00495736300945282
1761476454215788800,0.387788818359375,0.010433187708258629,-0.004655637312680483,0.015871088951826096
1761476454225823000,0.397822998046875,0.011022545397281647,0.0072851781733334064,0.027156498283147812
1761476454235856000,0.40785595703125,0.012513324618339539,0.0157613605260849,0.02650761790573597
1761476454245889000,0.417888916015625,0.012394547462463379,0.011448638513684273,0.005517113953828812
1761476454255922000,0.427921875,0.016844023019075394,0.0042151398956775665,-0.011884932406246662
1761476454265955800,0.437955810546875,0.015727628022432327,-0.004720564465969801,-0.02953130379319191
1761476454275988700,0.44798876953125,0.019400380551815033,-0.01147998496890068,-0.03086695447564125
1761476454286022000,0.45802197265625,0.016704196110367775,-0.018965065479278564,-0.022462286055088043
1761476454296056000,0.46805615234375,0.013507722876966,-0.017324093729257584,0.0005603209137916565
1761476454306089000,0.4780888671875,0.012152708135545254,-0.011312806978821754,0.01996171660721302
1761476454316121900,0.488121826171875,0.01296347938477993,-0.007715738378465176,0.037621866911649704
1761476454326155000,0.498155029296875,0.014154711738228798,0.006526581011712551,0.044065918773412704
1761476454336189000,0.50818896484375,0.02266222983598709,0.006990316789597273,0.032314784824848175
1761476454346221800,0.518221923828125,0.028269778937101364,-0.0006596134044229984,0.013344823382794857
1761476454356254700,0.528254638671875,0.03472891449928284,-0.007252428214997053,-0.0025903331115841866
1761476454366289000,0.538288818359375,0.04369311407208443,-0.011132655665278435,-0.013561757281422615
1761476454376322000,0.548322021484375,0.051596108824014664,-0.013844046741724014,-0.018926851451396942
1761476454386355000,0.55835498046875,0.05704307183623314,-0.008877784013748169,-0.013471098616719246
1761476454396387800,0.568387939453125,0.0652211457490921,-0.004377608187496662,0.0006791623309254646
1761476454406422000,0.578422119140625,0.07598856836557388,-0.0015796911902725697,0.005820661783218384
1761476454416455000,0.588454833984375,0.09264197200536728,-0.0032776594161987305,0.004377894103527069
1761476454426487800,0.59848779296875,0.10996663570404053,-0.002586835063993931,-0.005417744629085064
1761476454436522000,0.60852197265625,0.12124121189117432,-0.003895699977874756,-0.01903155818581581
1761476454446555000,0.618554931640625,0.13656291365623474,-0.006936763413250446,-0.030137207359075546
1761476454456588000,0.628588134765625,0.1457245647907257,-0.020122317597270012,-0.041866764426231384
1761476454466621000,0.638620849609375,0.1504567414522171,-0.03352440893650055,-0.044871874153614044
1761476454476655000,0.648655029296875,0.155517116189003,-0.04429832845926285,-0.0331953801214695
1761476454486688000,0.65868798828125,0.15551552176475525,-0.03788330778479576,-0.016771666705608368
1761476454496721200,0.66872119140625,0.14948594570159912,-0.024427305907011032,0.006724666804075241
1761476454506754800,0.6787548828125,0.1398535519838333,0.0017795315943658352,0.024548670276999474
1761476454516788000,0.6887880859375,0.1287035495042801,0.023509398102760315,0.034290656447410583
1761476454526820900,0.69882080078125,0.12240944057703018,0.024752827361226082,0.018731404095888138
1761476454536854000,0.70885400390625,0.12517794966697693,0.01785210520029068,-0.012797163799405098
1761476454546888000,0.718887939453125,0.1261681169271469,0.012308204546570778,-0.04188580811023712
1761476454556921000,0.728921142578125,0.13340064883232117,0.004647764377295971,-0.055974796414375305
1761476454566954000,0.7389541015625,0.13471117615699768,0.009103232994675636,-0.05479554831981659
1761476454576988000,0.74898779296875,0.13371479511260986,0.006818794179707766,-0.04331173002719879
1761476454587020800,0.759020751953125,0.13537979125976562,0.012986408546566963,-0.027269113808870316
1761476454597054000,0.769053955078125,0.14039358496665955,0.018342915922403336,-0.008509354665875435
1761476454607087900,0.779087890625,0.143984854221344,0.01517961360514164,-0.002072760835289955
1761476454617121000,0.78912109375,0.15614072978496552,0.003623839933425188,-0.007185618858784437
1761476454627149600,0.799149658203125,0.16007715463638306,-0.004309450276196003,-0.013855772092938423
1761476454637182500,0.809182373046875,0.16705171763896942,-0.008444428443908691,-0.019185369834303856
1761476454647216600,0.819216552734375,0.17154181003570557,-0.010911580175161362,-0.01783115230500698
1761476454657249500,0.82924951171875,0.17426376044750214,-0.013808762654662132,-0.01929481327533722
1761476454667282700,0.83928271484375,0.1752467304468155,-0.01691533997654915,-0.012690174393355846
1761476454677316600,0.849316650390625,0.17078110575675964,-0.017289722338318825,-0.018363334238529205
1761476454687349500,0.859349609375,0.16831661760807037,-0.00949811190366745,-0.013541946187615395
1761476454697382400,0.86938232421875,0.17227338254451752,0.002187211997807026,-0.01409307774156332
1761476454707416600,0.87941650390625,0.16694065928459167,0.005422686226665974,-0.01785372756421566
1761476454717449700,0.88944970703125,0.16395755112171173,0.005711166653782129,-0.023898504674434662
1761476454727482600,0.899482666015625,0.16239507496356964,0.010392737574875355,-0.031737521290779114
1761476454737516500,0.9095166015625,0.1567077487707138,0.015089727938175201,-0.03547394275665283
1761476454747549400,0.919549560546875,0.1557556688785553,0.02320145070552826,-0.029972383752465248
1761476454757582600,0.92958251953125,0.1488599330186844,0.033193930983543396,-0.023900318890810013
1761476454767615500,0.939615478515625,0.14910948276519775,0.03548850864171982,-0.020845405757427216
1761476454777649700,0.949649658203125,0.14212720096111298,0.02597825974225998,-0.02425949089229107
1761476454787682600,0.9596826171875,0.13804590702056885,0.01804816536605358,-0.025899197906255722
1761476454797715700,0.9697158203125,0.14093996584415436,0.009599952027201653,-0.024496011435985565
1761476454807749600,0.97974951171875,0.1425517052412033,-0.0037342291325330734,-0.02037264034152031
1761476454817782500,0.989782470703125,0.14333723485469818,-0.007460464723408222,-0.0072269439697265625
1761476454827815400,0.9998154296875,0.1428898274898529,-0.006758987903594971,0.008798095397651196
1761476454837849600,1.009849609375,0.13956336677074432,-0.0032089934684336185,0.019704053178429604
1761476454847882500,1.019882568359375,0.13397738337516785,0.0011082570999860764,0.02377256564795971
1761476454857915600,1.02991552734375,0.12668155133724213,-0.005858573131263256,0.018820103257894516
1761476454867949600,1.039949462890625,0.11640921235084534,-0.015502145513892174,0.012387770228087902
1761476454877982700,1.049982666015625,0.11220642179250717,-0.027487851679325104,0.013646193780004978
1761476454888015600,1.060015625,0.11652633547782898,-0.02392374351620674,0.019117124378681183
1761476454898049500,1.070049560546875,0.11717242747545242,-0.016185365617275238,0.023059992119669914
1761476454908082400,1.08008251953125,0.12080764025449753,-0.018091656267642975,0.021035192534327507
1761476454918115600,1.090115478515625,0.11804480850696564,-0.019125230610370636,0.016116423532366753
1761476454928149500,1.1001494140625,0.11876466870307922,-0.018380075693130493,0.005970578640699387
1761476454938182700,1.1101826171875,0.12045380473136902,-0.020943311974406242,0.0033442331477999687
1761476454948215600,1.120215576171875,0.11550697684288025,-0.026670170947909355,-0.003922201693058014
1761476454958249500,1.13024951171875,0.10688323527574539,-0.03147779777646065,-0.006106643471866846
1761476454968282400,1.140282470703125,0.09730891138315201,-0.04551452025771141,-0.005448576528578997
1761476454978315500,1.1503154296875,0.08527158200740814,-0.05620252341032028,-0.0035049384459853172
1761476454988349400,1.160349365234375,0.07769276201725006,-0.055142853409051895,0.0032733390107750893
1761476454998382600,1.170382568359375,0.08174789696931839,-0.05064190924167633,0.003468792885541916
1761476455008415500,1.18041552734375,0.07858752459287643,-0.05034922435879707,0.01673905923962593
1761476455018449700,1.19044970703125,0.06261424720287323,-0.044863417744636536,0.029912374913692474
1761476455028482600,1.200482666015625,0.047740232199430466,-0.038170360028743744,0.03550314903259277
1761476455038515500,1.210515380859375,0.034303873777389526,-0.042665205895900726,0.02010355517268181
1761476455048549600,1.220549560546875,0.023899704217910767,-0.0437091663479805,0.0025879452005028725
1761476455058582500,1.23058251953125,0.011094558984041214,-0.050107941031455994,-0.014688459224998951
1761476455068615400,1.240615478515625,-0.0003642244264483452,-0.047534793615341187,-0.01578807830810547
1761476455078649600,1.250649658203125,-0.011118985712528229,-0.04789412394165993,-0.013588509522378445
1761476455088682800,1.260682861328125,-0.028307028114795685,-0.049868326634168625,-0.00411298219114542
1761476455098715600,1.270715576171875,-0.04653396084904671,-0.05268041044473648,0.002807670272886753
1761476455108749600,1.28074951171875,-0.06260906904935837,-0.04390502721071243,0.011795839294791222
1761476455118782500,1.290782470703125,-0.0763498917222023,-0.03279566019773483,0.021823598071932793
1761476455128815600,1.300815673828125,-0.08534152060747147,-0.025665581226348877,0.016536690294742584
1761476455138849500,1.310849609375,-0.092166006565094,-0.028496159240603447,0.00379928108304739
1761476455148882700,1.320882568359375,-0.09221287071704865,-0.03555327281355858,-0.012630291283130646
1761476455158915600,1.33091552734375,-0.08949027955532074,-0.04030817747116089,-0.01859181746840477
1761476455168949500,1.340949462890625,-0.09081599861383438,-0.038120124489068985,-0.011749889701604843
1761476455178982400,1.350982421875,-0.09042467176914215,-0.023395907133817673,0.008702438324689865
1761476455189015600,1.361015625,-0.08978577703237534,-0.013962725177407265,0.021474959328770638
1761476455199049500,1.371049560546875,-0.09068507701158524,-0.011615030467510223,0.026483159512281418
1761476455209082600,1.38108251953125,-0.08353981375694275,-0.01111568883061409,0.023842372000217438
1761476455219115500,1.391115478515625,-0.07391265034675598,-0.011812354438006878,0.015627138316631317
1761476455229149700,1.401149658203125,-0.06859379261732101,-0.0157165490090847,0.003613886423408985
1761476455239182600,1.4111826171875,-0.06749144196510315,-0.0197615809738636,-0.012322761118412018
1761476455249215500,1.421215576171875,-0.06956551223993301,-0.029989182949066162,-0.01528552733361721
1761476455259249400,1.43124951171875,-0.0745253935456276,-0.035060569643974304,-0.005770167801529169
1761476455269282600,1.441282470703125,-0.0715373307466507,-0.027779487892985344,0.01854768767952919
1761476455279315500,1.4513154296875,-0.0692116841673851,-0.012738527730107307,0.04232212156057358
1761476455289349600,1.461349609375,-0.06924524158239365,-0.00817972794175148,0.04690888151526451
1761476455299382500,1.471382568359375,-0.07420656085014343,-0.0046535697765648365,0.034781064838171005
1761476455309415700,1.481415771484375,-0.0791962593793869,-0.005917505826801062,0.007679670117795467
1761476455319449600,1.49144970703125,-0.08276702463626862,0.00009617768228054047,-0.011669259518384933
1761476455329482500,1.501482421875,-0.08813516050577164,0.0121267419308424,-0.023701421916484833
1761476455339515400,1.511515380859375,-0.0901692733168602,0.0243519339710474,-0.025588903576135635
1761476455349549600,1.521549560546875,-0.09716460108757019,0.03960438817739487,-0.02291855216026306
1761476455359582700,1.531582763671875,-0.09944815933704376,0.04236261919140816,-0.022564314305782318
1761476455369615600,1.54161572265625,-0.10454811155796051,0.028742412105202675,-0.026895945891737938
1761476455379649500,1.5516494140625,-0.10372264683246613,0.025224212557077408,-0.02969157136976719
1761476455389682400,1.561682373046875,-0.10385234653949738,0.014808855019509792,-0.02193192020058632
1761476455399715600,1.571715576171875,-0.10599511861801147,0.013420794159173965,-0.008244385942816734
1761476455409749500,1.58174951171875,-0.10719168186187744,0.011747796088457108,0.0048967162147164345
1761476455419782700,1.59178271484375,-0.11282031238079071,0.005688143894076347,0.005516208708286285
1761476455429815600,1.601815673828125,-0.111528679728508,-0.004306166898459196,0.003951068967580795
1761476455439849700,1.611849609375,-0.11567837744951248,-0.01466248370707035,0.0005574105307459831
1761476455449882600,1.621882568359375,-0.11689384281635284,-0.021140357479453087,-0.0047137844376266
1761476455459915500,1.63191552734375,-0.1133643090724945,-0.03085092455148697,-0.006358161568641663
1761476455469949400,1.641949462890625,-0.10969500243663788,-0.035042740404605865,-0.0014409013092517853
1761476455479982600,1.651982666015625,-0.1150386780500412,-0.0252496600151062,0.011976680718362331
1761476455490015500,1.662015380859375,-0.11933142691850662,-0.018935836851596832,0.01958373561501503
1761476455500049700,1.672049560546875,-0.12366768717765808,-0.011318361386656761,0.012355130165815353
1761476455510082600,1.68208251953125,-0.12803047895431519,-0.009574256837368011,0.0021941056475043297
1761476455520115700,1.69211572265625,-0.12546111643314362,-0.010622813366353512,-0.006466787774115801
1761476455530149400,1.7021494140625,-0.12173030525445938,-0.0005872240290045738,-0.0089762844145298
1761476455540182500,1.7121826171875,-0.1117052361369133,0.006758150178939104,-0.007855359464883804
1761476455550215400,1.72221533203125,-0.1032015010714531,0.013704473152756691,-0.003846770152449608
1761476455560249600,1.73224951171875,-0.0922716036438942,0.02029365487396717,0.0008703777566552162
1761476455570282500,1.742282470703125,-0.08290766179561615,0.024183202534914017,-0.00383010134100914
1761476455580315600,1.752315673828125,-0.07393847405910492,0.024942656978964806,-0.006199747323989868
1761476455590349300,1.762349365234375,-0.07100073993206024,0.026373039931058884,-0.012846730649471283
1761476455600382500,1.772382568359375,-0.06389661133289337,0.027308475226163864,-0.01988072507083416
1761476455610415400,1.782415283203125,-0.06221163272857666,0.02457740157842636,-0.02390369586646557
1761476455620449500,1.792449462890625,-0.057516954839229584,0.02155400812625885,-0.02185378223657608
1761476455630484000,1.80248388671875,-0.05269477143883705,0.01691451482474804,-0.02263755165040493
1761476455640516900,1.812516845703125,-0.047382090240716934,0.006372587289661169,-0.02114700898528099
1761476455650550800,1.82255078125,-0.047690484672784805,-0.000492775347083807,-0.009916191920638084
1761476455660583700,1.832583740234375,-0.04628400504589081,-0.0005204258486628532,0.0030981218442320824
1761476455670616800,1.842616943359375,-0.05100925266742706,-0.0024991543032228947,0.012331300415098667
1761476455680650800,1.852650634765625,-0.04702654480934143,-0.001312033273279667,0.01790916547179222
1761476455690684000,1.862683837890625,-0.05243968591094017,0.002248879289254546,0.010688803158700466
1761476455700716800,1.872716796875,-0.05320071429014206,0.011296643875539303,0.004060665145516396
1761476455710750700,1.882750732421875,-0.0540316179394722,0.02321562170982361,-0.009149146266281605
1761476455720783600,1.89278369140625,-0.05226945877075195,0.03583758324384689,-0.014740796759724617
1761476455730816800,1.902816650390625,-0.05744371563196182,0.04507768526673317,-0.025546040385961533
1761476455740850700,1.9128505859375,-0.05457234010100365,0.05221161991357803,-0.03288748860359192
1761476455750883800,1.9228837890625,-0.05003298446536064,0.05860640108585358,-0.04136832430958748
1761476455760916700,1.932916748046875,-0.036286599934101105,0.06613663583993912,-0.047975488007068634
1761476455770951000,1.942950927734375,-0.021587546914815903,0.06609482318162918,-0.05799590051174164
1761476455780983800,1.95298388671875,0.004822835326194763,0.06731144338846207,-0.07055673003196716
1761476455791016700,1.9630166015625,0.030572406947612762,0.07162176817655563,-0.07491286098957062
1761476455801051000,1.97305078125,0.04301363229751587,0.0798429474234581,-0.07568464428186417
1761476455811083800,1.983083740234375,0.05890657752752304,0.06467970460653305,-0.08188128471374512
1761476455821118000,1.993117919921875,0.06535149365663528,0.06089702248573303,-0.09093041718006134
1761476455831150800,2.00315087890625,0.07815969735383987,0.050756506621837616,-0.09188063442707062
1761476455841184000,2.01318408203125,0.10004375129938126,0.05358538404107094,-0.07701776921749115
1761476455851217700,2.0232177734375,0.10405846685171127,0.039742276072502136,-0.0524706095457077
1761476455861250800,2.033250732421875,0.11275066435337067,0.03112109936773777,-0.04308193922042847
1761476455871283700,2.04328369140625,0.11575789749622345,0.020752079784870148,-0.03496302664279938
1761476455881318000,2.05331787109375,0.12226980924606323,0.0016794954426586628,-0.030262358486652374
1761476455891350800,2.063350830078125,0.1373656690120697,-0.01339825801551342,-0.025997839868068695
1761476455901384000,2.073384033203125,0.14617975056171417,-0.025640737265348434,-0.020970895886421204
1761476455911417600,2.08341748046875,0.15446510910987854,-0.042252734303474426,-0.004861168563365936
1761476455921450800,2.09345068359375,0.152216836810112,-0.04391101747751236,0.012989684008061886
1761476455931483600,2.103483642578125,0.153450146317482,-0.04333151504397392,0.02881525084376335
1761476455941517800,2.113517822265625,0.1494276076555252,-0.04029550403356552,0.038194604218006134
1761476455951550700,2.12355078125,0.15445752441883087,-0.03689810633659363,0.03647606074810028
1761476455961583900,2.133583984375,0.15625983476638794,-0.03580133244395256,0.03413153067231178
1761476455971617800,2.14361767578125,0.1622961461544037,-0.03184787184000015,0.025064002722501755
1761476455981651000,2.15365087890625,0.17614537477493286,-0.029645634815096855,0.014827222563326359
1761476455991683800,2.163683837890625,0.18922150135040283,-0.03619115427136421,0.0008546812459826469
1761476456001717800,2.1737177734375,0.19825582206249237,-0.04888354241847992,-0.015405688434839249
1761476456011750700,2.183750732421875,0.21623481810092926,-0.055054619908332825,-0.022913405671715736
1761476456021783800,2.19378369140625,0.2254570722579956,-0.05850572884082794,-0.022635750472545624
1761476456031818000,2.20381787109375,0.2378455549478531,-0.05081665515899658,-0.011409194208681583
1761476456041851000,2.213850830078125,0.2526644468307495,-0.051667824387550354,-0.0013366369530558586
1761476456051883800,2.2238837890625,0.2612920105457306,-0.057577379047870636,0.013023126870393753
1761476456061917700,2.233917724609375,0.27641549706459045,-0.052555397152900696,0.02791691944003105
1761476456071950800,2.243950927734375,0.28962478041648865,-0.05107547715306282,0.03692133352160454
1761476456081983700,2.253983642578125,0.2964669466018677,-0.05811604857444763,0.03261638060212135
1761476456092018000,2.264017822265625,0.30245161056518555,-0.072163425385952,0.02388148009777069
1761476456102050800,2.27405078125,0.3059453070163727,-0.0673375353217125,0.023271525278687477
1761476456112084000,2.284083984375,0.31058958172798157,-0.06601127982139587,0.025445999577641487
1761476456122117600,2.29411767578125,0.31111449003219604,-0.06335066258907318,0.021944724023342133
1761476456132150800,2.30415087890625,0.30953124165534973,-0.0669161006808281,0.009794585406780243
1761476456142183700,2.31418359375,0.311533659696579,-0.06666947901248932,0.007852653041481972
1761476456152217900,2.3242177734375,0.3084148168563843,-0.06441910564899445,0.0055343713611364365
1761476456162250800,2.334250732421875,0.30355381965637207,-0.06898877024650574,0.00587177649140358
1761476456172284000,2.344283935546875,0.3016829490661621,-0.0701240748167038,0.0047228895127773285
1761476456182317800,2.35431787109375,0.2963763475418091,-0.0774429515004158,0.001554308459162712
1761476456192351000,2.36435107421875,0.28847846388816833,-0.09069137275218964,0.0042222635820508
1761476456202384000,2.3743837890625,0.2829294502735138,-0.08987392485141754,0.01310825813561678
1761476456212417800,2.384417724609375,0.2804220914840698,-0.09844344109296799,0.029188159853219986
1761476456222450700,2.39445068359375,0.2740354835987091,-0.10281363874673843,0.04194476082921028
1761476456232483800,2.40448388671875,0.27137258648872375,-0.10824115574359894,0.05011667311191559
1761476456242517800,2.414517822265625,0.2626076936721802,-0.12488867342472076,0.04967096447944641
1761476456252551000,2.424551025390625,0.24456478655338287,-0.15449343621730804,0.046667180955410004
1761476456262583800,2.434583740234375,0.22983524203300476,-0.170968160033226,0.046481773257255554
1761476456272617700,2.44461767578125,0.22204922139644623,-0.18200723826885223,0.044915035367012024
1761476456282650600,2.454650634765625,0.1980985850095749,-0.1841810792684555,0.05280629172921181
1761476456292683800,2.464683837890625,0.16754892468452454,-0.17237475514411926,0.06180111691355705
1761476456302717700,2.4747177734375,0.13361890614032745,-0.16121578216552734,0.07295533269643784
1761476456312750800,2.484750732421875,0.10899318754673004,-0.14753299951553345,0.0798044502735138
1761476456322783700,2.49478369140625,0.07933633774518967,-0.12992526590824127,0.08180207759141922
1761476456332818000,2.50481787109375,0.04568356275558472,-0.10474961251020432,0.0829448401927948
1761476456342850600,2.5148505859375,0.015911869704723358,-0.08020713925361633,0.07421085983514786
1761476456352883700,2.5248837890625,-0.006724733393639326,-0.05365808680653572,0.06578408181667328
1761476456362918000,2.53491796875,-0.017777662724256516,-0.027883972972631454,0.03960530459880829
1761476456372950800,2.54495068359375,-0.018664762377738953,-0.011227232404053211,0.02475178986787796
1761476456382983700,2.554983642578125,-0.010570882819592953,0.00818801112473011,0.013769179582595825
1761476456393017900,2.565017822265625,0.006056562997400761,0.02203511819243431,0.01337955892086029
1761476456403051000,2.575051025390625,0.022962765768170357,0.021694689989089966,0.023500675335526466
1761476456413084000,2.585083984375,0.03411315381526947,0.008652390912175179,0.04031587392091751
1761476456423117800,2.595117919921875,0.03391154482960701,-0.009773439727723598,0.05890243873000145
1761476456433150700,2.605150634765625,0.038099367171525955,-0.03163399547338486,0.07400044053792953
1761476456443185000,2.615184814453125,0.03023505210876465,-0.057089824229478836,0.07930305600166321
1761476456453217800,2.6252177734375,0.00800537969917059,-0.04373672977089882,0.06879981607198715
1761476456463251000,2.6352509765625,-0.019447345286607742,-0.006854419596493244,0.04873526096343994
1761476456473284600,2.64528466796875,-0.039384033530950546,0.019636042416095734,0.032285451889038086
1761476456483317800,2.65531787109375,-0.048112232238054276,0.030870990827679634,0.01726512797176838
1761476456493350700,2.6653505859375,-0.04018213972449303,0.023348359391093254,0.018582060933113098
1761476456503384800,2.675384765625,-0.017342742532491684,0.014426623471081257,0.029069066047668457
1761476456513417700,2.685417724609375,0.013898535631597042,0.0180882029235363,0.05091843754053116
1761476456523451000,2.695450927734375,0.031061537563800812,0.01705572009086609,0.07342460006475449
1761476456533484800,2.70548486328125,0.042025770992040634,0.007117069326341152,0.10203520208597183
1761476456543518000,2.71551806640625,0.03761914744973183,-0.004342304076999426,0.12264906615018845
1761476456553550800,2.72555078125,0.01849285699427128,-0.008791647851467133,0.13694758713245392
1761476456563584800,2.735584716796875,-0.003842014353722334,0.00007190834730863571,0.14682768285274506
1761476456573617700,2.74561767578125,-0.023606397211551666,0.023094937205314636,0.1413293182849884
1761476456583650800,2.75565087890625,-0.04056854918599129,0.05830894410610199,0.1226140484213829
1761476456593685000,2.76568505859375,-0.06315241754055023,0.08106058835983276,0.09709031134843826
1761476456603718000,2.7757177734375,-0.07883300632238388,0.08775387704372406,0.06554887443780899
1761476456613750800,2.785750732421875,-0.08721903711557388,0.07051017880439758,0.04447981342673302
1761476456623784700,2.79578466796875,-0.07515441626310349,0.05241077020764351,0.035067711025476456
1761476456633821700,2.80582177734375,-0.05736609548330307,0.06646586954593658,0.036722332239151
1761476456643854800,2.815854736328125,-0.04476580023765564,0.08724772930145264,0.048874154686927795
1761476456653888800,2.825888671875,-0.041917283087968826,0.09991665184497833,0.05866073817014694
1761476456663922000,2.835921875,-0.04803328588604927,0.11765531450510025,0.07258708029985428
1761476456673954800,2.845954833984375,-0.0536634735763073,0.14103494584560394,0.07367018610239029
1761476456683988700,2.85598876953125,-0.06372228264808655,0.1447480469942093,0.07287612557411194
1761476456694021600,2.866021728515625,-0.0681857317686081,0.11324845254421234,0.07277625799179077
1761476456704054800,2.8760546875,-0.06287497282028198,0.058529604226350784,0.07077894359827042
1761476456714089000,2.8860888671875,-0.055418383330106735,0.03709302097558975,0.0742514431476593
1761476456724121900,2.896121826171875,-0.047052327543497086,0.04194341227412224,0.07918623089790344
1761476456734154800,2.90615478515625,-0.04334653913974762,0.04967696592211723,0.08178174495697021
1761476456744188700,2.916188720703125,-0.03534817695617676,0.043324824422597885,0.07557138800621033
1761476456754221800,2.926221923828125,-0.02530806139111519,0.04491659626364708,0.056834183633327484
1761476456764254700,2.936254638671875,-0.013549882918596268,0.06355801969766617,0.029954712837934494
1761476456774289000,2.946288818359375,-0.012709921225905418,0.07865174859762192,0.004801157861948013
1761476456784321800,2.95632177734375,-0.01721358671784401,0.07067742198705673,-0.02379485033452511
1761476456794355000,2.96635498046875,-0.022978264838457108,0.04686397314071655,-0.04293099418282509
1761476456804388900,2.976388916015625,-0.021631866693496704,0.026204485446214676,-0.037395697087049484
1761476456814422000,2.986422119140625,-0.01026469562202692,0.0028533581644296646,-0.01678948849439621
1761476456824455000,2.996454833984375,0.015570088289678097,-0.02003699541091919,0.018635977059602737
1761476456834488800,3.00648876953125,0.03652117773890495,-0.047561563551425934,0.05026847496628761
1761476456844521700,3.016521728515625,0.05343872681260109,-0.06255646795034409,0.061482105404138565
1761476456854555000,3.026554931640625,0.042221758514642715,-0.05714092403650284,0.05836967006325722
1761476456864588800,3.0365888671875,0.019312307238578796,-0.03977004811167717,0.044192127883434296
1761476456874622000,3.0466220703125,-0.0014180047437548637,-0.01307771634310484,0.025424566119909286
1761476456884654800,3.05665478515625,-0.01793334260582924,0.018215002492070198,0.015490536577999592
1761476456894688800,3.066688720703125,-0.029660839587450027,0.04459920525550842,0.014666820876300335
1761476456904721700,3.0767216796875,-0.03830982372164726,0.042767785489559174,0.01543409377336502
1761476456914754800,3.0867548828125,-0.04443509504199028,0.05497331917285919,0.0022615669295191765
1761476456924788700,3.096788818359375,-0.05468479543924332,0.08215058594942093,-0.011131519451737404
1761476456934822000,3.10682177734375,-0.07335994392633438,0.09226100891828537,-0.016321487724781036
1761476456944854800,3.116854736328125,-0.09258157014846802,0.08792641013860703,-0.015204655937850475
1761476456954888700,3.126888671875,-0.1055825874209404,0.06570925563573837,-0.004355204291641712
1761476456964921600,3.136921630859375,-0.1018337607383728,0.04603784903883934,0.01828460767865181
1761476456974955800,3.146955810546875,-0.08737252652645111,0.05291119962930679,0.050624169409275055
1761476456984988700,3.15698876953125,-0.0784955844283104,0.06374362111091614,0.08231373876333237
1761476456995021800,3.167021728515625,-0.06544742733240128,0.06460408866405487,0.10678446292877197
1761476457005056000,3.177055908203125,-0.04912671446800232,0.05861841142177582,0.11449669301509857
1761476457015089000,3.1870888671875,-0.030128788203001022,0.03052232787013054,0.10970300436019897
1761476457025121800,3.197121826171875,-0.0037933122366666794,-0.007699705194681883,0.09255075454711914
1761476457035155700,3.20715576171875,0.009533679112792015,-0.03915882483124733,0.07454326003789902
1761476457045188900,3.21718896484375,0.02232508920133114,-0.05541064217686653,0.04834866523742676
1761476457055221800,3.2272216796875,0.01818200945854187,-0.04552631825208664,0.02964395098388195
1761476457065256000,3.237255859375,0.008868449367582798,-0.02221287041902542,0.019171511754393578
1761476457075288800,3.247288818359375,-0.004989576060324907,-0.0024708565324544907,0.01732274517416954
1761476457085322000,3.257322021484375,-0.018797755241394043,0.0035440283827483654,0.011035194620490074
1761476457095355600,3.267355712890625,-0.02846476435661316,-0.004916035104542971,-0.0015373220667243004
1761476457105388800,3.277388916015625,-0.0403236448764801,-0.027287129312753677,-0.012962364591658115
1761476457115421700,3.287421630859375,-0.031849466264247894,-0.021863598376512527,-0.007247221190482378
1761476457125456000,3.297455810546875,-0.01177115086466074,0.010612225160002708,0.013791407458484173
1761476457135488800,3.30748876953125,0.0043763937428593636,0.022878210991621017,0.04346408322453499
1761476457145522000,3.31752197265625,0.014630367048084736,0.01098104938864708,0.06165023148059845
1761476457155555800,3.327555908203125,0.01931646466255188,-0.014690225943922997,0.05508340895175934
1761476457165588700,3.337588623046875,0.027042828500270844,-0.017346994951367378,0.02530207484960556
1761476457175621600,3.34762158203125,0.023066461086273193,-0.027381785213947296,-0.015124178491532803
1761476457185655800,3.35765576171875,0.017103107646107674,-0.05179016664624214,-0.05442013591527939
1761476457195688700,3.367688720703125,0.00901775062084198,-0.06377945095300674,-0.07827407121658325
1761476457205721900,3.377721923828125,-0.004230523947626352,-0.058163832873106,-0.08816680312156677
1761476457215755800,3.387755859375,-0.011892970651388168,-0.044157203286886215,-0.07893761247396469
1761476457225789000,3.397788818359375,-0.011296575888991356,-0.03166918456554413,-0.05936722457408905
1761476457235821800,3.40782177734375,0.00011799950152635574,-0.02457452565431595,-0.02032128907740116
1761476457245855700,3.417855712890625,0.017970170825719833,-0.0030360156670212746,0.02607521042227745
1761476457255888600,3.427888671875,0.034483902156353,0.006878133863210678,0.059014514088630676
1761476457265921800,3.437921875,0.04955938085913658,0.005390367936342955,0.06471693515777588
1761476457275956000,3.4479560546875,0.050235554575920105,-0.000014517456293106079,0.04813982546329498
1761476457285988900,3.45798876953125,0.041774116456508636,-0.020591065287590027,0.02017027698457241
1761476457296021800,3.468021728515625,0.02898508310317993,-0.02981945313513279,-0.0013400763273239136
1761476457306055700,3.4780556640625,0.016970910131931305,-0.024336934089660645,-0.0050858622416853905
1761476457316088800,3.4880888671875,0.011779080145061016,-0.012693594209849834,0.0014079902321100235
1761476457326121700,3.498121826171875,0.01208006776869297,-0.003862970042973757,0.003875802271068096
1761476457336156000,3.508156005859375,0.012948790565133095,0.006041325628757477,0.007639114744961262
1761476457346188800,3.518188720703125,0.01869770511984825,0.02231445536017418,0.011741054244339466
1761476457356222000,3.528221923828125,0.021299347281455994,0.02864372357726097,0.004121485166251659
1761476457366255900,3.538255859375,0.02582710236310959,0.013770395889878273,-0.017703285440802574
1761476457376288800,3.548288818359375,0.027690250426530838,-0.006888277363032103,-0.03797553479671478
1761476457386321700,3.55832177734375,0.03780066967010498,-0.008155384100973606,-0.04535030946135521
1761476457396355800,3.56835595703125,0.04785570129752159,-0.0064304545521736145,-0.04295505955815315
1761476457406388700,3.578388671875,0.0615544393658638,-0.0054630860686302185,-0.03817977011203766
1761476457416422000,3.588421875,0.07239057868719101,-0.006292128935456276,-0.03156474605202675
1761476457426455800,3.598455810546875,0.07711697369813919,-0.01990569196641445,-0.0354190357029438
1761476457436489000,3.608489013671875,0.07457897812128067,-0.025503655895590782,-0.03915944695472717
1761476457446521900,3.61852197265625,0.07216450572013855,-0.02230129763484001,-0.03578396514058113
1761476457456555800,3.6285556640625,0.06583123654127121,-0.017749421298503876,-0.02856999635696411
1761476457466588700,3.638588623046875,0.05946255475282669,-0.0055332123301923275,-0.009534203447401524
1761476457476621800,3.648621826171875,0.05957680195569992,0.011211945675313473,0.010110870935022831
1761476457486655700,3.65865576171875,0.04941210895776749,0.029296210035681725,0.01598742976784706
1761476457496689000,3.66868896484375,0.0449819415807724,0.022018855437636375,0.007608325220644474
1761476457506721800,3.6787216796875,0.044966649264097214,0.023124681785702705,-0.021440789103507996
1761476457516755700,3.688755615234375,0.04709931090474129,0.015020948834717274,-0.04144192859530449
1761476457526788600,3.69878857421875,0.045585840940475464,0.002728306455537677,-0.058745868504047394
1761476457536821800,3.70882177734375,0.04416104778647423,0.007184573914855719,-0.05880232900381088
1761476457546855700,3.718855712890625,0.04365857318043709,0.04532371461391449,-0.042951274663209915
1761476457556888800,3.728888916015625,0.028054043650627136,0.07491302490234375,-0.01914181560277939
1761476457566921700,3.738921630859375,0.0357777364552021,0.06881367415189743,0.0012203389778733253
1761476457576956000,3.748955810546875,0.048316698521375656,0.06318268924951553,0.007910199463367462
1761476457586988800,3.75898876953125,0.04773206636309624,0.02861882746219635,0.00943493191152811
1761476457597021700,3.769021728515625,0.0534682497382164,-0.007064866367727518,0.0030369535088539124
1761476457607056000,3.779055908203125,0.06959274411201477,-0.019631385803222656,-0.011208772659301758
1761476457617088800,3.7890888671875,0.07594038546085358,-0.02248256653547287,-0.013511608354747295
1761476457627117000,3.799116943359375,0.08273740857839584,-0.01945187710225582,-0.00809358712285757
1761476457637151000,3.80915087890625,0.08538911491632462,-0.015799352899193764,0.01161806657910347
1761476457647184100,3.81918408203125,0.09519153088331223,-0.008193759247660637,0.03984549641609192
1761476457657218000,3.829218017578125,0.10695870965719223,-0.014035934582352638,0.05928843468427658
1761476457667251200,3.839251220703125,0.1198488250374794,-0.02792154997587204,0.0625738799571991
1761476457677284000,3.8492841796875,0.12496501952409744,-0.012688535265624523,0.059004176408052444
1761476457687317200,3.859317138671875,0.12675276398658752,0.015106204897165298,0.048038698732852936
1761476457697351000,3.869350830078125,0.12142990529537201,0.033435676246881485,0.032452281564474106
1761476457707384000,3.879384033203125,0.11402822285890579,0.04043407365679741,0.01925010234117508
1761476457717418000,3.88941796875,0.10248129069805145,0.026621054857969284,0.019294310361146927
1761476457727451100,3.899451171875,0.08739687502384186,0.014636563137173653,0.022273588925600052
1761476457737484000,3.909484130859375,0.08947760611772537,0.0015793503262102604,0.02664543315768242
1761476457747518000,3.91951806640625,0.08505778014659882,-0.004814532119780779,0.035754285752773285
1761476457757550800,3.92955078125,0.0900362879037857,-0.003986555617302656,0.03305064141750336
1761476457767584000,3.939583984375,0.0926813930273056,-0.01914307475090027,0.022920265793800354
1761476457777617000,3.949616943359375,0.09226967394351959,-0.03834526240825653,0.0051455311477184296
1761476457787647000,3.95964697265625,0.08915350586175919,-0.053581662476062775,-0.003182283602654934
1761476457797681200,3.96968115234375,0.06864450126886368,-0.05854952707886696,0.0012180572375655174
1761476457807714000,3.979714111328125,0.05575144290924072,-0.04459917172789574,0.021020939573645592
1761476457817747200,3.989747314453125,0.04570839926600456,-0.011961333453655243,0.041989073157310486
1761476457827780900,3.99978076171875,0.046468187123537064,0.028511863201856613,0.056430477648973465
1761476457837814000,4.00981396484375,0.04339729622006416,0.060826659202575684,0.062044959515333176
1761476457847847000,4.019846923828125,0.038245055824518204,0.06931142508983612,0.059882812201976776
1761476457857881000,4.029881103515625,0.035596806555986404,0.05973629653453827,0.0508379191160202
1761476457867914000,4.0399140625,0.03094293177127838,0.05860048159956932,0.038405269384384155
1761476457877947100,4.049947021484375,0.021350223571062088,0.07745726406574249,0.035446763038635254
1761476457887981000,4.05998095703125,0.005713692866265774,0.09253378212451935,0.030439788475632668
1761476457898014000,4.070013916015625,-0.011686868965625763,0.10657370090484619,0.030795851722359657
1761476457908046800,4.080046875,-0.020696623250842094,0.11228790879249573,0.03426780924201012
1761476457918081000,4.0900810546875,-0.012587830424308777,0.11603976786136627,0.04126526415348053
1761476457928114000,4.100114013671875,0.008407044224441051,0.09727345407009125,0.043614596128463745
1761476457938147000,4.11014697265625,0.028980232775211334,0.09679648280143738,0.04875103384256363
1761476457948181200,4.12018115234375,0.04202530160546303,0.12091054767370224,0.05486265569925308
1761476457958214100,4.130214111328125,0.04059917852282524,0.14442653954029083,0.06097700446844101
1761476457968247000,4.1402470703125,0.02916295826435089,0.1742725372314453,0.0656871423125267
1761476457978281000,4.150281005859375,0.00002345070242881775,0.17972350120544434,0.06078799068927765
1761476457988314000,4.160314208984375,-0.03697342798113823,0.1481846272945404,0.05216895043849945
1761476457998347000,4.170346923828125,-0.04665108770132065,0.10066159069538116,0.024704841896891594
1761476458008381200,4.180381103515625,-0.052143484354019165,0.05393051356077194,-0.0053628431633114815
1761476458018414000,4.1904140625,-0.04906114190816879,0.06772462278604507,-0.034959349781274796
1761476458028447200,4.200447265625,-0.03982951492071152,0.12409432232379913,-0.051966335624456406
1761476458038481000,4.21048095703125,-0.034581221640110016,0.18504129350185394,-0.06517960876226425
1761476458048514000,4.22051416015625,-0.03661496937274933,0.23752732574939728,-0.06132107228040695
1761476458058547000,4.230546875,-0.036460503935813904,0.27386242151260376,-0.05336061120033264
1761476458068581000,4.2405810546875,-0.03730371594429016,0.2841074764728546,-0.041972532868385315
1761476458078614000,4.250614013671875,-0.03439634293317795,0.25708118081092834,-0.03308290243148804
1761476458088647200,4.260647216796875,-0.03400890529155731,0.19086268544197083,-0.019361304119229317
1761476458098681000,4.27068115234375,-0.03646114468574524,0.13442391157150269,-0.004654795862734318
1761476458108714000,4.2807138671875,-0.04229522496461868,0.12229155004024506,0.025367753580212593
1761476458118747000,4.290746826171875,-0.04715123400092125,0.1338997334241867,0.047818198800086975
1761476458128781000,4.300781005859375,-0.06474699825048447,0.13248500227928162,0.0631222128868103
1761476458138814000,4.31081396484375,-0.08848535269498825,0.11759394407272339,0.06836757808923721
1761476458148847000,4.32084716796875,-0.11157496273517609,0.09115676581859589,0.04570306837558746
1761476458158881000,4.330881103515625,-0.11883474141359329,0.05538972094655037,0.027695568278431892
1761476458168914200,4.3409140625,-0.11508633196353912,0.036345161497592926,0.016564037650823593
1761476458178947000,4.350947021484375,-0.09863945096731186,0.03348998725414276,0.01792997308075428
1761476458188981000,4.36098095703125,-0.08508678525686264,0.043467964977025986,0.02960808388888836
1761476458199014000,4.371013916015625,-0.08092932403087616,0.055855922400951385,0.05914466828107834
1761476458209047000,4.381047119140625,-0.08744405955076218,0.05189967155456543,0.09980549663305283
1761476458219081200,4.391081298828125,-0.10274738818407059,0.05292898416519165,0.13714195787906647
1761476458229114000,4.401114013671875,-0.12440448254346848,0.07683594524860382,0.15646670758724213
1761476458239147000,4.41114697265625,-0.14689593017101288,0.12259331345558167,0.15999911725521088
1761476458249181000,4.421180908203125,-0.1689343899488449,0.1660108119249344,0.15871679782867432
1761476458259214000,4.431214111328125,-0.18589232861995697,0.18124011158943176,0.14402388036251068
1761476458269247000,4.4412470703125,-0.19578677415847778,0.1617099940776825,0.10984338074922562
1761476458279281200,4.45128125,-0.18705295026302338,0.12885485589504242,0.062431395053863525
1761476458289314000,4.46131396484375,-0.1501605361700058,0.07629178464412689,0.013767673633992672
1761476458299347200,4.47134716796875,-0.10188355296850204,-0.010909434407949448,-0.021693648770451546
1761476458309381000,4.481381103515625,-0.05983618646860123,-0.09403953701257706,-0.03219393640756607
1761476458319414000,4.4914140625,-0.019759874790906906,-0.13856492936611176,-0.022819343954324722
1761476458329447000,4.501447021484375,0.016068750992417336,-0.13033726811408997,0.0030043385922908783
1761476458339481000,4.511481201171875,0.05086561292409897,-0.09259016066789627,0.032228000462055206
1761476458349514000,4.521513916015625,0.07265649735927582,-0.05353280529379845,0.05431864783167839
1761476458359547100,4.531547119140625,0.07298088073730469,-0.04167694225907326,0.04974253848195076
1761476458369581000,4.5415810546875,0.05406033992767334,-0.06652527302503586,0.03543950617313385
1761476458379615000,4.551614990234375,0.032129209488630295,-0.0897136777639389,0.033318571746349335
1761476458389648000,4.56164794921875,0.016532454639673233,-0.0746179148554802,0.028402870520949364
1761476458399682000,4.57168212890625,0.006738944910466671,-0.030947132036089897,0.03312119096517563
1761476458409715000,4.58171484375,0.005175737664103508,0.04250304028391838,0.04063345491886139
1761476458419748000,4.591748046875,0.02102101407945156,0.10034210234880447,0.056256890296936035
1761476458429782300,4.6017822265625,0.04275335371494293,0.1274692565202713,0.06431940943002701
1761476458439815200,4.611815185546875,0.05864923447370529,0.12540078163146973,0.09130708873271942
1761476458449848000,4.62184814453125,0.060976892709732056,0.11748430877923965,0.11614103615283966
1761476458459882000,4.631882080078125,0.05902240425348282,0.12857744097709656,0.15005479753017426
1761476458469915100,4.6419150390625,0.03973088413476944,0.14036497473716736,0.17480984330177307
1761476458479948000,4.651947998046875,0.01430062297731638,0.17282171547412872,0.17813239991664886
1761476458489982200,4.661982177734375,-0.014264702796936035,0.21001777052879333,0.16915664076805115
1761476458500015000,4.67201513671875,-0.026555724442005157,0.22044244408607483,0.15003274381160736
1761476458510048300,4.68204833984375,-0.011030880734324455,0.2069004327058792,0.12582695484161377
1761476458520082000,4.69208203125,0.014379937201738358,0.17490814626216888,0.09940971434116364
1761476458530115000,4.702114990234375,0.04746832698583603,0.15837888419628143,0.08067537099123001
1761476458540148000,4.71214794921875,0.07332628965377808,0.1731160283088684,0.06461970508098602
1761476458550182100,4.72218212890625,0.07438479363918304,0.1652623414993286,0.05816676840186119
1761476458560215000,4.732215087890625,0.05354715883731842,0.10844460129737854,0.05016236752271652
1761476458570248200,4.742248291015625,0.012990463525056839,-0.005120758432894945,0.060836389660835266
1761476458580281900,4.75228173828125,-0.027209686115384102,-0.1306999921798706,0.08507781475782394
1761476458590315000,4.76231494140625,-0.044520292431116104,-0.20473001897335052,0.11103866249322891
1761476458600348000,4.772347900390625,-0.029293403029441833,-0.2312561571598053,0.12220156192779541
1761476458610382000,4.782382080078125,0.007686399854719639,-0.2233850508928299,0.11324097961187363
1761476458620415000,4.7924150390625,0.07037801295518875,-0.17099401354789734,0.0951586440205574
1761476458630448600,4.80244873046875,0.13294972479343414,-0.08695945888757706,0.07988783717155457
1761476458640482600,4.812482666015625,0.18161101639270782,-0.006118141580373049,0.08629566431045532
1761476458650515500,4.822515380859375,0.19590702652931213,0.0332532599568367,0.0942918211221695
1761476458660548400,4.83254833984375,0.1686229407787323,0.0004993104375898838,0.09834089130163193
1761476458670582500,4.84258251953125,0.12200691550970078,-0.03098170831799507,0.08583945780992508
1761476458680615700,4.85261572265625,0.0669974535703659,-0.036422815173864365,0.05166257917881012
1761476458690648600,4.862648681640625,0.00992100965231657,-0.032417893409729004,-0.0012029651552438736
1761476458700682800,4.872682861328125,-0.03994801267981529,-0.021396400406956673,-0.04818565398454666
1761476458710715600,4.882715576171875,-0.08240135759115219,-0.0386505201458931,-0.08545394241809845
1761476458720748500,4.89274853515625,-0.11365355551242828,-0.08399137109518051,-0.10107551515102386
1761476458730782500,4.902782470703125,-0.1575162410736084,-0.11143695563077927,-0.10895251482725143
1761476458740815600,4.912815673828125,-0.1931927502155304,-0.09611792117357254,-0.10548507422208786
1761476458750848500,4.9228486328125,-0.2238992601633072,-0.04235122725367546,-0.10749736428260803
1761476458760881700,4.932881591796875,-0.24494010210037231,0.012352761812508106,-0.1247410699725151
1761476458770915600,4.94291552734375,-0.24778978526592255,0.05469964072108269,-0.15089771151542664
1761476458780948700,4.95294873046875,-0.24988064169883728,0.08824189007282257,-0.17693518102169037
1761476458790981600,4.962981689453125,-0.24804124236106873,0.12242531031370163,-0.19541019201278687
1761476458801015600,4.973015625,-0.25182560086250305,0.13162146508693695,-0.1993788331747055
1761476458811048400,4.98304833984375,-0.25753307342529297,0.12587986886501312,-0.19854240119457245
1761476458821081600,4.99308154296875,-0.24937261641025543,0.12030506879091263,-0.19864414632320404
1761476458831115500,5.003115478515625,-0.25277432799339294,0.1010909229516983,-0.2066534161567688
1761476458841148700,5.013148681640625,-0.27265268564224243,-0.0034085880033671856,-0.21528339385986328
1761476458851181600,5.023181640625,-0.3073359429836273,-0.11988924443721771,-0.2118396759033203
1761476458861215500,5.033215576171875,-0.3297001123428345,-0.16095305979251862,-0.18316569924354553
1761476458871248400,5.043248291015625,-0.3369773030281067,-0.14941011369228363,-0.1217694953083992
1761476458881281500,5.053281494140625,-0.339312344789505,-0.1091039702296257,-0.05160185694694519
1761476458891315500,5.0633154296875,-0.3238476812839508,-0.12607020139694214,0.014844050630927086
1761476458901348600,5.0733486328125,-0.29800570011138916,-0.13557395339012146,0.05992177873849869
1761476458911381500,5.083381591796875,-0.2646409869194031,-0.11533372104167938,0.08270825445652008
1761476458921415700,5.093415771484375,-0.22431433200836182,-0.10329703241586685,0.0754612609744072
1761476458931448600,5.103448486328125,-0.17589513957500458,-0.12042175233364105,0.05564243346452713
1761476458941481500,5.1134814453125,-0.11056912690401077,-0.13978293538093567,0.045388996601104736
1761476458951515400,5.123515380859375,-0.02297760359942913,-0.15714189410209656,0.0611611008644104
1761476458961548500,5.133548583984375,-0.05226331949234009,0.033579856157302856,0.18989138305187225
1761476458971581400,5.14358154296875,-0.06509678065776825,0.08442104607820511,0.2946823835372925
1761476458981615600,5.15361572265625,-0.030956648290157318,0.07839484512805939,0.33689212799072266
1761476458991648500,5.1636484375,-0.015021518804132938,0.1506650596857071,0.37094950675964355
1761476459001681700,5.173681640625,-0.02553035318851471,0.15331383049488068,0.360978901386261
1761476459011715600,5.183715576171875,-0.050096042454242706,0.09222216159105301,0.3100633919239044
1761476459021748500,5.19374853515625,-0.02196294069290161,0.05394427850842476,0.2707069218158722
1761476459031781400,5.203781494140625,0.02506725862622261,0.032160092145204544,0.24718928337097168
1761476459041814500,5.213814453125,0.007710374891757965,-0.01383083313703537,0.22297821938991547
1761476459051848700,5.2238486328125,-0.03435948118567467,-0.060650214552879333,0.20844896137714386
1761476459061881600,5.233881591796875,-0.07467148452997208,-0.10807259380817413,0.19341063499450684
1761476459071914500,5.24391455078125,-0.09386999905109406,-0.13325710594654083,0.1557740420103073
1761476459081948400,5.253948486328125,-0.09327983856201172,-0.13271142542362213,0.11741415411233902
1761476459091981600,5.263981689453125,-0.08108736574649811,-0.11762730777263641,0.1077750101685524
1761476459102014500,5.274014404296875,-0.0721609815955162,-0.06842433661222458,0.10531984269618988
1761476459112048600,5.284048583984375,-0.07876092195510864,-0.055428024381399155,0.08971227705478668
1761476459122081500,5.29408154296875,-0.1120416447520256,0.010952593758702278,-0.002023235894739628
1761476459132114700,5.30411474609375,-0.14509935677051544,0.0997266173362732,-0.07901661843061447
1761476459142148600,5.314148681640625,-0.1485833078622818,0.2079518884420395,-0.2239128202199936
1761476459152181500,5.324181396484375,-0.13856571912765503,0.32381725311279297,-0.32738855481147766
1761476459162214400,5.33421435546875,-0.11703885346651077,0.4146387577056885,-0.35276368260383606
1761476459172248600,5.34424853515625,-0.0873265489935875,0.4754706025123596,-0.37784114480018616
1761476459182281500,5.354281494140625,-0.09809743613004684,0.5300435423851013,-0.45002374053001404
1761476459192314600,5.364314697265625,-0.11445010453462601,0.5873892903327942,-0.5315276980400085
1761476459202348500,5.3743486328125,-0.12805460393428802,0.5940725207328796,-0.5460549592971802
1761476459212381700,5.384381591796875,-0.1611802726984024,0.49645689129829407,-0.4548298418521881
1761476459222414600,5.39441455078125,-0.21451033651828766,0.3190900981426239,-0.27900421619415283
1761476459232448500,5.404448486328125,-0.24473747611045837,0.17604151368141174,-0.05844537541270256
1761476459242481400,5.4144814453125,-0.24739159643650055,0.08314379304647446,0.16302283108234406
1761476459252514600,5.4245146484375,-0.23288321495056152,0.03997661545872688,0.35535845160484314
1761476459262548500,5.434548583984375,-0.21539130806922913,0.013247267343103886,0.5177657604217529
1761476459272581600,5.44458154296875,-0.20319078862667084,-0.049164529889822006,0.6480904221534729
1761476459282614500,5.454614501953125,-0.1835172176361084,-0.17622926831245422,0.7417418360710144
1761476459292647700,5.464647705078125,-0.15605495870113373,-0.33331772685050964,0.8329768776893616
1761476459302681300,5.474681396484375,-0.12833598256111145,-0.46029776334762573,0.9186561107635498
1761476459312714500,5.484714599609375,-0.10888415575027466,-0.5671780109405518,0.9990231394767761
1761476459322747400,5.494747314453125,-0.12126731872558594,-0.6533994674682617,1.0607560873031616
1761476459332781600,5.504781494140625,-0.15291237831115723,-0.698916494846344,1.076261281967163
1761476459342814500,5.514814453125,-0.20445360243320465,-0.7081299424171448,1.0445454120635986
1761476459352847600,5.52484765625,-0.26106178760528564,-0.6815758347511292,0.9795300960540771
1761476459362881500,5.534881591796875,-0.2925368845462799,-0.5397129654884338,0.9023522138595581
1761476459372914400,5.54491455078125,-0.31878525018692017,-0.38156309723854065,0.8179751038551331
1761476459382947300,5.554947265625,-0.3425750136375427,-0.3092832863330841,0.7036429047584534
1761476459392981500,5.5649814453125,-0.32777953147888184,-0.3423180878162384,0.5389060974121094
1761476459403014700,5.5750146484375,-0.26906296610832214,-0.3753495514392853,0.33647337555885315
1761476459413047600,5.585047607421875,-0.21858444809913635,-0.32249218225479126,0.13714665174484253
1761476459423081700,5.595081787109375,-0.2116575688123703,-0.15494073927402496,-0.03588638827204704
1761476459433114600,5.605114501953125,-0.23914824426174164,-0.0830535814166069,-0.22044825553894043
1761476459443147800,5.615147705078125,-0.27396804094314575,-0.0731402337551117,-0.3550018072128296
1761476459453180700,5.6251806640625,-0.28513261675834656,-0.07160436362028122,-0.4089246988296509
1761476459463214600,5.635214599609375,-0.275757759809494,-0.09285984933376312,-0.4063832461833954
1761476459473247500,5.64524755859375,-0.2567290961742401,-0.16554923355579376,-0.375079870223999
1761476459483280600,5.65528076171875,-0.2429640293121338,-0.2038918286561966,-0.3222768306732178
1761476459493314600,5.665314453125,-0.24078167974948883,-0.16273394227027893,-0.2473290115594864
1761476459503347700,5.67534765625,-0.2404937893152237,-0.12705184519290924,-0.17772038280963898
1761476459513380600,5.685380615234375,-0.24694690108299255,-0.1600586175918579,-0.11413199454545975
1761476459523414500,5.69541455078125,-0.2466515451669693,-0.1708308458328247,-0.05335972458124161
1761476459533447400,5.705447509765625,-0.23124665021896362,-0.1966424286365509,-0.017454879358410835
1761476459543480600,5.71548046875,-0.21650685369968414,-0.2088271975517273,-0.010781797580420971
1761476459553514500,5.725514404296875,-0.1863757073879242,-0.21177782118320465,-0.015636436641216278
1761476459563547600,5.735547607421875,-0.1555863618850708,-0.2008117288351059,-0.03693187236785889
1761476459573580500,5.74558056640625,-0.1374599188566208,-0.19681867957115173,-0.09091790020465851
1761476459583614500,5.755614501953125,-0.13622155785560608,-0.14218765497207642,-0.16428185999393463
1761476459593647400,5.7656474609375,-0.1501564383506775,-0.07307609170675278,-0.2082281857728958
1761476459603680500,5.775680419921875,-0.15270374715328217,-0.035336967557668686,-0.24214380979537964
1761476459613713400,5.78571337890625,-0.13893701136112213,-0.009352724067866802,-0.2663484811782837
1761476459623747600,5.79574755859375,-0.10266850143671036,0.010202601552009583,-0.2887653708457947
1761476459633779700,5.80577978515625,-0.04631664231419563,0.005144126713275909,-0.31364378333091736
1761476459643812900,5.815812744140625,0.0195984598249197,-0.026362136006355286,-0.33760690689086914
1761476459653846800,5.8258466796875,0.05818654224276543,-0.038394782692193985,-0.3617058992385864
1761476459663880000,5.8358798828125,0.08006200939416885,0.0012253276072442532,-0.3675403594970703
1761476459673912800,5.845912841796875,0.07203290611505508,0.07481780648231506,-0.3789592981338501
1761476459683946800,5.85594677734375,0.055012643337249756,0.18120044469833374,-0.42433929443359375
1761476459693979600,5.865979736328125,0.06834985315799713,0.1860538125038147,-0.43542158603668213
1761476459704012800,5.8760126953125,0.05758056044578552,0.22382304072380066,-0.42275533080101013
1761476459714046700,5.886046630859375,0.08593897521495819,0.21566638350486755,-0.35664331912994385
1761476459724079900,5.896079833984375,0.13420583307743073,0.17604947090148926,-0.2471839338541031
1761476459734112800,5.90611279296875,0.16146306693553925,0.18575988709926605,-0.17621658742427826
1761476459744147000,5.91614697265625,0.15685686469078064,0.2052939087152481,-0.12423994392156601
1761476459754179800,5.926179931640625,0.13864430785179138,0.20182070136070251,-0.07559824734926224
1761476459764212700,5.936212646484375,0.11423350870609283,0.19141092896461487,-0.0495794340968132
1761476459774245600,5.94624560546875,0.10681138932704926,0.13950583338737488,-0.023435840383172035
1761476459784279800,5.95627978515625,0.10315114259719849,0.13291317224502563,0.0033057592809200287
1761476459794312700,5.966312744140625,0.0933585911989212,0.12735497951507568,0.035122670233249664
1761476459804345900,5.976345947265625,0.10101544111967087,0.13075050711631775,0.07717398554086685
1761476459814379800,5.9863798828125,0.11567987501621246,0.12374423444271088,0.11606219410896301
1761476459824413000,5.996412841796875,0.12840792536735535,0.09395411610603333,0.16158680617809296
1761476459834445800,6.00644580078125,0.13856638967990875,0.06037302687764168,0.1914215087890625
1761476459844479700,6.016479736328125,0.1496667116880417,0.0009392616339027882,0.21021251380443573
1761476459854512600,6.0265126953125,0.16478191316127777,-0.04996250569820404,0.20180225372314453
1761476459864545800,6.0365458984375,0.18445974588394165,-0.08181817829608917,0.18448318541049957
1761476459874580000,6.046580078125,0.19937188923358917,-0.10963450372219086,0.16174231469631195
1761476459884612900,6.05661279296875,0.21354496479034424,-0.12714053690433502,0.13811847567558289
1761476459894645800,6.066645751953125,0.22358205914497375,-0.12811826169490814,0.10605624318122864
1761476459904679000,6.076678955078125,0.22797361016273499,-0.11201465874910355,0.0732777938246727
1761476459914712800,6.086712890625,0.21877937018871307,-0.05055060610175133,0.04513796046376228
1761476459924745700,6.096745849609375,0.20773150026798248,0.011033132672309875,0.04305297136306763
1761476459934778600,6.106778564453125,0.1839512288570404,0.05015293136239052,0.057199545204639435
1761476459944812800,6.116812744140625,0.16590192914009094,0.07172027975320816,0.07790429145097733
1761476459954846000,6.126845947265625,0.15351177752017975,0.06824196130037308,0.09974455833435059
1761476459964878800,6.13687890625,0.15787270665168762,0.047710318118333817,0.10394542664289474
1761476459974912800,6.146912841796875,0.1630074381828308,0.048570919781923294,0.07319356501102448
1761476459984945700,6.156945556640625,0.17085577547550201,0.06406838446855545,0.023238785564899445
1761476459994978800,6.166978759765625,0.16767941415309906,0.10799582302570343,-0.014507651329040527
1761476460005012700,6.1770126953125,0.15640360116958618,0.14839278161525726,-0.04485117271542549
1761476460015046000,6.1870458984375,0.14153970777988434,0.17290246486663818,-0.05598706007003784
1761476460025078800,6.197078857421875,0.11955690383911133,0.18966732919216156,-0.041997477412223816
1761476460035113000,6.207113037109375,0.10077229887247086,0.20446841418743134,-0.03342895954847336
1761476460045145900,6.217145751953125,0.09217028319835663,0.1793185919523239,-0.014835833571851254
1761476460055179000,6.227178955078125,0.09285333007574081,0.1486411988735199,-0.003054467961192131
1761476460065211600,6.237211669921875,0.08990281820297241,0.11798316240310669,0.0020382944494485855
1761476460075245800,6.247245849609375,0.08353631943464279,0.08910023421049118,0.000018152408301830292
1761476460085278700,6.25727880859375,0.09221236407756805,0.0649283230304718,-0.0027794986963272095
1761476460095312000,6.267311767578125,0.09916330873966217,0.046037014573812485,-0.025281596928834915
1761476460105345800,6.277345703125,0.09454299509525299,0.03775618225336075,-0.05287674069404602
1761476460115379000,6.28737890625,0.0784788727760315,0.03817017003893852,-0.057176873087882996
1761476460125411800,6.297411865234375,0.05671658739447594,0.03877097740769386,-0.03218710049986839
1761476460135445800,6.30744580078125,0.04113149642944336,0.041799962520599365,0.015382380224764347
1761476460145478700,6.317478759765625,0.02549474872648716,0.031628549098968506,0.05121041461825371
1761476460155511800,6.32751171875,0.009330312721431255,0.0040522366762161255,0.06247541308403015
1761476460165544700,6.337544677734375,-0.007975706830620766,-0.012655104510486126,0.05860584229230881
1761476460175579000,6.347578857421875,-0.021446820348501205,-0.025182394310832024,0.04422476142644882
1761476460185611800,6.35761181640625,-0.026519078761339188,-0.028450625017285347,0.02525480091571808
1761476460195645000,6.36764501953125,-0.023992011323571205,-0.009471682831645012,0.012627030722796917
1761476460205678600,6.3776787109375,-0.02558298408985138,0.001390818040817976,0.002109409309923649
1761476460215711700,6.387711669921875,-0.039967458695173264,0.013247102499008179,-0.01208398025482893
1761476460225744600,6.39774462890625,-0.06058112159371376,0.01118501741439104,-0.028433924540877342
1761476460235778800,6.40777880859375,-0.08397913724184036,0.016194842755794525,-0.033797189593315125
1761476460245811700,6.417811767578125,-0.10464340448379517,0.001762107014656067,-0.035486962646245956
1761476460255844900,6.427844970703125,-0.12202787399291992,-0.0035589109174907207,-0.024459082633256912
1761476460265877800,6.437877685546875,-0.13481105864048004,-0.0028949850238859653,-0.0190238356590271
1761476460275912000,6.447911865234375,-0.1446043998003006,-0.0046318769454956055,-0.009802106767892838
1761476460285944600,6.457944580078125,-0.14927184581756592,0.0018987269140779972,-0.01237179059535265
1761476460295977700,6.467977783203125,-0.15124642848968506,-0.005585720296949148,-0.021207762882113457
1761476460306012000,6.478011962890625,-0.15446779131889343,-0.01643810234963894,-0.03320663422346115
1761476460316044800,6.488044921875,-0.15470559895038605,-0.016334010288119316,-0.02914617769420147
1761476460326077700,6.49807763671875,-0.1588047444820404,-0.01841394044458866,-0.009231059812009335
1761476460336111900,6.50811181640625,-0.1623566597700119,-0.024855757132172585,0.02657361328601837
1761476460346145000,6.51814501953125,-0.16834984719753265,-0.027215583249926567,0.055345602333545685
1761476460356178000,6.528177978515625,-0.1764381378889084,-0.026273444294929504,0.06579571217298508
1761476460366210800,6.5382109375,-0.18121451139450073,-0.02451149746775627,0.043880295008420944
1761476460376244700,6.54824462890625,-0.18638120591640472,-0.03471777215600014,0.013231108896434307
1761476460386278000,6.55827783203125,-0.1915448009967804,-0.03186206519603729,-0.018338002264499664
1761476460396310800,6.568310791015625,-0.20344646275043488,-0.01918160915374756,-0.041190724819898605
1761476460406345000,6.578344970703125,-0.2098332643508911,-0.01223448570817709,-0.06051168963313103
1761476460416377900,6.5883779296875,-0.22622093558311462,-0.026360919699072838,-0.06656032800674438
1761476460426411000,6.598410888671875,-0.2315445840358734,-0.04368291795253754,-0.05349885672330856
1761476460436444700,6.608444580078125,-0.2424907684326172,-0.06356903910636902,-0.02633434161543846
1761476460446477800,6.618477783203125,-0.2476509064435959,-0.07273644208908081,0.001976391300559044
1761476460456510700,6.6285107421875,-0.25780948996543884,-0.08045647293329239,0.030049428343772888
1761476460466543900,6.6385439453125,-0.2684165835380554,-0.08190549910068512,0.03328783065080643
1761476460476577800,6.648577880859375,-0.2787236273288727,-0.0757206454873085,0.030062414705753326
1761476460486611000,6.65861083984375,-0.29146525263786316,-0.07685621827840805,0.015135928057134151
1761476460496643800,6.668643798828125,-0.3013036251068115,-0.07712966203689575,-0.003620842471718788
1761476460506677800,6.678677734375,-0.31088969111442566,-0.07448513805866241,-0.030364306643605232
1761476460516710700,6.688710693359375,-0.3164116442203522,-0.05711793154478073,-0.053525619208812714
1761476460526743800,6.698743896484375,-0.3197789490222931,-0.053931187838315964,-0.0763784646987915
1761476460536776700,6.708776611328125,-0.32443463802337646,-0.05449117347598076,-0.08342166990041733
1761476460546811000,6.718810791015625,-0.33055564761161804,-0.05911015719175339,-0.0887269526720047
1761476460556843800,6.72884375,-0.334024041891098,-0.07777241617441177,-0.09054742753505707
1761476460566877000,6.738876953125,-0.342204213142395,-0.09567151963710785,-0.0921676903963089
1761476460576910800,6.748910888671875,-0.3505050241947174,-0.10355491191148758,-0.09443177282810211
1761476460586943700,6.75894384765625,-0.3596402108669281,-0.099795863032341,-0.08597517013549805
1761476460596976600,6.7689765625,-0.3641761541366577,-0.08802784234285355,-0.06692265719175339
1761476460607009800,6.779009765625,-0.36521902680397034,-0.0780460461974144,-0.045547064393758774
1761476460617043700,6.789043701171875,-0.3637918531894684,-0.07710328698158264,-0.02091601863503456
1761476460627076900,6.799076904296875,-0.3620253801345825,-0.08018136769533157,-0.008419668301939964
1761476460637110300,6.8091103515625,-0.3578993082046509,-0.0853019580245018,-0.009150763973593712
1761476460647144200,6.819144287109375,-0.3615065813064575,-0.08182120323181152,-0.023068442940711975
1761476460657177000,6.829177001953125,-0.3600107729434967,-0.08355521410703659,-0.03976227343082428
1761476460667210200,6.839210205078125,-0.38130834698677063,-0.08781014382839203,-0.054240014404058456
1761476460677243100,6.8492431640625,-0.3715311586856842,-0.10149092972278595,-0.05067284405231476
1761476460687277300,6.85927734375,-0.35057419538497925,-0.08209486305713654,-0.04014323651790619
1761476460697310200,6.869310302734375,-0.33389440178871155,-0.07459592074155807,-0.03102750889956951
1761476460707343400,6.87934326171875,-0.3301257789134979,-0.08203919231891632,-0.017915967851877213
1761476460717377300,6.889377197265625,-0.3279886841773987,-0.06417388468980789,-0.00882180966436863
1761476460727410400,6.899410400390625,-0.3213427662849426,-0.03756678104400635,-0.001576147973537445
1761476460737443300,6.909443359375,-0.3049473464488983,-0.03097686544060707,0.0011205058544874191
1761476460747476200,6.919476318359375,-0.28537818789482117,-0.03288128972053528,0.0015713786706328392
1761476460757510100,6.92951025390625,-0.2636934816837311,-0.03286897763609886,0.008463973179459572
1761476460767543300,6.939543212890625,-0.2452300637960434,-0.025437161326408386,0.011785468086600304
1761476460777576200,6.949576171875,-0.2201302945613861,-0.03301230072975159,0.014815274626016617
1761476460787609300,6.959609375,-0.19442440569400787,-0.030072171241044998,0.017455266788601875
1761476460797643300,6.969643310546875,-0.17412690818309784,-0.02076982893049717,0.020552460104227066
1761476460807676400,6.979676513671875,-0.15034008026123047,-0.011514544486999512,0.023030798882246017
1761476460817709300,6.989709228515625,-0.13206948339939117,0.004936817567795515,0.036601658910512924
1761476460827743200,6.9997431640625,-0.10907894372940063,0.01666218228638172,0.053769730031490326
1761476460837776100,7.009776123046875,-0.08898809552192688,0.02441062033176422,0.07333545386791229
1761476460847809300,7.019809326171875,-0.06855792552232742,0.025981884449720383,0.0728270560503006
1761476460857842200,7.02984228515625,-0.04624703899025917,0.03401601314544678,0.048189472407102585
1761476460867876400,7.03987646484375,-0.030195370316505432,0.028932837769389153,0.014605146832764149
1761476460877909500,7.049909423828125,-0.015522623434662819,0.028584491461515427,-0.021271467208862305
1761476460887942400,7.0599423828125,-0.00025978125631809235,0.0260278582572937,-0.03690555319190025
1761476460897976300,7.069976318359375,0.017185311764478683,0.03139958158135414,-0.04350792616605759
1761476460908009200,7.08000927734375,0.035493746399879456,0.03260759264230728,-0.0276474691927433
1761476460918042400,7.09004248046875,0.05534765496850014,0.03525524586439133,-0.005786608904600143
1761476460928075300,7.1000751953125,0.07590246200561523,0.03089165687561035,0.014991906471550465
1761476460938109400,7.110109375,0.08927357941865921,0.031050365418195724,0.027898818254470825
1761476460948142300,7.120142333984375,0.10698253661394119,0.036355648189783096,0.02335812896490097
1761476460958175500,7.130175537109375,0.12443585693836212,0.04308188334107399,0.006240091286599636
1761476460968208400,7.14020849609375,0.13997647166252136,0.05037920922040939,-0.004501503426581621
1761476460978242300,7.1502421875,0.15601789951324463,0.06718970090150833,-0.005384411662817001
1761476460988275200,7.160275146484375,0.15931034088134766,0.08730029314756393,0.004605904221534729
1761476460998308400,7.170308349609375,0.1727779507637024,0.10026855766773224,0.01838962733745575
1761476461008341200,7.18034130859375,0.18929913640022278,0.10279802232980728,0.024925556033849716
1761476461018375400,7.19037548828125,0.2037850022315979,0.10104691237211227,0.026424720883369446
1761476461028408300,7.200408203125,0.21319103240966797,0.10446108877658844,0.02397860586643219
1761476461038441500,7.21044140625,0.21930894255638123,0.10791128128767014,0.025036633014678955
1761476461048474400,7.220474365234375,0.2314859926700592,0.11845100671052933,0.030105959624052048
1761476461058508300,7.23050830078125,0.24444615840911865,0.12454108893871307,0.03583456948399544
1761476461068541200,7.240541259765625,0.25263136625289917,0.12204623967409134,0.037264954298734665
1761476461078574300,7.25057421875,0.2618533968925476,0.11396519839763641,0.03473290055990219
1761476461088608300,7.260608154296875,0.26927003264427185,0.10070318728685379,0.024331923574209213
1761476461098641400,7.270641357421875,0.27411866188049316,0.09831814467906952,0.011980214156210423
1761476461108674300,7.28067431640625,0.28066763281822205,0.10090140998363495,-0.005783869884908199
1761476461118707500,7.29070751953125,0.2865642309188843,0.09747668355703354,-0.014348391443490982
1761476461128741400,7.300741455078125,0.29454946517944336,0.09771770238876343,-0.022498197853565216
1761476461138774300,7.310774169921875,0.2998901903629303,0.09958835691213608,-0.012830311432480812
1761476461148807200,7.32080712890625,0.30255308747291565,0.10176336020231247,0.0022109560668468475
1761476461158840300,7.33084033203125,0.30910369753837585,0.09427639096975327,0.021678537130355835
1761476461168874200,7.340874267578125,0.31873369216918945,0.08601021021604538,0.036528054624795914
1761476461178907400,7.350907470703125,0.3268735706806183,0.07417066395282745,0.040003255009651184
1761476461188940300,7.360940185546875,0.3358364403247833,0.06566399335861206,0.03566017001867294
1761476461198973400,7.370973388671875,0.34365957975387573,0.05492052435874939,0.027824662625789642
1761476461209007400,7.38100732421875,0.34575122594833374,0.054295480251312256,0.01938297227025032
1761476461219040500,7.39104052734375,0.35378533601760864,0.0551876425743103,0.013679534196853638
1761476461229073400,7.401073486328125,0.35516566038131714,0.055202290415763855,0.006403245031833649
1761476461239106300,7.411106201171875,0.35547730326652527,0.05108491703867912,-0.00115948636084795
1761476461249140200,7.42114013671875,0.3570949137210846,0.0469900406897068,-0.012572995387017727
1761476461259173400,7.43117333984375,0.3611147105693817,0.0379212386906147,-0.02510015480220318
1761476461269206300,7.441206298828125,0.35768401622772217,0.044330667704343796,-0.03094472736120224
1761476461279239400,7.451239501953125,0.35137179493904114,0.047874003648757935,-0.025696437805891037
1761476461289273300,7.4612734375,0.3505696654319763,0.050041284412145615,-0.019483014941215515
1761476461299306500,7.471306396484375,0.3453034460544586,0.03968517482280731,-0.0095974737778306
1761476461309339400,7.48133935546875,0.34303948283195496,0.0282900407910347,-0.0033092182129621506
1761476461319372300,7.491372314453125,0.3383651673793793,0.015824131667613983,0.001252538524568081
1761476461329406200,7.50140625,0.33289051055908203,0.013372691348195076,0.004628627561032772
1761476461339439400,7.511439453125,0.3240496516227722,0.015095079317688942,-0.0005694283172488213
1761476461349472300,7.52147216796875,0.32233965396881104,0.02579193189740181,-0.01139757502824068
1761476461359505400,7.53150537109375,0.3139929175376892,0.03205356374382973,-0.03251033276319504
1761476461369539300,7.541539306640625,0.311240553855896,0.042334698140621185,-0.047709256410598755
1761476461379572500,7.551572509765625,0.29714125394821167,0.054123248904943466,-0.06409083306789398
1761476461389605400,7.56160546875,0.2822083830833435,0.052373819053173065,-0.062374964356422424
1761476461399638500,7.571638427734375,0.26626041531562805,0.040994808077812195,-0.04956481233239174
1761476461409672200,7.581672119140625,0.24968625605106354,0.026897896081209183,-0.02466052956879139
1761476461419705300,7.591705322265625,0.2342531830072403,0.017869379371404648,-0.00038146693259477615
1761476461429738200,7.60173828125,0.21920660138130188,0.013352924957871437,0.008299905806779861
1761476461439771400,7.611771484375,0.20145127177238464,0.010260255075991154,0.0023822514340281487
1761476461449805300,7.621805419921875,0.18678364157676697,0.003927790559828281,-0.013097904622554779
1761476461459838500,7.63183837890625,0.17600929737091064,-0.00047367438673973083,-0.036830250173807144
1761476461469871400,7.641871337890625,0.16399258375167847,-0.003919272217899561,-0.056569334119558334
1761476461479904500,7.651904541015625,0.15123650431632996,-0.0034638349898159504,-0.07226663082838058
1761476461489938200,7.661938232421875,0.13767728209495544,-0.0018917708657681942,-0.08367401361465454
1761476461499971300,7.671971435546875,0.12045566737651825,-0.003404618240892887,-0.08417150378227234
1761476461510004200,7.682004150390625,0.10234245657920837,-0.011460680514574051,-0.0819014310836792
1761476461520037400,7.692037353515625,0.07861268520355225,-0.016740530729293823,-0.07695286720991135
1761476461530071300,7.7020712890625,0.05322929471731186,-0.0142587311565876,-0.07039563357830048
1761476461540104400,7.7121044921875,0.036535102874040604,-0.021841350942850113,-0.06175614148378372
1761476461550137300,7.722137451171875,0.023195862770080566,-0.023421138525009155,-0.06288745254278183
1761476461560170500,7.73217041015625,0.008915416896343231,-0.02083980292081833,-0.06725029647350311
1761476461570204200,7.7422041015625,-0.004492267034947872,-0.01910794898867607,-0.07544910907745361
1761476461580237300,7.7522373046875,-0.018915630877017975,-0.022865932434797287,-0.0784580186009407
1761476461590270200,7.762270263671875,-0.033541444689035416,-0.03035127744078636,-0.0710645467042923
1761476461600303400,7.772303466796875,-0.04913974180817604,-0.040108099579811096,-0.059744320809841156
1761476461610337300,7.782337158203125,-0.06438633799552917,-0.04697799310088158,-0.055105891078710556
1761476461620370400,7.792370361328125,-0.076653391122818,-0.04496011510491371,-0.04744264483451843
1761476461630403300,7.8024033203125,-0.08533450216054916,-0.04368499293923378,-0.042900361120700836
1761476461640442600,7.812442626953125,-0.09813400357961655,-0.040261365473270416,-0.03096311166882515
1761476461650476500,7.8224765625,-0.11405837535858154,-0.03131314739584923,-0.01742360182106495
1761476461660509700,7.832509765625,-0.12036418914794922,-0.026017118245363235,0.0008399123325943947
1761476461670542600,7.84254248046875,-0.12819015979766846,-0.02219441719353199,0.005319615826010704
1761476461680575500,7.852575439453125,-0.13554929196834564,-0.024248719215393066,0.006409072317183018
1761476461690608400,7.8626083984375,-0.14019304513931274,-0.024232206866145134,0.0007844753563404083
1761476461700642600,7.872642578125,-0.14319323003292084,-0.021306196227669716,-0.006990112829953432
1761476461710675500,7.882675537109375,-0.149534210562706,-0.0286615788936615,-0.008907056413590908
1761476461720708600,7.89270849609375,-0.1573604941368103,-0.04553535580635071,-0.016596052795648575
1761476461730741500,7.902741455078125,-0.16804029047489166,-0.050878722220659256,-0.01751670613884926
1761476461740775700,7.912775634765625,-0.17157919704914093,-0.05310380086302757,-0.019397757947444916
1761476461750808600,7.92280859375,-0.1759350597858429,-0.062021397054195404,-0.01403654832392931
1761476461760841700,7.932841796875,-0.17791029810905457,-0.06828048825263977,-0.0027986234053969383
1761476461770874600,7.94287451171875,-0.17782561480998993,-0.07091008871793747,0.011865274049341679
1761476461780908500,7.952908447265625,-0.17907936871051788,-0.06467583775520325,0.018389496952295303
1761476461790940400,7.9629404296875,-0.1841026246547699,-0.06541486084461212,0.019598569720983505
1761476461800973600,7.9729736328125,-0.1836448609828949,-0.06672626733779907,0.01763204298913479
1761476461811006500,7.98300634765625,-0.18953150510787964,-0.07172981649637222,0.014854365959763527
1761476461821039400,7.993039306640625,-0.19537170231342316,-0.06867516785860062,0.009713420644402504
1761476461831073500,8.003073486328125,-0.2003835141658783,-0.06600002199411392,0.0019412506371736526
1761476461841106700,8.013106689453124,-0.20317675173282623,-0.07217057049274445,0.0018256492912769318
1761476461851139600,8.0231396484375,-0.21116890013217926,-0.07118972390890121,0.002368135377764702
1761476461861172500,8.03317236328125,-0.21141569316387177,-0.0652637928724289,-0.005425505805760622
1761476461871206400,8.043206298828125,-0.21355155110359192,-0.06901432573795319,-0.01105542853474617
1761476461881239600,8.053239501953126,-0.20897705852985382,-0.07006147503852844,-0.023717384785413742
1761476461891272400,8.0632724609375,-0.2056473046541214,-0.06586246937513351,-0.035947948694229126
1761476461901305300,8.073305419921875,-0.203495055437088,-0.07087694108486176,-0.04931038245558739
1761476461911338500,8.08333837890625,-0.2022114098072052,-0.06385365128517151,-0.06437481939792633
1761476461921372700,8.09337255859375,-0.19707639515399933,-0.050859153270721436,-0.07142084836959839
1761476461931405600,8.103405517578125,-0.19578157365322113,-0.037492215633392334,-0.08345141261816025
1761476461941438500,8.1134384765625,-0.19420656561851501,-0.03626377880573273,-0.08478818833827972
1761476461951471600,8.1234716796875,-0.19526757299900055,-0.04505833610892296,-0.07840485870838165
1761476461961505500,8.133505615234375,-0.19518272578716278,-0.053085386753082275,-0.072100430727005
1761476461971538400,8.143538330078124,-0.20021609961986542,-0.0638890340924263,-0.07443442195653915
1761476461981571300,8.1535712890625,-0.1913214474916458,-0.05090769752860069,-0.062173135578632355
1761476461991604500,8.1636044921875,-0.18293382227420807,-0.040016431361436844,-0.051344990730285645
1761476462001638700,8.173638671875,-0.17209425568580627,-0.0462060309946537,-0.039900243282318115
1761476462011671600,8.183671630859376,-0.16474154591560364,-0.04927266016602516,-0.028776489198207855
1761476462021704400,8.193704345703125,-0.161629319190979,-0.034454427659511566,-0.023358674719929695
1761476462031737600,8.203737548828125,-0.16611993312835693,-0.01732897385954857,-0.021790072321891785
1761476462041770500,8.2137705078125,-0.16208165884017944,0.001065131276845932,-0.020710283890366554
1761476462051804400,8.223804443359375,-0.1575436294078827,0.013070661574602127,-0.02302243933081627
1761476462061837300,8.23383740234375,-0.14742323756217957,0.013689586892724037,-0.02741210162639618
1761476462071870500,8.243870361328124,-0.14068810641765594,0.017596710473299026,-0.028889624401926994
1761476462081903400,8.2539033203125,-0.1344074159860611,0.020688898861408234,-0.03162471577525139
1761476462091936500,8.2639365234375,-0.13216984272003174,0.0321146585047245,-0.026175089180469513
1761476462101970400,8.273970458984374,-0.1266595721244812,0.03378593921661377,-0.02585427463054657
1761476462112003600,8.284003662109376,-0.12051352858543396,0.030145928263664246,-0.0280844047665596
1761476462122036500,8.294036376953125,-0.10578583925962448,0.018861720338463783,-0.0473608672618866
1761476462132069600,8.304069580078124,-0.09104364365339279,0.014649398624897003,-0.06605333089828491
1761476462142103600,8.314103515625,-0.06940674781799316,0.028426814824342728,-0.08232070505619049
1761476462152136400,8.324136474609375,-0.04740743711590767,0.04194235801696777,-0.10093912482261658
1761476462162169300,8.33416943359375,-0.01797681301832199,0.05102096125483513,-0.1090119406580925
1761476462172202500,8.344202392578126,0.012255125679075718,0.04722436144948006,-0.10458923131227493
1761476462182235400,8.3542353515625,0.044219981878995895,0.03659115731716156,-0.09610040485858917
1761476462192269600,8.36426953125,0.06390979886054993,0.01204533502459526,-0.08640995621681213
1761476462202302500,8.374302490234374,0.0726735070347786,-0.011602049693465233,-0.055850788950920105
1761476462212335600,8.384335693359375,0.06066983938217163,-0.020263448357582092,-0.03560543805360794
1761476462222368500,8.394368408203125,0.04853440448641777,-0.026077616959810257,-0.02911798283457756
1761476462232402700,8.404402587890624,0.03645270690321922,-0.02472127042710781,-0.031259696930646896
1761476462242435300,8.414435302734375,0.025586340576410294,-0.037362486124038696,-0.04279036074876785
1761476462252468500,8.424468505859375,0.00976449903100729,-0.04260119050741196,-0.05810912698507309
1761476462262501400,8.43450146484375,-0.0018503312021493912,-0.030917655676603317,-0.06041894108057022
1761476462272534500,8.444534423828125,-0.009964982978999615,-0.024876274168491364,-0.05685216933488846
1761476462282568400,8.454568359375,-0.01697954721748829,-0.02292298525571823,-0.04523427411913872
1761476462292601600,8.4646015625,-0.026290224865078926,-0.00007306458428502083,-0.022726837545633316
1761476462302634500,8.474634521484376,-0.03633270040154457,0.04124140739440918,0.0031266426667571068
1761476462312667600,8.484667724609375,-0.04275944083929062,0.04809292405843735,0.03727582469582558
1761476462322701600,8.49470166015625,-0.040845490992069244,0.04435024410486221,0.07193325459957123
1761476462332734500,8.504734375,-0.03816794604063034,0.039304088801145554,0.09724873304367065
1761476462342767400,8.514767333984375,-0.021123146638274193,0.03979230299592018,0.11880519986152649
1761476462352800500,8.524800537109375,-0.009770624339580536,0.041980620473623276,0.11990880966186523
1761476462362833400,8.53483349609375,0.0014353608712553978,0.039769262075424194,0.11603961884975433
1761476462372867600,8.54486767578125,0.012641675770282745,0.037701316177845,0.0959697812795639
1761476462382900500,8.554900390625,0.022504692897200584,0.030564310029149055,0.07039198279380798
1761476462392933600,8.56493359375,0.015329072251915932,0.01843920350074768,0.04882277175784111
1761476462402966500,8.574966552734375,-0.004801012575626373,0.000007432885468006134,0.04607413709163666
1761476462412999700,8.584999755859375,-0.028344955295324326,-0.007392426487058401,0.05792680382728577
1761476462423033600,8.59503369140625,-0.0422719344496727,0.011118622496724129,0.08052573353052139
1761476462433066500,8.60506640625,-0.042070064693689346,0.05336221307516098,0.10741806775331497
1761476462443099400,8.615099365234375,-0.03816665709018707,0.10926500707864761,0.1353931427001953
1761476462453132500,8.625132568359374,-0.032638996839523315,0.14347650110721588,0.1473962813615799
1761476462463165400,8.63516552734375,-0.024535372853279114,0.16510210931301117,0.15016314387321472
1761476462473199600,8.64519970703125,-0.013992982916533947,0.1620892733335495,0.14454200863838196
1761476462483232500,8.655232421875,0.0030310144647955894,0.15815964341163635,0.13532690703868866
1761476462493265700,8.665265625,0.018059764057397842,0.16555072367191315,0.129994198679924
1761476462503298600,8.675298583984375,0.02890193462371826,0.1676061898469925,0.12014849483966827
1761476462513331700,8.685331787109375,0.03309854492545128,0.14963144063949585,0.1157180666923523
1761476462523365400,8.695365478515624,0.05094097554683685,0.14985798299312592,0.09972252696752548
1761476462533398500,8.7053984375,0.058059342205524445,0.1643999069929123,0.07893069088459015
1761476462543431400,8.715431396484375,0.06596722453832626,0.14316272735595703,0.057587169110774994
1761476462553464600,8.725464599609374,0.08556942641735077,0.11477290838956833,0.04354645311832428
1761476462563498500,8.73549853515625,0.10404221713542938,0.10540047287940979,0.02665480598807335
1761476462573531600,8.74553173828125,0.11462455987930298,0.08652718365192413,0.002910592593252659
1761476462583564500,8.755564453125,0.11998564004898071,0.046526625752449036,-0.0177335012704134
1761476462593597700,8.76559765625,0.13086839020252228,0.025343840941786766,-0.035146314650774
1761476462603630600,8.775630615234375,0.14146117866039276,-0.0015481137670576572,-0.04237298294901848
1761476462613664500,8.78566455078125,0.14445272088050842,-0.022294137626886368,-0.04128561168909073
1761476462623697400,8.795697509765626,0.13872253894805908,-0.03557620197534561,-0.03568360209465027
1761476462633723600,8.8057236328125,0.1285892128944397,-0.035426534712314606,-0.04080166667699814
1761476462643756500,8.815756591796875,0.12036041170358658,-0.03348897397518158,-0.06245821341872215
1761476462653789700,8.825789794921874,0.11661947518587112,-0.023998267948627472,-0.08744718134403229
1761476462663823600,8.83582373046875,0.11236487329006195,-0.009076062589883804,-0.10341803729534149
1761476462673856800,8.845856689453125,0.10802604258060455,-0.00116780586540699,-0.1079411506652832
1761476462683889700,8.8558896484375,0.10229624807834625,-0.0027963058091700077,-0.10907533019781113
1761476462693922800,8.8659228515625,0.09900325536727905,-0.01247582957148552,-0.10268294811248779
1761476462703955700,8.875955810546875,0.09582779556512833,-0.019714105874300003,-0.0862734243273735
1761476462713989600,8.88598974609375,0.09405066817998886,-0.01386234164237976,-0.06387117505073547
1761476462724022500,8.8960224609375,0.09239807724952698,0.007962599396705627,-0.04322307929396629
1761476462734055700,8.9060556640625,0.08444294333457947,0.034306854009628296,-0.032046593725681305
1761476462744088600,8.916088623046875,0.07933709770441055,0.05777297168970108,-0.022385485470294952
1761476462754121700,8.926121826171874,0.06967195868492126,0.07066134363412857,-0.018810192123055458
1761476462764155600,8.93615576171875,0.06503885239362717,0.06835637986660004,-0.015506008639931679
1761476462774188800,8.946188720703125,0.06535257399082184,0.06519200652837753,-0.007604942191392183
1761476462784221700,8.9562216796875,0.07011289149522781,0.0569271557033062,-0.005840439815074205
1761476462794254800,8.9662548828125,0.07977963238954544,0.052335068583488464,-0.007695864420384169
1761476462804287700,8.976287841796875,0.08578381687402725,0.043122101575136185,-0.01259550079703331
1761476462814321700,8.98632177734375,0.08232330530881882,0.035613588988780975,-0.009426871314644814
1761476462824354600,8.9963544921875,0.08249229192733765,0.019201578572392464,-0.0005974583327770233
1761476462834387700,9.0063876953125,0.07244125008583069,0.008957196958363056,0.01241527870297432
1761476462844420600,9.016420654296875,0.07134932279586792,0.007053222972899675,0.015162491239607334
1761476462854453500,9.02645361328125,0.07217090576887131,0.012165959924459457,0.007926150225102901
1761476462864487700,9.03648779296875,0.07633606344461441,0.01847331039607525,-0.007215089164674282
1761476462874520800,9.046520751953125,0.07914676517248154,0.018317248672246933,-0.025876391679048538
1761476462884553700,9.0565537109375,0.07530833780765533,0.011588018387556076,-0.039884231984615326
1761476462894586600,9.066586669921875,0.0700475350022316,0.008019115775823593,-0.048593565821647644
1761476462904619800,9.076619873046875,0.07121597230434418,0.0038245241157710552,-0.04920389503240585
1761476462914652700,9.086652587890624,0.06268399953842163,-0.0071860491298139095,-0.0388343408703804
1761476462924686600,9.0966865234375,0.05112474411725998,-0.018669961020350456,-0.025100981816649437
1761476462934719500,9.106719482421875,0.0397125668823719,-0.02933858521282673,-0.016541048884391785
1761476462944752600,9.116752685546874,0.03568273410201073,-0.04257435351610184,-0.015114511363208294
1761476462954785500,9.12678564453125,0.03191223368048668,-0.04703222215175629,-0.023447543382644653
1761476462964818700,9.136818603515625,0.027141280472278595,-0.04811939224600792,-0.025007963180541992
1761476462974852600,9.1468525390625,0.02007964253425598,-0.04432651773095131,-0.034889087080955505
1761476462984885800,9.1568857421875,0.012908424250781536,-0.042159292846918106,-0.0455315001308918
1761476462994918700,9.166918701171875,0.010567505843937397,-0.032958339899778366,-0.05365334078669548
1761476463004951800,9.176951904296875,0.008775165304541588,-0.022651448845863342,-0.05425292253494263
1761476463014984700,9.186984619140626,0.00466750655323267,-0.019969645887613297,-0.04591350257396698
1761476463025018600,9.1970185546875,0.0018617985770106316,-0.019414762035012245,-0.026847485452890396
1761476463035051500,9.207051513671875,-0.00424216641113162,-0.014300692826509476,-0.0028859591111540794
1761476463045084700,9.217084716796874,-0.009577114135026932,-0.005479149986058474,0.011936531402170658
1761476463055117600,9.22711767578125,-0.012170766480267048,0.00959727168083191,0.015470280312001705
1761476463065150700,9.237150634765625,-0.0182780884206295,0.016581304371356964,0.014851167798042297
1761476463075184600,9.2471845703125,-0.019025638699531555,0.01740182377398014,0.01359841600060463
1761476463085217800,9.2572177734375,-0.014339175075292587,0.017292048782110214,0.023332253098487854
1761476463095250700,9.267250732421875,-0.01119344960898161,0.005697445943951607,0.028558440506458282
1761476463105283800,9.277283935546874,-0.006095860619097948,-0.00786009430885315,0.031007589772343636
1761476463115316700,9.287316650390625,-0.008130782283842564,-0.019456829875707626,0.031248072162270546
1761476463125350000,9.297349853515625,-0.008250022307038307,-0.0249809417873621,0.026942774653434753
1761476463135383600,9.307383544921874,-0.009467885829508305,-0.034582167863845825,0.022542167454957962
1761476463145416700,9.317416748046876,-0.009164922870695591,-0.03835095092654228,0.022236159071326256
1761476463155449600,9.32744970703125,-0.014339178800582886,-0.03612348437309265,0.022182093933224678
1761476463165482800,9.337482666015624,-0.02057776227593422,-0.03612619638442993,0.028173793107271194
1761476463175515600,9.347515625,-0.0229216106235981,-0.03564469516277313,0.03353872895240784
1761476463185549800,9.3575498046875,-0.027955684810876846,-0.03194510191679001,0.03897416591644287
1761476463195582700,9.367582763671875,-0.029076341539621353,-0.02635672315955162,0.0299492459744215
1761476463205615900,9.377615966796874,-0.03036314994096756,-0.02022741362452507,0.0255156047642231
1761476463215648800,9.387648681640625,-0.031891271471977234,-0.014530378393828869,0.02197519689798355
1761476463225681700,9.397681640625,-0.03698419779539108,-0.012163694947957993,0.01739475317299366
1761476463235715600,9.407715576171874,-0.03680124133825302,-0.02003946155309677,0.022247830405831337
1761476463245748700,9.417748779296875,-0.03930744156241417,-0.03169535472989082,0.01666322723031044
1761476463255781600,9.42778173828125,-0.044264648109674454,-0.03682859614491463,0.009276681579649448
1761476463265814800,9.437814697265624,-0.049768172204494476,-0.0470992773771286,0.003183710388839245
1761476463275847700,9.44784765625,-0.05659838020801544,-0.04854404181241989,-0.0016259578987956047
1761476463285880600,9.457880615234375,-0.06257428228855133,-0.044211436063051224,-0.0004295622929930687
1761476463295914800,9.467914794921874,-0.06919702887535095,-0.04215707257390022,0.005173461511731148
1761476463305948000,9.477947998046876,-0.07596422731876373,-0.04515276104211807,0.016635898500680923
1761476463315980800,9.487980712890625,-0.07968918979167938,-0.042580682784318924,0.02551407925784588
1761476463326013400,9.498013427734374,-0.08075641840696335,-0.04174891114234924,0.030328083783388138
1761476463336046600,9.508046630859376,-0.0842193216085434,-0.03731527924537659,0.029708899557590485
1761476463346079500,9.51807958984375,-0.08772524446249008,-0.03511476516723633,0.01569647155702114
1761476463356113700,9.52811376953125,-0.09402308613061905,-0.03939712792634964,-0.0006052693352103233
1761476463366146600,9.538146484375,-0.10103066265583038,-0.0403645895421505,-0.01604391448199749
1761476463376179700,9.5481796875,-0.101685531437397,-0.0410333089530468,-0.015516874380409718
1761476463386212600,9.558212646484375,-0.1037522405385971,-0.041442353278398514,-0.011470302939414978
1761476463396245800,9.568245849609376,-0.10650302469730377,-0.03514690697193146,-0.005463542882353067
1761476463406279700,9.57827978515625,-0.10823787748813629,-0.030896620824933052,-0.0054519157856702805
1761476463416312600,9.5883125,-0.11544890701770782,-0.023437639698386192,0.0008459277451038361
1761476463426345500,9.598345458984374,-0.11961087584495544,-0.02105514332652092,0.005509853363037109
1761476463436378600,9.608378662109375,-0.12055310606956482,-0.0238804928958416,0.0053162407130002975
1761476463446411500,9.61841162109375,-0.1221255287528038,-0.024152833968400955,0.007286904379725456
1761476463456444700,9.628444580078124,-0.12441983819007874,-0.01877671107649803,0.009632881730794907
1761476463466478600,9.638478515625,-0.12729299068450928,-0.019679516553878784,0.014557627961039543
1761476463476511700,9.64851171875,-0.13228029012680054,-0.016248032450675964,0.013441231101751328
1761476463486544600,9.658544677734374,-0.1316198706626892,-0.019767239689826965,0.012484138831496239
1761476463496577800,9.668577880859376,-0.13294292986392975,-0.03079059347510338,0.01423783041536808
1761476463506610700,9.678610595703125,-0.13151347637176514,-0.03960377350449562,0.018747713416814804
1761476463516643800,9.688643798828124,-0.12655919790267944,-0.0317290723323822,0.02541413903236389
1761476463526677500,9.698677490234376,-0.1259775012731552,-0.014645050279796124,0.024716157466173172
1761476463536710700,9.708710693359375,-0.11931559443473816,-0.0008195163682103157,0.025773432105779648
1761476463546743600,9.71874365234375,-0.11536309123039246,0.00032265810295939445,0.02063777670264244
1761476463556776700,9.728776611328126,-0.11447306722402573,0.0031120528001338243,0.019752006977796555
1761476463566809600,9.7388095703125,-0.11519169062376022,0.002989645814523101,0.009894773364067078
1761476463576842800,9.7488427734375,-0.10858917981386185,0.007299971766769886,-0.0004649227485060692
1761476463586876700,9.758876708984374,-0.10657572746276855,0.008400557562708855,-0.011244257912039757
1761476463596909800,9.768909912109375,-0.10348406434059143,0.006447928491979837,-0.01454737689346075
1761476463606942700,9.778942626953125,-0.09322916716337204,-0.005307523999363184,-0.009272690862417221
1761476463616976000,9.788975830078124,-0.08161698281764984,-0.020769571885466576,-0.004638258367776871
1761476463627008800,9.7990087890625,-0.06753416359424591,-0.037490978837013245,-0.00003552902489900589
1761476463637046300,9.80904638671875,-0.05511663854122162,-0.05112024024128914,0.003208734095096588
1761476463647080400,9.81908056640625,-0.045825328677892685,-0.053158458322286606,-0.0024502212181687355
1761476463657113300,9.82911328125,-0.034383323043584824,-0.04428746923804283,-0.004953326191753149
1761476463667146200,9.839146240234374,-0.029186170548200607,-0.02743314579129219,-0.009614771232008934
1761476463677179400,9.849179443359375,-0.0210837684571743,-0.008353996090590954,-0.009296789765357971
1761476463687212300,9.85921240234375,-0.01559516042470932,-0.003768633119761944,-0.005080281291157007
1761476463697245400,9.869245361328124,-0.010411850176751614,-0.0011893617920577526,0.003772066906094551
1761476463707279000,9.879279052734375,-0.010229169391095638,-0.0005414364859461784,0.013720992021262646
1761476463717312300,9.889312255859375,-0.009350858628749847,-0.0032647852785885334,0.01744808629155159
1761476463727345200,9.89934521484375,-0.007874188013374805,-0.008883623406291008,0.010773160494863987
1761476463737378300,9.90937841796875,-0.0015720832161605358,-0.017546087503433228,0.002644127234816551
1761476463747411200,9.9194111328125,0.006672118790447712,-0.02943713217973709,-0.010605506598949432
1761476463757444400,9.9294443359375,0.01727815717458725,-0.03449394181370735,-0.0338868610560894
1761476463767478300,9.939478271484376,0.024986714124679565,-0.031677842140197754,-0.04555726423859596
1761476463777511400,9.949511474609375,0.02839023247361183,-0.026470031589269638,-0.0443926639854908
1761476463787544300,9.95954443359375,0.02590904012322426,-0.016028162091970444,-0.03160955011844635
1761476463797577500,9.969577392578126,0.021316684782505035,-0.006862092763185501,-0.004844250623136759
1761476463807610400,9.9796103515625,0.01867857575416565,-0.000996971968561411,0.022359337657690048
1761476463817643500,9.9896435546875,0.02241712436079979,-0.004474261309951544,0.041001997888088226
1761476463827677200,9.99967724609375,0.02537199668586254,-0.010739415884017944,0.04867982119321823
1761476463837710300,10.00971044921875,0.024677978828549385,-0.010585485026240349,0.035456959158182144
1761476463847743200,10.0197431640625,0.03054896742105484,-0.007672158535569906,0.01513965055346489
1761476463857776400,10.0297763671875,0.035926952958106995,-0.0057365731336176395,-0.009339061565697193
1761476463867809300,10.039809326171875,0.04651609808206558,0.0007951320149004459,-0.033807747066020966
1761476463877842200,10.04984228515625,0.04987700656056404,0.014991911128163338,-0.045843906700611115
1761476463887876400,10.05987646484375,0.04899043217301369,0.018984779715538025,-0.03739960864186287
1761476463897909500,10.069909423828125,0.04408115893602371,0.01619112491607666,-0.028080139309167862
1761476463907942400,10.0799423828125,0.04157714173197746,0.008079424500465393,-0.009482351131737232
1761476463917975300,10.089975341796874,0.039437294006347656,0.0003493335098028183,0.009432750754058361
1761476463928008200,10.10000830078125,0.04463285952806473,-0.004261652007699013,0.01940475031733513
1761476463938041000,10.110041015625,0.0491972491145134,-0.009108073078095913,0.01813894882798195
1761476463948074200,10.12007421875,0.0593932680785656,-0.008579490706324577,0.007311849854886532
1761476463958108200,10.130108154296876,0.06459468603134155,0.0040145982056856155,-0.010126262903213501
1761476463968141300,10.140141357421875,0.071073018014431,0.011479555629193783,-0.025941915810108185
1761476463978174200,10.15017431640625,0.07115158438682556,0.01763012632727623,-0.03312046825885773
1761476463988207400,10.160207275390626,0.07375454902648926,0.013737373054027557,-0.02702241577208042
1761476463998240300,10.170240234375,0.07371167093515396,0.006123395636677742,-0.020784759894013405
1761476464008273400,10.1802734375,0.0773618146777153,-0.004843189846724272,-0.012180684134364128
1761476464018307300,10.190307373046876,0.08150036633014679,-0.011755689978599548,-0.004963783547282219
1761476464028340200,10.20034033203125,0.08141588419675827,-0.011924663558602333,-0.003929770551621914
1761476464038373000,10.210373046875,0.08528759330511093,-0.003772993106395006,-0.00769574660807848
1761476464048406300,10.22040625,0.08519995212554932,0.005063587799668312,-0.007951400242745876
1761476464058439200,10.230439208984375,0.08572272956371307,0.014014738611876965,-0.012234295718371868
1761476464068472300,10.240472412109375,0.08187289535999298,0.022140638902783394,-0.01165581215173006
1761476464078506200,10.25050634765625,0.08355574309825897,0.015049172565340996,-0.003907345235347748
1761476464088539400,10.260539306640625,0.08435545116662979,0.013675176538527012,-0.0039407359436154366
1761476464098572300,10.270572265625,0.08723752200603485,0.010405346751213074,-0.004649936221539974
1761476464108605400,10.28060546875,0.08274397253990173,0.01711917668581009,-0.006936525925993919
1761476464118638300,10.290638427734375,0.0817175880074501,0.026055678725242615,-0.00961699802428484
1761476464128671500,10.30067138671875,0.08257825672626495,0.025677107274532318,-0.008073309436440468
1761476464138704400,10.310704345703124,0.07865329086780548,0.028543736785650253,-0.006243451498448849
1761476464148738300,10.32073828125,0.07670429348945618,0.031500719487667084,-0.00047864392399787903
1761476464158771200,10.330771240234375,0.07953044027090073,0.037039563059806824,0.0025280648842453957
1761476464168804400,10.340804443359374,0.08311504125595093,0.039416681975126266,-0.002117397263646126
1761476464178837200,10.350837158203126,0.08637341856956482,0.03655937686562538,-0.00966239906847477
1761476464188870100,10.3608701171875,0.08976688981056213,0.03922054171562195,-0.016833879053592682
1761476464198903300,10.3709033203125,0.08724301308393478,0.04174947738647461,-0.02254609204828739
1761476464208936200,10.380936279296876,0.08476660400629044,0.043256212025880814,-0.02041286788880825
1761476464218970400,10.390970458984375,0.08655331283807755,0.03974270448088646,-0.008994031697511673
1761476464229003300,10.401003173828125,0.08681951463222504,0.03282376751303673,-0.0035208286717534065
1761476464239036400,10.411036376953126,0.08953087031841278,0.03026234172284603,0.006684672087430954
1761476464249069300,10.4210693359375,0.09241459518671036,0.017179416492581367,0.0025251181796193123
1761476464259102500,10.4311025390625,0.09992524236440659,0.008823215961456299,-0.006336816120892763
1761476464269135400,10.44113525390625,0.10875745862722397,0.005754661746323109,-0.01397025492042303
1761476464279168300,10.451168212890625,0.1157730221748352,0.004932277370244265,-0.013874380849301815
1761476464289202200,10.4612021484375,0.11621487885713577,0.013109317980706692,-0.009150631725788116
1761476464299235300,10.4712353515625,0.1119527593255043,0.026077046990394592,-0.004790238104760647
1761476464309268200,10.481268310546875,0.11107729375362396,0.03496307507157326,-0.0021136952564120293
1761476464319301400,10.49130126953125,0.10426865518093109,0.04056823253631592,0.0000578463077545166
1761476464329334300,10.501334228515624,0.09979550540447235,0.04921184852719307,0.0015857210382819176
1761476464339367400,10.511367431640625,0.09298580139875412,0.052024681121110916,0.0019636237993836403
1761476464349401300,10.5214013671875,0.08788657188415527,0.04850645735859871,-0.0011691376566886902
1761476464359434200,10.531434326171874,0.08733262866735458,0.039276473224163055,-0.005037379451096058
1761476464369467100,10.541467041015625,0.08707597851753235,0.033834490925073624,-0.010158552788197994
1761476464379500300,10.551500244140625,0.08717665076255798,0.03460947051644325,-0.004637819714844227
1761476464389533200,10.561533203125,0.08917839080095291,0.038081105798482895,0.001317521557211876
1761476464399566300,10.57156640625,0.08911100775003433,0.037533290684223175,0.010479860007762909
1761476464409599200,10.58159912109375,0.08972346782684326,0.029972709715366364,0.011581198312342167
1761476464419633400,10.59163330078125,0.09128115326166153,0.016091249883174896,0.01680738478899002
1761476464429666300,10.601666259765626,0.09391714632511139,0.013633472844958305,0.020544271916151047
1761476464439699500,10.611699462890625,0.08846619725227356,0.026748474687337875,0.02267853170633316
1761476464449732400,10.621732421875,0.08772686123847961,0.03085893951356411,0.016409676522016525
1761476464459765200,10.63176513671875,0.08281225711107254,0.026610665023326874,0.003536219708621502
1761476464469798400,10.64179833984375,0.08247548341751099,0.019267791882157326,-0.007898939773440361
1761476464479831300,10.651831298828125,0.08296177536249161,0.004913619253784418,-0.021281057968735695
1761476464489865200,10.661865234375,0.08730550855398178,0.0012951185926795006,-0.023097887635231018
1761476464499898000,10.671898193359375,0.08114214986562729,0.0009944476187229156,-0.01985522359609604
1761476464509931300,10.68193115234375,0.07397903501987457,0.007811015471816063,-0.013818095438182354
1761476464519964200,10.691964111328126,0.06382626295089722,0.013621234335005283,-0.0076361000537872314
1761476464529997300,10.701997314453125,0.05940880626440048,0.019661948084831238,-0.011050419881939888
1761476464540030200,10.7120302734375,0.059243157505989075,0.019088834524154663,-0.007913481444120407
1761476464550063400,10.7220634765625,0.060090601444244385,0.018444471061229706,-0.01193753071129322
1761476464560096300,10.73209619140625,0.054752834141254425,0.020654629915952682,-0.0037099607288837433
1761476464570130400,10.74213037109375,0.04406559467315674,0.025915445759892464,-0.004074175842106342
1761476464580163300,10.752163330078124,0.03467582166194916,0.023932721465826035,-0.004801485221832991
1761476464590196500,10.762196533203126,0.030955974012613297,0.02145264856517315,-0.005310588050633669
1761476464600229400,10.7722294921875,0.027110900729894638,0.02072853595018387,0.001129734329879284
1761476464610262300,10.78226220703125,0.015342491678893566,0.016555562615394592,0.0044692642986774445
1761476464620295200,10.792295166015625,0.003703146241605282,0.014606927521526814,0.0035928189754486084
1761476464630328300,10.802328369140625,-0.00003624334931373596,0.014619319699704647,0.0017200447618961334
1761476464640365600,10.812365478515625,-0.002946279477328062,0.0156965684145689,0.0002965852618217468
1761476464650398700,10.822398681640625,-0.009813925251364708,0.005991528742015362,-0.012261688709259033
1761476464660431600,10.832431640625,-0.012973765842616558,0.007495682220906019,-0.023175321519374847
1761476464670464800,10.84246484375,-0.014320038259029388,0.009495798498392105,-0.021240517497062683
1761476464680497700,10.85249755859375,-0.01463109627366066,0.00038006482645869255,-0.0034207748249173164
1761476464690530800,10.86253076171875,-0.02273319661617279,0.03626361861824989,0.054647840559482574
1761476464700563700,10.872563720703125,-0.04486992210149765,0.006505722180008888,0.08757755905389786
1761476464710596600,10.8825966796875,-0.05338361859321594,-0.03757532313466072,0.07037462294101715
1761476464720630500,10.892630615234374,-0.03782489895820618,-0.03846454992890358,0.0201340913772583
1761476464730663700,10.90266357421875,-0.027764908969402313,-0.019301827996969223,-0.02406034618616104
1761476464740696600,10.912696533203125,-0.025495363399386406,-0.012459900230169296,-0.037316761910915375
1761476464750729500,10.9227294921875,-0.027006298303604126,-0.009728711098432541,-0.05533686652779579
1761476464760762600,10.9327626953125,-0.02974296361207962,-0.0030305953696370125,-0.06483156979084015
1761476464770795500,10.94279541015625,-0.049706168472766876,-0.0014250404201447964,-0.060034703463315964
1761476464780828700,10.95282861328125,-0.05183377116918564,-0.010030247271060944,-0.03288431093096733
1761476464790862600,10.962862548828125,-0.044165030121803284,-0.017226839438080788,0.0055944472551345825
