time,seconds_elapsed,z,y,x
1761476492481426700,0.1104267578125,-0.275568425655365,0.4747975468635559,0.5146371126174927
1761476492491459600,0.12045947265625,-0.24408532679080963,0.46922969818115234,0.4870978593826294
1761476492501492700,0.13049267578125,-0.2351112812757492,0.490677148103714,0.4524550139904022
1761476492511525600,0.140525634765625,-0.2432192713022232,0.5298112630844116,0.42823144793510437
1761476492521558500,0.15055859375,-0.26228848099708557,0.5651835799217224,0.3999481201171875
1761476492531591700,0.160591796875,-0.2806895673274994,0.565880537033081,0.3627821207046509
1761476492541624600,0.17062451171875,-0.2970846891403198,0.5558948516845703,0.32655009627342224
1761476492551657700,0.18065771484375,-0.30596044659614563,0.5124717354774475,0.2823789119720459
1761476492561690600,0.190690673828125,-0.2974242568016052,0.43189817667007446,0.22247818112373352
1761476492571723800,0.200723876953125,-0.2764611840248108,0.35239189863204956,0.15292547643184662
1761476492581756700,0.210756591796875,-0.23907284438610077,0.2790261507034302,0.0771181657910347
1761476492591789800,0.220789794921875,-0.18652628362178802,0.23462297022342682,0.011906140483915806
1761476492601822700,0.23082275390625,-0.1362914890050888,0.20925505459308624,-0.04066254198551178
1761476492611855600,0.240855712890625,-0.07022486627101898,0.22012527287006378,-0.09023089706897736
1761476492621888500,0.250888427734375,-0.009336290881037712,0.20153146982192993,-0.14430691301822662
1761476492631921400,0.26092138671875,0.07888011634349823,0.18795228004455566,-0.2211734652519226
1761476492641954600,0.27095458984375,0.15667769312858582,0.2118510901927948,-0.2962527573108673
1761476492651987500,0.280987548828125,0.22949489951133728,0.21935294568538666,-0.38007256388664246
1761476492662023400,0.2910234375,0.28212401270866394,0.23465590178966522,-0.4573994576931
1761476492672056600,0.301056640625,0.2908376157283783,0.27859726548194885,-0.5387403964996338
1761476492682089500,0.31108935546875,0.2994621992111206,0.16952326893806458,-0.6020177006721497
1761476492692122600,0.32112255859375,0.3193376362323761,-0.052722856402397156,-0.6297973990440369
1761476492702155500,0.331155517578125,0.34599944949150085,-0.20670048892498016,-0.5450020432472229
1761476492712188700,0.341188720703125,0.3656112253665924,-0.31399816274642944,-0.3990059196949005
1761476492722221600,0.3512216796875,0.4102276563644409,-0.4463249146938324,-0.2697921395301819
1761476492732254500,0.36125439453125,0.4672888219356537,-0.4880630373954773,-0.13949723541736603
1761476492742287600,0.37128759765625,0.46111202239990234,-0.4516870081424713,-0.05498478189110756
1761476492752320500,0.381320556640625,0.412455290555954,-0.4420623481273651,0.015494978055357933
1761476492762354700,0.391354736328125,0.3349354565143585,-0.48470643162727356,0.07155364006757736
1761476492772387600,0.4013876953125,0.27183666825294495,-0.4453510344028473,0.10189609974622726
1761476492782420700,0.411420654296875,0.2619868814945221,-0.38053908944129944,0.1572321057319641
1761476492792453600,0.42145361328125,0.2778521478176117,-0.3555428981781006,0.2052140086889267
1761476492802486800,0.43148681640625,0.2771413028240204,-0.32951271533966064,0.21789300441741943
1761476492812519400,0.44151953125,0.26700690388679504,-0.30077505111694336,0.18988826870918274
1761476492822552600,0.451552490234375,0.2565346658229828,-0.26959171891212463,0.12486173957586288
1761476492832585500,0.46158544921875,0.256855309009552,-0.1804746389389038,0.060352250933647156
1761476492842618600,0.47161865234375,0.28639477491378784,-0.16178347170352936,0.010201170109212399
1761476492852651500,0.481651611328125,0.31534919142723083,-0.15568697452545166,-0.052300825715065
1761476492862684700,0.4916845703125,0.3153218924999237,-0.22444061934947968,-0.13715428113937378
1761476492872717600,0.501717529296875,0.2682907283306122,-0.23411083221435547,-0.21402350068092346
1761476492882750500,0.51175048828125,0.18651516735553741,-0.2166283130645752,-0.2311684489250183
1761476492892783600,0.52178369140625,0.11021585762500763,-0.20725025236606598,-0.21895785629749298
1761476492902816500,0.53181640625,0.06680664420127869,-0.15545153617858887,-0.18118993937969208
1761476492912849700,0.541849609375,0.061087772250175476,-0.0263766348361969,-0.11588524281978607
1761476492922882600,0.551882568359375,0.07514145970344543,0.17282448709011078,-0.013461007736623287
1761476492932915700,0.561915771484375,0.07452653348445892,0.307617723941803,0.11407138407230377
1761476492942948600,0.571948486328125,0.05622560530900955,0.3296460509300232,0.22450871765613556
1761476492952981800,0.581981689453125,0.029223013669252396,0.27225279808044434,0.3070826828479767
1761476492963014700,0.5920146484375,0.0016351966187357903,0.2171039581298828,0.3574792146682739
1761476492973047800,0.6020478515625,-0.012998873367905617,0.17503294348716736,0.36756381392478943
1761476492983080700,0.612080810546875,-0.004413725342601538,0.11019939184188843,0.33300501108169556
1761476492993113600,0.622113525390625,0.019352590665221214,0.09405424445867538,0.289005845785141
1761476493003146800,0.632146728515625,0.053751010447740555,0.13964900374412537,0.22006180882453918
1761476493013179600,0.6421796875,0.08486578613519669,0.18750227987766266,0.14055979251861572
1761476493023212500,0.652212646484375,0.09078982472419739,0.2082693874835968,0.05194110795855522
1761476493033245400,0.662245361328125,0.08933041244745255,0.2162647247314453,-0.04129376262426376
1761476493043278600,0.672278564453125,0.10732300579547882,0.2772369682788849,-0.12224628031253815
1761476493053311500,0.6823115234375,0.13704627752304077,0.29371607303619385,-0.14188122749328613
1761476493063344600,0.6923447265625,0.15772034227848053,0.2432771921157837,-0.11002146452665329
1761476493073377500,0.70237744140625,0.17167849838733673,0.18613986670970917,-0.03559037297964096
1761476493083411700,0.71241162109375,0.17004075646400452,0.12573504447937012,0.05395302549004555
1761476493093444600,0.722444580078125,0.16465984284877777,0.07871188223361969,0.1345386803150177
1761476493103477800,0.732477783203125,0.1646685153245926,0.03417875990271568,0.18814226984977722
1761476493113510700,0.7425107421875,0.17422419786453247,-0.02307254448533058,0.19500070810317993
1761476493123543800,0.752543701171875,0.18754422664642334,-0.0750085636973381,0.17499427497386932
1761476493133576700,0.76257666015625,0.19592759013175964,-0.10537312924861908,0.14527180790901184
1761476493143609600,0.772609619140625,0.19954626262187958,-0.06984727084636688,0.12117740511894226
1761476493153642800,0.782642822265625,0.19898566603660583,-0.024410277605056763,0.10933432728052139
1761476493163675600,0.792675537109375,0.19586484134197235,0.01798812858760357,0.10100904852151871
1761476493173708800,0.802708740234375,0.18522897362709045,0.05518236756324768,0.08190060406923294
1761476493183741700,0.81274169921875,0.17788322269916534,0.08300503343343735,0.0473516471683979
1761476493193774600,0.822774658203125,0.16246645152568817,0.09062353521585464,0.011159022338688374
1761476493203807500,0.832807373046875,0.13889414072036743,0.05475829169154167,-0.008828231133520603
1761476493213840600,0.842840576171875,0.12028583884239197,-0.0021079187281429768,0.006418098695576191
1761476493223873500,0.85287353515625,0.09898357838392258,-0.03656864911317825,0.04394189640879631
1761476493233906400,0.862906494140625,0.0743328258395195,-0.041095755994319916,0.09191875159740448
1761476493243939600,0.872939697265625,0.043434884399175644,-0.0057154446840286255,0.12672482430934906
1761476493253972500,0.882972412109375,0.008254793472588062,0.03621948882937431,0.1397162526845932
1761476493264005600,0.893005615234375,-0.02481299266219139,0.046924855560064316,0.12645958364009857
1761476493274038500,0.90303857421875,-0.04687728360295296,0.026218511164188385,0.0976463109254837
1761476493284071700,0.91307177734375,-0.06890662759542465,-0.011757783591747284,0.07904782891273499
1761476493294105600,0.923105712890625,-0.08068232983350754,-0.04392637312412262,0.07438915967941284
1761476493304138800,0.933138671875,-0.08951447159051895,-0.06312140822410583,0.08386131376028061
1761476493314171600,0.943171630859375,-0.09461149573326111,-0.07282145321369171,0.09784504026174545
1761476493324204800,0.953204833984375,-0.10227932780981064,-0.0666033923625946,0.10723825544118881
1761476493334237700,0.96323779296875,-0.1081010028719902,-0.05659177154302597,0.10960154980421066
1761476493344270600,0.9732705078125,-0.1099998876452446,-0.055401451885700226,0.10043231397867203
1761476493354303500,0.983303466796875,-0.11321885138750076,-0.05531543120741844,0.08727630227804184
1761476493364336600,0.993336669921875,-0.11414278298616409,-0.051677413284778595,0.06578098982572556
1761476493374369500,1.00336962890625,-0.11995619535446167,-0.0352206788957119,0.04066924378275871
1761476493384402400,1.01340234375,-0.13071765005588531,-0.020862236618995667,0.011796032078564167
1761476493394435600,1.023435546875,-0.14258255064487457,0.00742639135569334,-0.010375048965215683
1761476493404468500,1.033468505859375,-0.1523631513118744,0.03751832991838455,-0.020469725131988525
1761476493414501600,1.043501708984375,-0.15093784034252167,0.05407333746552467,-0.01511464174836874
1761476493424534500,1.053534423828125,-0.1467912346124649,0.05440165847539902,0.002214972861111164
1761476493434567700,1.063567626953125,-0.1428622603416443,0.0392589271068573,0.023306677117943764
1761476493444600600,1.0736005859375,-0.13465824723243713,0.01524156704545021,0.039716754108667374
1761476493454633700,1.0836337890625,-0.13163156807422638,0.005002511665225029,0.03703974559903145
1761476493464666600,1.09366650390625,-0.13103900849819183,0.011239901185035706,0.01617627590894699
1761476493474699800,1.10369970703125,-0.13171492516994476,0.03513830900192261,-0.02294342964887619
1761476493484733700,1.113733642578125,-0.1296178698539734,0.0609964020550251,-0.05827837437391281
1761476493494766600,1.1237666015625,-0.12187127023935318,0.07093318551778793,-0.07669306546449661
1761476493504799500,1.133799560546875,-0.1103159710764885,0.060562845319509506,-0.07210419327020645
1761476493514832600,1.14383251953125,-0.09672772139310837,0.054719071835279465,-0.059913307428359985
1761476493524865500,1.153865478515625,-0.08501200377941132,0.0378367081284523,-0.04758056253194809
1761476493534898400,1.1638984375,-0.077471524477005,0.03228135034441948,-0.04013170301914215
1761476493544931600,1.173931640625,-0.07620525360107422,0.011905021965503693,-0.03192932531237602
1761476493554964500,1.183964599609375,-0.07797811925411224,-0.007171733304858208,-0.022077759727835655
1761476493564997600,1.19399755859375,-0.08481670916080475,-0.011850293725728989,-0.014059478417038918
1761476493575030500,1.204030517578125,-0.09083279222249985,-0.00585844786837697,-0.009453008882701397
1761476493585063700,1.214063720703125,-0.09532691538333893,0.006814221385866404,-0.012065605260431767
1761476493595096600,1.2240966796875,-0.10018452256917953,0.01850017160177231,-0.008943847380578518
1761476493605129700,1.234129638671875,-0.10234716534614563,0.014917638152837753,-0.004911447409540415
1761476493615162600,1.24416259765625,-0.10269071161746979,0.011267242953181267,-0.0019199186936020851
1761476493625195500,1.254195556640625,-0.09822038561105728,0.010196862742304802,0.006954709999263287
1761476493635228700,1.264228759765625,-0.09585016965866089,0.014668043702840805,0.003069157712161541
1761476493645261600,1.274261474609375,-0.09317272901535034,0.009318882599473,-0.009255880489945412
1761476493655295500,1.28429541015625,-0.09155245125293732,0.007801413536071777,-0.027513980865478516
1761476493665332500,1.29433251953125,-0.0975322425365448,0.024046188220381737,-0.04315691068768501
1761476493675365600,1.30436572265625,-0.10480213910341263,0.026576990261673927,-0.04245623201131821
1761476493685398500,1.3143984375,-0.1178392842411995,0.020087173208594322,-0.032385896891355515
1761476493695431700,1.324431640625,-0.13386832177639008,0.019485564902424812,-0.019007239490747452
1761476493705464600,1.334464599609375,-0.14702141284942627,0.024942809715867043,-0.01272344309836626
1761476493715497700,1.344497802734375,-0.14995300769805908,0.026101550087332726,-0.011464300565421581
1761476493725530600,1.354530517578125,-0.1445387452840805,0.030562687665224075,-0.019598916172981262
1761476493735563500,1.3645634765625,-0.12754510343074799,0.041394028812646866,-0.021402409300208092
1761476493745596700,1.3745966796875,-0.11122800409793854,0.05884850397706032,-0.025953812524676323
1761476493755629600,1.384629638671875,-0.10166699439287186,0.07722830772399902,-0.0325656421482563
1761476493765662700,1.394662841796875,-0.09794257581233978,0.06651300936937332,-0.04464499652385712
1761476493775695600,1.404695556640625,-0.09658729285001755,0.038078173995018005,-0.05265232175588608
1761476493785728800,1.414728759765625,-0.10002925992012024,0.013396061025559902,-0.05508984252810478
1761476493795761700,1.42476171875,-0.10177895426750183,-0.009023759514093399,-0.05045514181256294
1761476493805794800,1.434794921875,-0.09942557662725449,-0.031083473935723305,-0.0441041961312294
1761476493815828500,1.444828369140625,-0.09428860992193222,-0.03711313754320145,-0.02808554843068123
1761476493825861600,1.454861572265625,-0.09057756513357162,-0.0458042249083519,-0.003507642075419426
1761476493835894500,1.46489453125,-0.0835161954164505,-0.046919822692871094,0.021233391016721725
1761476493845927700,1.474927734375,-0.07538832724094391,-0.030951179563999176,0.03113296627998352
1761476493855960600,1.484960693359375,-0.0650230348110199,-0.02814953401684761,0.03555887192487717
1761476493865993700,1.49499365234375,-0.052207086235284805,-0.030311254784464836,0.03499414026737213
1761476493876026600,1.505026611328125,-0.03637166693806648,-0.04032367467880249,0.03201858699321747
1761476493886059500,1.5150595703125,-0.02013513073325157,-0.0579194612801075,0.028786342591047287
1761476493896092700,1.5250927734375,-0.0062424857169389725,-0.07373704016208649,0.013562383130192757
1761476493906125600,1.53512548828125,0.00466076098382473,-0.07637453079223633,0.004475344903767109
1761476493916158700,1.54515869140625,0.010764991864562035,-0.07312680780887604,-0.015486111864447594
1761476493926191600,1.555191650390625,0.016422592103481293,-0.05936163291335106,-0.023708075284957886
1761476493936224800,1.565224853515625,0.02169645205140114,-0.04867224022746086,-0.03578178212046623
1761476493946257700,1.575257568359375,0.02481749653816223,-0.03548145294189453,-0.04272031784057617
1761476493956290800,1.585290771484375,0.025677166879177094,-0.022584296762943268,-0.04146251082420349
1761476493966323700,1.59532373046875,0.02623206377029419,-0.022547606378793716,-0.040332574397325516
1761476493976357600,1.605357666015625,0.02647600695490837,-0.024303162470459938,-0.030401380732655525
1761476493986390500,1.615390625,0.030657833442091942,-0.022652776911854744,-0.016039855778217316
1761476493996423700,1.625423583984375,0.03257504105567932,-0.029282717034220695,-0.0038172779604792595
1761476494006456600,1.63545654296875,0.03437435254454613,-0.035273633897304535,0.009488816373050213
1761476494016489500,1.645489501953125,0.035632163286209106,-0.04475635290145874,0.013675837777554989
1761476494026522600,1.655522705078125,0.03722550347447395,-0.04784771427512169,0.0185325276106596
1761476494036555500,1.665555419921875,0.042050354182720184,-0.05506248399615288,0.017134901136159897
1761476494046588700,1.675588623046875,0.05148101598024368,-0.04393742233514786,0.01673765480518341
1761476494056621600,1.68562158203125,0.05656685307621956,-0.02451924979686737,0.00951516255736351
1761476494066654700,1.69565478515625,0.06006957218050957,0.0019325180910527706,-0.00008849520236253738
1761476494076687600,1.7056875,0.06171247735619545,0.031945012509822845,-0.009650574997067451
1761476494086720800,1.715720703125,0.06433279812335968,0.05165174975991249,-0.00482349144294858
1761476494096753700,1.725753662109375,0.0683339387178421,0.037172675132751465,0.00707497913390398
1761476494106786800,1.735786865234375,0.08142057806253433,0.014884334057569504,0.01906689442694187
1761476494116819700,1.74581982421875,0.087919220328331,-0.0036677783355116844,0.021238701418042183
1761476494126853600,1.755853515625,0.09689708054065704,-0.016571303829550743,0.014687802642583847
1761476494136886500,1.765886474609375,0.09771254658699036,-0.01119518093764782,-0.004073902033269405
1761476494146919700,1.775919677734375,0.10063175857067108,-0.0004996312782168388,-0.025537747889757156
1761476494156952600,1.78595263671875,0.10191407799720764,0.013790357857942581,-0.039252229034900665
1761476494166985500,1.7959853515625,0.10455618053674698,0.025671232491731644,-0.03135933727025986
1761476494177018600,1.8060185546875,0.11263354867696762,0.028128530830144882,-0.016799036413431168
1761476494187051500,1.816051513671875,0.12722449004650116,0.025565259158611298,0.004375942051410675
1761476494197084700,1.826084716796875,0.13503794372081757,0.024764712899923325,0.01981322281062603
1761476494207117600,1.83611767578125,0.1354798972606659,0.02302379719913006,0.02027902938425541
1761476494217150700,1.846150634765625,0.13341568410396576,0.037386491894721985,0.013012593612074852
1761476494227183600,1.85618359375,0.12319908291101456,0.04646725207567215,0.0028134938329458237
1761476494237216800,1.866216796875,0.11442983150482178,0.04334203153848648,-0.008868728764355183
1761476494247249700,1.876249755859375,0.11549606174230576,0.034947920590639114,-0.011019491590559483
1761476494257282800,1.88628271484375,0.1209600642323494,0.021096020936965942,-0.011609913781285286
1761476494267315700,1.896315673828125,0.1264757663011551,0.005509836133569479,-0.006909848656505346
1761476494277348600,1.9063486328125,0.12670905888080597,0.010553596541285515,-0.0014804620295763016
1761476494287382500,1.916382568359375,0.1243397518992424,0.010496718809008598,-0.0010118316859006882
1761476494297415700,1.926415771484375,0.12964823842048645,0.01610933244228363,0.005712383426725864
1761476494307448600,1.936448486328125,0.13229303061962128,0.03804250434041023,0.009456242434680462
1761476494317481500,1.9464814453125,0.13619670271873474,0.05451655387878418,0.01746436581015587
1761476494327514600,1.9565146484375,0.1351071000099182,0.05477319285273552,0.02141410857439041
1761476494337547500,1.966547607421875,0.13206364214420319,0.05302083492279053,0.01839355006814003
1761476494347580700,1.97658056640625,0.13000650703907013,0.0328463613986969,0.0045551154762506485
1761476494357613600,1.986613525390625,0.13059879839420319,0.008324507623910904,-0.00431028101593256
1761476494367646700,1.996646728515625,0.1361047327518463,-0.01434154063463211,-0.006824390031397343
1761476494377679600,2.0066796875,0.13867707550525665,-0.05158398300409317,0.0009560352191329002
1761476494387712800,2.016712646484375,0.13679203391075134,-0.059037163853645325,0.008635703474283218
1761476494397745700,2.02674560546875,0.13146358728408813,-0.052835725247859955,0.010942000895738602
1761476494407778800,2.03677880859375,0.12363192439079285,-0.04827446490526199,0.012302946299314499
1761476494417811700,2.046811767578125,0.11615003645420074,-0.03676987811923027,-0.001398218795657158
1761476494427844600,2.0568447265625,0.11412326991558075,-0.0252027940005064,-0.010453490540385246
1761476494437878500,2.06687841796875,0.11386147886514664,-0.026848362758755684,-0.004705856554210186
1761476494447911700,2.07691162109375,0.11315557360649109,-0.01696794293820858,-0.002663220278918743
1761476494457944600,2.086944580078125,0.11883796751499176,-0.0021154936403036118,-0.004400933161377907
1761476494467977500,2.0969775390625,0.11917592585086823,0.029986515641212463,-0.009175980463624
1761476494478010600,2.1070107421875,0.11815433204174042,0.04688560590147972,-0.017026979476213455
1761476494488043500,2.11704345703125,0.1066749095916748,0.045621857047080994,-0.022172238677740097
1761476494498076700,2.12707666015625,0.10355555266141891,0.04101219028234482,-0.022577572613954544
1761476494508109600,2.137109619140625,0.10105130821466446,0.028480447828769684,-0.025961995124816895
1761476494518142700,2.147142822265625,0.098329558968544,0.026693999767303467,-0.024237066507339478
1761476494528175600,2.157175537109375,0.0949052944779396,0.03468932956457138,-0.02644238993525505
1761476494538208800,2.167208740234375,0.08518528938293457,0.041819408535957336,-0.02896839752793312
1761476494548241700,2.17724169921875,0.06931591033935547,0.03472120687365532,-0.02940518967807293
1761476494558274600,2.187274658203125,0.05676284059882164,0.015451371669769287,-0.01724972389638424
1761476494568307700,2.1973076171875,0.03992168977856636,0.0006098351441323757,-0.0075347586534917355
1761476494578341600,2.207341552734375,0.024305179715156555,-0.006788959261029959,0.007674820721149445
1761476494588374500,2.21737451171875,0.003923274576663971,-0.0022620102390646935,0.017960168421268463
1761476494598407400,2.227407470703125,-0.01563737727701664,0.02112906612455845,0.017300240695476532
1761476494608440600,2.237440673828125,-0.02565506100654602,0.04394471272826195,0.020798049867153168
1761476494618473500,2.247473388671875,-0.03231988847255707,0.05529111251235008,0.025677494704723358
1761476494628506600,2.257506591796875,-0.03208231180906296,0.04347420483827591,0.033602841198444366
1761476494638539500,2.26753955078125,-0.03088388964533806,0.030403943732380867,0.03608224540948868
1761476494648572700,2.27757275390625,-0.029624760150909424,0.022049691528081894,0.03227553889155388
1761476494658605600,2.28760546875,-0.031568337231874466,0.014728661626577377,0.023484177887439728
1761476494668635100,2.29763525390625,-0.02933851256966591,0.01817837730050087,0.004994810558855534
1761476494678668300,2.307668212890625,-0.027093734592199326,0.013159649446606636,-0.01184169389307499
1761476494688701200,2.317701171875,-0.016090193763375282,0.0017758519388735294,-0.03956644982099533
1761476494698734000,2.327734130859375,-0.01050874125212431,-0.014996470883488655,-0.056913744658231735
1761476494708767200,2.337767333984375,-0.016129499301314354,-0.020258493721485138,-0.06977690011262894
1761476494718800100,2.347800048828125,-0.02802104502916336,-0.024867894127964973,-0.07661695778369904
1761476494728834000,2.357833984375,-0.03557395562529564,-0.01570899412035942,-0.06748397648334503
1761476494738867000,2.367866943359375,-0.05268076807260513,0.0017064805142581463,-0.04244786500930786
1761476494748900000,2.377900146484375,-0.06667396426200867,0.0071468171663582325,-0.006157331634312868
1761476494758933000,2.38793310546875,-0.07463282346725464,0.008016339503228664,0.032076604664325714
1761476494768966100,2.397966064453125,-0.08104725927114487,0.006958032958209515,0.05950120463967323
1761476494778999000,2.4079990234375,-0.09347862750291824,0.0006332919001579285,0.07361622154712677
1761476494789032200,2.4180322265625,-0.11901507526636124,-0.010423380881547928,0.07688453793525696
1761476494799065000,2.428065185546875,-0.1457148790359497,-0.020699454471468925,0.0679411068558693
1761476494809098200,2.43809814453125,-0.1639643758535385,-0.026956796646118164,0.061316706240177155
1761476494819131100,2.448131103515625,-0.17002145946025848,-0.027148280292749405,0.046695418655872345
1761476494829164300,2.458164306640625,-0.170699343085289,-0.0384146086871624,0.0348408967256546
1761476494839197200,2.468197265625,-0.16568167507648468,-0.045854415744543076,0.020675010979175568
1761476494849230000,2.47822998046875,-0.162416011095047,-0.041823893785476685,0.0019412627443671227
1761476494859263200,2.48826318359375,-0.15804523229599,-0.024719208478927612,-0.013384697027504444
1761476494869297200,2.498297119140625,-0.1579289734363556,-0.015696873888373375,-0.01523875817656517
1761476494879330000,2.508330078125,-0.15765413641929626,-0.011240340769290924,-0.0036715837195515633
1761476494889363000,2.518363037109375,-0.16440656781196594,-0.024794159457087517,0.020495057106018066
1761476494899396000,2.52839599609375,-0.1822955310344696,-0.05695316195487976,0.040289800614118576
1761476494909429000,2.538428955078125,-0.206918865442276,-0.09116215258836746,0.053953349590301514
1761476494919462100,2.548462158203125,-0.23178640007972717,-0.10536452382802963,0.0696106031537056
1761476494929495000,2.5584951171875,-0.2506190836429596,-0.10240918397903442,0.08192523568868637
1761476494939528200,2.568528076171875,-0.25754305720329285,-0.07956485450267792,0.09196775406599045
1761476494949561000,2.57856103515625,-0.2539852261543274,-0.06656675785779953,0.09102443605661392
1761476494959594200,2.58859423828125,-0.24662131071090698,-0.0588047131896019,0.08817565441131592
1761476494969627100,2.598627197265625,-0.2421676516532898,-0.0521630197763443,0.07535829395055771
1761476494979660300,2.608660400390625,-0.244842529296875,-0.04514612257480621,0.05739234387874603
1761476494989693200,2.618693115234375,-0.24226444959640503,-0.04469171166419983,0.048703547567129135
1761476494999726000,2.62872607421875,-0.24367965757846832,-0.05841178074479103,0.04426964744925499
1761476495009760300,2.63876025390625,-0.2500384747982025,-0.06905907392501831,0.05671585723757744
1761476495019793200,2.648793212890625,-0.25907963514328003,-0.097112275660038,0.08502179384231567
1761476495029826000,2.658825927734375,-0.26770704984664917,-0.12297703325748444,0.13319078087806702
1761476495039859000,2.66885888671875,-0.2760845422744751,-0.1300048530101776,0.17871485650539398
1761476495049892000,2.67889208984375,-0.2748187184333801,-0.12354131042957306,0.22050929069519043
1761476495059925000,2.688925048828125,-0.26597702503204346,-0.10886409878730774,0.22872941195964813
1761476495069958100,2.698958251953125,-0.25319090485572815,-0.09733615815639496,0.20468825101852417
1761476495079991000,2.708990966796875,-0.24454602599143982,-0.0721714124083519,0.15399470925331116
1761476495090024200,2.719024169921875,-0.23182348906993866,-0.03893716260790825,0.09362951666116714
1761476495100057000,2.72905712890625,-0.21031633019447327,-0.010282084345817566,0.057871248573064804
1761476495110090200,2.73909033203125,-0.18288502097129822,0.004057030659168959,0.036980509757995605
1761476495120123100,2.749123046875,-0.16236723959445953,0.010546620935201645,0.034686461091041565
1761476495130156300,2.75915625,-0.156136617064476,0.013646268285810947,0.04266851395368576
1761476495140190200,2.769190185546875,-0.15972550213336945,0.013064101338386536,0.0419611781835556
1761476495150223400,2.779223388671875,-0.17405745387077332,0.014494337141513824,0.03324003890156746
1761476495160256300,2.78925634765625,-0.1936037242412567,0.010943545028567314,0.031107380986213684
1761476495170289200,2.7992890625,-0.212885782122612,0.01454676128923893,0.027596915140748024
1761476495180322000,2.809322021484375,-0.21810957789421082,0.011466816067695618,0.03502447158098221
1761476495190355000,2.81935498046875,-0.22011646628379822,0.00011240318417549133,0.04432564228773117
1761476495200388000,2.82938818359375,-0.21786528825759888,-0.010284312069416046,0.05322645604610443
1761476495210421000,2.8394208984375,-0.21487538516521454,-0.010579727590084076,0.04847799241542816
1761476495220454100,2.8494541015625,-0.20809444785118103,-0.0073706177063286304,0.03404712304472923
1761476495230487000,2.859487060546875,-0.20595307648181915,0.0006814030930399895,0.0059991078451275826
1761476495240520200,2.869520263671875,-0.2107427716255188,0.004789861384779215,-0.019812248647212982
1761476495250553000,2.879552978515625,-0.21207213401794434,-0.0020587891340255737,-0.03253716975450516
1761476495260586200,2.889586181640625,-0.2224390208721161,-0.016498714685440063,-0.0322684571146965
1761476495270619100,2.899619140625,-0.23847298324108124,-0.027295779436826706,-0.02293490804731846
1761476495280653300,2.9096533203125,-0.24956078827381134,-0.024649929255247116,-0.013941146433353424
1761476495290686200,2.919686279296875,-0.26629161834716797,-0.021910730749368668,-0.01306750625371933
1761476495300719400,2.92971923828125,-0.280333936214447,-0.008345654234290123,-0.02516677975654602
1761476495310752300,2.939752197265625,-0.29120782017707825,0.002943882020190358,-0.04707247018814087
1761476495320785200,2.94978515625,-0.2926179766654968,0.011966139078140259,-0.06229696050286293
1761476495330818300,2.959818359375,-0.2905626595020294,0.018037762492895126,-0.0683068335056305
1761476495340851000,2.969850830078125,-0.29056692123413086,0.02160213701426983,-0.05811038985848427
1761476495350884000,2.979884033203125,-0.29507970809936523,0.019132569432258606,-0.04315854236483574
1761476495360917000,2.9899169921875,-0.30329450964927673,0.01554049737751484,-0.034120574593544006
1761476495370950100,2.9999501953125,-0.3191511631011963,0.01745053566992283,-0.0200202614068985
1761476495380983000,3.009983154296875,-0.3364233672618866,0.018337367102503777,-0.013974886387586594
1761476495391016200,3.02001611328125,-0.34569883346557617,0.00707252137362957,-0.005734441336244345
1761476495401049000,3.030049072265625,-0.3538803160190582,-0.006319184321910143,-0.0007553957402706146
1761476495411083300,3.040083251953125,-0.3579784631729126,-0.020044714212417603,0.0004367586225271225
1761476495421116200,3.0501162109375,-0.35630226135253906,-0.030720259994268417,-0.001636778935790062
1761476495431149300,3.0601494140625,-0.3457588255405426,-0.03257929906249046,-0.008088081143796444
1761476495441182200,3.07018212890625,-0.3295026123523712,-0.02890920080244541,-0.008172502741217613
1761476495451215400,3.08021533203125,-0.3192320168018341,-0.03140479326248169,-0.00834417063742876
1761476495461248300,3.090248291015625,-0.31484633684158325,-0.035470373928546906,-0.0017962567508220673
1761476495471281200,3.10028125,-0.3130999803543091,-0.03904020041227341,0.014351129531860352
1761476495481314300,3.110314208984375,-0.31322914361953735,-0.042404305189847946,0.02119545266032219
1761476495491347200,3.12034716796875,-0.31507861614227295,-0.03972427919507027,0.023572849109768867
1761476495501380000,3.130380126953125,-0.31794363260269165,-0.03334307670593262,0.018382878974080086
1761476495511413000,3.1404130859375,-0.3136182129383087,-0.022878920659422874,0.017887603491544724
1761476495521446100,3.150446044921875,-0.30337783694267273,-0.020185399800539017,0.02093425765633583
1761476495531479000,3.16047900390625,-0.2898176312446594,-0.018313704058527946,0.02210916578769684
1761476495541513200,3.17051318359375,-0.2822822034358978,-0.0173198115080595,0.02031126618385315
1761476495551546000,3.180546142578125,-0.27880650758743286,-0.016156135126948357,0.01487269252538681
1761476495561579300,3.190579345703125,-0.2736338675022125,-0.019535420462489128,0.007183080539107323
1761476495571612200,3.200612060546875,-0.274228036403656,-0.026615887880325317,0.0012583546340465546
1761476495581645300,3.210645263671875,-0.26686492562294006,-0.03379976376891136,0.003662390634417534
1761476495591678200,3.22067822265625,-0.26181522011756897,-0.041140370070934296,0.021164562553167343
1761476495601711400,3.23071142578125,-0.2546241581439972,-0.03760822117328644,0.03648626059293747
1761476495611744300,3.240744140625,-0.2515731453895569,-0.030451489612460136,0.04794365167617798
1761476495621777200,3.250777099609375,-0.24772940576076508,-0.022280378267169,0.050322383642196655
1761476495631810300,3.260810302734375,-0.2430286705493927,-0.02144741266965866,0.045136358588933945
1761476495641843200,3.27084326171875,-0.23512308299541473,-0.026295162737369537,0.033577173948287964
1761476495651876000,3.2808759765625,-0.2238704264163971,-0.04039420560002327,0.027166415005922318
1761476495661909000,3.290908935546875,-0.2096363604068756,-0.04658019542694092,0.02260015904903412
1761476495671946800,3.30094677734375,-0.19025690853595734,-0.05025646835565567,0.020542467013001442
1761476495681979600,3.310979736328125,-0.17556317150592804,-0.05754740163683891,0.02126445062458515
1761476495692012800,3.3210126953125,-0.16343943774700165,-0.04710644111037254,0.015444000251591206
1761476495702045700,3.331045654296875,-0.1597387045621872,-0.024899940937757492,0.011122222058475018
1761476495712078800,3.341078857421875,-0.15703515708446503,-0.010310547426342964,0.010496716015040874
1761476495722111700,3.35111181640625,-0.1544066071510315,-0.0039349389262497425,0.012167316861450672
1761476495732145000,3.361144775390625,-0.14257416129112244,0.006067432463169098,0.014999106526374817
1761476495742177800,3.371177734375,-0.12878859043121338,0.017124345526099205,0.011069079861044884
1761476495752211000,3.3812109375,-0.10960102081298828,0.026981841772794724,0.009362044744193554
1761476495762243800,3.391243896484375,-0.09432353079319,0.02340894192457199,0.004943328909575939
1761476495772276700,3.40127685546875,-0.07856482267379761,0.013804980553686619,0.0008476022630929947
1761476495782310000,3.411309814453125,-0.062253765761852264,0.01089387945830822,-0.0031338240951299667
1761476495792342800,3.4213427734375,-0.050795603543519974,0.0156039297580719,-0.007580440025776625
1761476495802376700,3.431376708984375,-0.03398226574063301,0.02373402751982212,-0.012416208162903786
1761476495812409600,3.44140966796875,-0.023946834728121758,0.024136517196893692,-0.007440103683620691
1761476495822442800,3.45144287109375,-0.011954620480537415,0.03110441192984581,0.001584816724061966
1761476495832475600,3.4614755859375,-0.00042033102363348007,0.023099295794963837,0.004202468320727348
1761476495842508800,3.4715087890625,0.014027051627635956,0.019535720348358154,0.006372146308422089
1761476495852541700,3.481541748046875,0.026998046785593033,0.0017100116237998009,-0.00309585127979517
1761476495862574800,3.491574951171875,0.04202626645565033,-0.016449283808469772,-0.011700524017214775
1761476495872607700,3.501607666015625,0.051851749420166016,-0.035405512899160385,-0.014601713046431541
1761476495882641000,3.511640869140625,0.06902886927127838,-0.040698278695344925,-0.02054349146783352
1761476495892673800,3.521673828125,0.08444120734930038,-0.040810197591781616,-0.016064126044511795
1761476495902707000,3.53170703125,0.09588667750358582,-0.0452592708170414,-0.013882996514439583
1761476495912739800,3.54173974609375,0.10143459588289261,-0.047372687608003616,-0.0009242696687579155
1761476495922772700,3.551772705078125,0.10314008593559265,-0.05802373215556145,0.002429448999464512
1761476495932806700,3.561806640625,0.10481682419776917,-0.05476490408182144,-0.0033621368929743767
1761476495942839800,3.57183984375,0.09535594284534454,-0.05128335580229759,-0.015658218413591385
1761476495952872700,3.581872802734375,0.0961952805519104,-0.03015335276722908,-0.02192503586411476
1761476495962905600,3.591905517578125,0.10944318026304245,-0.021686896681785583,-0.01819128543138504
1761476495972938800,3.601938720703125,0.12123774737119675,-0.015170816332101822,-0.010363558307290077
1761476495982971600,3.6119716796875,0.13506515324115753,-0.010877000167965889,-0.0026640938594937325
1761476495993004800,3.6220048828125,0.14681558310985565,-0.00788799300789833,0.0021238401532173157
1761476496003037700,3.63203759765625,0.1519664078950882,-0.005856533534824848,-0.0057766935788095
1761476496013070800,3.64207080078125,0.15633995831012726,0.0016132192686200142,-0.02157224901020527
1761476496023103700,3.652103759765625,0.16089023649692535,0.00925995409488678,-0.03747584670782089
1761476496033137000,3.662136962890625,0.16469740867614746,0.021211640909314156,-0.054500505328178406
1761476496043169800,3.672169677734375,0.1682197004556656,0.03285391628742218,-0.051376618444919586
1761476496053202700,3.68220263671875,0.17276528477668762,0.0438830628991127,-0.04369400441646576
1761476496063236600,3.692236572265625,0.18275852501392365,0.05272848531603813,-0.03351140767335892
1761476496073269800,3.702269775390625,0.1865185648202896,0.05977218598127365,-0.032928917557001114
1761476496083302700,3.712302734375,0.19221161305904388,0.06842639297246933,-0.0375356525182724
1761476496093335600,3.72233544921875,0.19833827018737793,0.06891617178916931,-0.046195562928915024
1761476496103368700,3.73236865234375,0.20163126289844513,0.06668338179588318,-0.05395468324422836
1761476496113401600,3.742401611328125,0.20814530551433563,0.06799617409706116,-0.05772635340690613
1761476496123434800,3.752434814453125,0.20780788362026215,0.06645793467760086,-0.06184173375368118
1761476496133467600,3.762467529296875,0.2089173048734665,0.0633409172296524,-0.06153103709220886
1761476496143500800,3.772500732421875,0.20347432792186737,0.05342995747923851,-0.05867533013224602
1761476496153533700,3.78253369140625,0.1964455544948578,0.05167738348245621,-0.05492226779460907
1761476496163566800,3.79256689453125,0.19386067986488342,0.055095549672842026,-0.04694636911153793
1761476496173599700,3.802599853515625,0.1959547996520996,0.06529265642166138,-0.051160942763090134
1761476496183634000,3.812634033203125,0.1956208348274231,0.06398211419582367,-0.05211595073342323
1761476496193666800,3.822666748046875,0.19890861213207245,0.04957796260714531,-0.04829432815313339
1761476496203699700,3.83269970703125,0.20579154789447784,0.024037715047597885,-0.05147227644920349
1761476496213732600,3.842732666015625,0.21515153348445892,0.007283840328454971,-0.05212230235338211
1761476496223765800,3.852765869140625,0.21726848185062408,-0.006077238824218512,-0.05518733337521553
1761476496233798700,3.862798583984375,0.21651136875152588,-0.010696882382035255,-0.05168198049068451
1761476496243831600,3.87283154296875,0.21401652693748474,-0.004739922937005758,-0.04312923550605774
1761476496253864700,3.88286474609375,0.2019204944372177,0.008942210115492344,-0.03682010620832443
1761476496263897600,3.892897705078125,0.18737298250198364,0.020115235820412636,-0.029359791427850723
1761476496273930800,3.9029306640625,0.17056012153625488,0.031084652990102768,-0.02028277888894081
1761476496283963600,3.912963623046875,0.16213814914226532,0.026974063366651535,-0.012409674935042858
1761476496293996800,3.922996826171875,0.15980097651481628,0.023978080600500107,-0.009412767365574837
1761476496304029700,3.93302978515625,0.16753000020980835,0.022648897022008896,-0.01917964406311512
1761476496314064000,3.94306396484375,0.1814226359128952,0.03431631624698639,-0.028889857232570648
1761476496324096800,3.9530966796875,0.1987432986497879,0.0506308414041996,-0.047940514981746674
1761476496334130000,3.9631298828125,0.20933589339256287,0.07274270057678223,-0.06407789885997772
1761476496344162800,3.973162841796875,0.22058507800102234,0.08770513534545898,-0.07168468087911606
1761476496354195700,3.98319580078125,0.22323571145534515,0.09045123308897018,-0.06522951275110245
1761476496364228600,3.993228515625,0.22085484862327576,0.08453422039747238,-0.04960128292441368
1761476496374261800,4.00326171875,0.21101121604442596,0.07041860371828079,-0.03377527371048927
1761476496384294700,4.013294677734375,0.20158682763576508,0.05848844349384308,-0.01852761209011078
1761476496394324700,4.02332470703125,0.1941068321466446,0.05329444259405136,-0.019915003329515457
1761476496404357600,4.033357666015625,0.19056615233421326,0.05377301573753357,-0.02883392944931984
1761476496414390800,4.043390869140625,0.19699430465698242,0.05217093974351883,-0.03438207507133484
1761476496424423700,4.053423583984375,0.20187534391880035,0.05284605175256729,-0.03867242857813835
1761476496434456800,4.063456787109375,0.2146555632352829,0.05209554731845856,-0.025819405913352966
1761476496444489700,4.07348974609375,0.21934592723846436,0.04917698726058006,-0.008657196536660194
1761476496454523000,4.08352294921875,0.2174295037984848,0.05456573888659477,0.012115130200982094
1761476496464555800,4.0935556640625,0.2141578197479248,0.046827659010887146,0.02045108936727047
1761476496474588700,4.103588623046875,0.20580939948558807,0.030798865482211113,0.022310858592391014
1761476496484621800,4.113621826171875,0.19929903745651245,0.010179075412452221,0.015803156420588493
1761476496494654700,4.12365478515625,0.1957424283027649,-0.004573013633489609,0.008891035802662373
1761476496504688600,4.133688720703125,0.1957959532737732,-0.025255123153328896,-0.002089444547891617
1761476496514721500,4.143721435546875,0.1929592341184616,-0.04238852113485336,-0.0025074267759919167
1761476496524754700,4.153754638671875,0.19192273914813995,-0.04743680730462074,-0.0016602752730250359
1761476496534787600,4.16378759765625,0.1824551671743393,-0.04456111788749695,0.0007636910304427147
1761476496544820700,4.17382080078125,0.1740262657403946,-0.03956316411495209,0.006569915451109409
1761476496554853600,4.183853515625,0.1628633737564087,-0.038580119609832764,0.016576528549194336
1761476496564886800,4.19388671875,0.1507558524608612,-0.03168732672929764,0.027899757027626038
1761476496574919700,4.203919677734375,0.13658744096755981,-0.031016133725643158,0.037234168499708176
1761476496584952800,4.213952880859375,0.11933174729347229,-0.018236152827739716,0.04422736167907715
1761476496594985700,4.22398583984375,0.10176068544387817,-0.012458905577659607,0.035453956574201584
1761476496605019000,4.234018798828125,0.09182389825582504,-0.005861723329871893,0.02514432743191719
1761476496615051800,4.2440517578125,0.08390149474143982,-0.00232450058683753,0.00906305480748415
1761476496625084700,4.254084716796875,0.07896825671195984,-0.001642465591430664,-0.003127564676105976
1761476496635118800,4.264118896484375,0.07682786881923676,-0.009172553196549416,-0.009215816855430603
1761476496645151700,4.27415185546875,0.07217639684677124,-0.011675393208861351,-0.0030359523370862007
1761476496655184600,4.2841845703125,0.06844990700483322,-0.004078861325979233,0.0061467718333005905
1761476496665217500,4.294217529296875,0.05538683757185936,0.0021782354451715946,0.014047836884856224
1761476496675244800,4.304244873046875,0.03990025445818901,0.012590410187840462,0.01740657538175583
1761476496685277700,4.314277587890625,0.021509528160095215,0.019715696573257446,0.018670514225959778
1761476496695310800,4.324310791015625,0.004349656403064728,0.02407321333885193,0.019465312361717224
1761476496705343700,4.33434375,-0.00523346196860075,0.02570812776684761,0.02665078639984131
1761476496715377000,4.344376953125,-0.011144391261041164,0.015069188550114632,0.0383712537586689
1761476496725409800,4.354409912109375,-0.01271592266857624,0.004906565882265568,0.037435952574014664
1761476496735442700,4.364442626953125,-0.013340575620532036,0.004153055138885975,0.02874583564698696
1761476496745475800,4.374475830078125,-0.006676814518868923,0.0028651501052081585,0.011552201583981514
1761476496755508700,4.3845087890625,-0.0017460058443248272,-0.003668900579214096,-0.010366450995206833
1761476496765542000,4.3945419921875,0.0033036135137081146,-0.017021724954247475,-0.02858007699251175
1761476496775575600,4.404575439453125,0.0031027700752019882,-0.027071040123701096,-0.03895372897386551
1761476496785608700,4.414608642578125,0.0004049884155392647,-0.0342692993581295,-0.03643837198615074
1761476496795641600,4.4246416015625,-0.009818811900913715,-0.040822941809892654,-0.03427440673112869
1761476496805674800,4.4346748046875,-0.026762373745441437,-0.029861103743314743,-0.027921438217163086
1761476496815707600,4.444707763671875,-0.04646022990345955,-0.011391050182282925,-0.010629166848957539
1761476496825740800,4.45474072265625,-0.06409834325313568,0.004184181336313486,0.014366730116307735
1761476496835773700,4.464773681640625,-0.07483531534671783,0.011518195271492004,0.04443161562085152
1761476496845806800,4.474806884765625,-0.08817509561777115,0.006506392732262611,0.062296900898218155
1761476496855839700,4.48483984375,-0.10047899931669235,0.0082196444272995,0.05258263647556305
1761476496865873000,4.494872802734375,-0.10679468512535095,0.011749131605029106,0.03490243852138519
1761476496875905800,4.50490576171875,-0.11127503216266632,0.010652700439095497,0.006607439368963242
1761476496885938700,4.514938720703125,-0.10925289988517761,0.00593091594055295,-0.015067762695252895
1761476496895971800,4.524971923828125,-0.10530618578195572,-0.0018025720492005348,-0.03053639642894268
1761476496906004700,4.535004638671875,-0.10000889748334885,-0.010989412665367126,-0.024117644876241684
1761476496916038700,4.54503857421875,-0.10084512829780579,-0.026578493416309357,-0.004233952611684799
1761476496926071600,4.555071533203125,-0.1066388338804245,-0.02629193663597107,0.01441163755953312
1761476496936104700,4.565104736328125,-0.11569411307573318,-0.01392969861626625,0.03133596479892731
1761476496946137600,4.5751376953125,-0.12438987195491791,0.009558316320180893,0.04372765123844147
1761476496956170800,4.585170654296875,-0.13200584053993225,0.03432898595929146,0.046678461134433746
1761476496966203600,4.59520361328125,-0.13486048579216003,0.057547759264707565,0.047893933951854706
1761476496976236800,4.60523681640625,-0.13275550305843353,0.07505198568105698,0.050473254173994064
1761476496986269700,4.615269775390625,-0.13128410279750824,0.08542899042367935,0.05653833970427513
1761476496996302800,4.625302734375,-0.128866046667099,0.09031116962432861,0.06798014044761658
1761476497006335700,4.635335693359375,-0.1282263547182083,0.08591561764478683,0.07812252640724182
1761476497016368600,4.64536865234375,-0.12851981818675995,0.06990327686071396,0.07775633782148361
1761476497026401800,4.65540185546875,-0.13050468266010284,0.06888275593519211,0.06944221258163452
1761476497036434700,4.6654345703125,-0.13843679428100586,0.06300969421863556,0.053760167211294174
1761476497046467800,4.6754677734375,-0.13762719929218292,0.06279318034648895,0.034807782620191574
1761476497056501800,4.685501708984375,-0.13321954011917114,0.05713263526558876,0.019299376755952835
1761476497066534700,4.69553466796875,-0.12703195214271545,0.05705780163407326,0.011070474982261658
1761476497076567600,4.705567626953125,-0.12284737825393677,0.06357529759407043,0.0074077388271689415
1761476497086600700,4.7156005859375,-0.11929312348365784,0.06989604979753494,0.018327496945858
1761476497096633600,4.725633544921875,-0.11550877243280411,0.07617221027612686,0.026567384600639343
1761476497106666800,4.735666748046875,-0.11451142281293869,0.06916409730911255,0.03863310068845749
1761476497116699600,4.74569970703125,-0.11973612010478973,0.05902863293886185,0.04759172722697258
1761476497126732800,4.75573291015625,-0.12551064789295197,0.05758759379386902,0.05951070412993431
1761476497136765700,4.765765625,-0.13368836045265198,0.04960128292441368,0.06491034477949142
1761476497146798800,4.775798828125,-0.13928233087062836,0.043360162526369095,0.07448413968086243
1761476497156831700,4.785831787109375,-0.13493049144744873,0.030989287421107292,0.091293103992939
1761476497166864600,4.79586474609375,-0.1271367371082306,0.005913230124861002,0.10578922182321548
1761476497176897800,4.805897705078125,-0.11983169615268707,-0.009585302323102951,0.10605739802122116
1761476497186930700,4.8159306640625,-0.10714812576770782,-0.035053908824920654,0.08817028254270554
1761476497196964900,4.82596484375,-0.0921076163649559,-0.051406290382146835,0.05988895148038864
1761476497206997800,4.835997802734375,-0.08557834476232529,-0.043835725635290146,0.036690421402454376
1761476497217030700,4.84603076171875,-0.08721921592950821,-0.025309912860393524,0.03075750358402729
1761476497227063600,4.8560634765625,-0.0873960554599762,-0.007601223420351744,0.0414024218916893
1761476497237096700,4.8660966796875,-0.07982304692268372,0.00330909201875329,0.05975037440657616
1761476497247129600,4.876129638671875,-0.05686979368329048,0.020911522209644318,0.07407445460557938
1761476497257162800,4.886162841796875,-0.023311622440814972,0.018873877823352814,0.07671968638896942
1761476497267195600,4.896195556640625,0.00919518806040287,0.014953971840441227,0.05382448807358742
1761476497277228800,4.906228759765625,0.038177091628313065,0.02526126243174076,0.042051006108522415
1761476497287261700,4.91626171875,0.06869904696941376,0.059400856494903564,0.06396695971488953
1761476497297294800,4.926294921875,0.1069425567984581,0.06365065276622772,0.0986468568444252
1761476497307327700,4.93632763671875,0.15480302274227142,0.07223828136920929,0.11866636574268341
1761476497317360600,4.946360595703125,0.16528689861297607,0.12826642394065857,0.1237763911485672
1761476497327393800,4.956393798828125,0.14959102869033813,0.10802719742059708,0.07548315823078156
1761476497337428000,4.966427978515625,0.11715235561132431,0.051186833530664444,-0.004327825270593166
1761476497347460900,4.9764609375,0.07640945911407471,0.011734765022993088,-0.07614102959632874
1761476497357493800,4.98649365234375,0.057056035846471786,-0.022749457508325577,-0.13200825452804565
1761476497367526700,4.996526611328125,0.052108682692050934,-0.06844184547662735,-0.16729913651943207
1761476497377559600,5.0065595703125,0.05951495096087456,-0.09345566481351852,-0.1937834769487381
1761476497387592700,5.0165927734375,0.078653484582901,-0.09978973120450974,-0.21604856848716736
1761476497397625600,5.02662548828125,0.10174453258514404,-0.10529623180627823,-0.24503156542778015
1761476497407658800,5.03665869140625,0.13680239021778107,-0.10663021355867386,-0.2846364974975586
1761476497417691600,5.046691650390625,0.18066653609275818,-0.07321492582559586,-0.3318209946155548
1761476497427724800,5.056724853515625,0.22193168103694916,-0.009245796129107475,-0.3631722629070282
1761476497437757700,5.0667578125,0.2581287920475006,0.034875448793172836,-0.3379935026168823
1761476497447790800,5.076790771484375,0.2836911380290985,0.03278247267007828,-0.25526562333106995
1761476497457823700,5.08682373046875,0.29237109422683716,0.01370096206665039,-0.12549522519111633
1761476497467856600,5.096856689453125,0.2755476236343384,-0.030941341072320938,-0.0036753127351403236
1761476497477890800,5.106890869140625,0.24604956805706024,-0.04489339515566826,0.07746913284063339
1761476497487924000,5.116924072265625,0.21249108016490936,-0.04760422557592392,0.11873161792755127
1761476497497956900,5.126956787109375,0.19327150285243988,-0.05205654352903366,0.1316440850496292
1761476497507989800,5.13698974609375,0.1778605878353119,-0.05666087940335274,0.13776323199272156
1761476497518022700,5.147022705078125,0.1784028559923172,-0.08025312423706055,0.14302460849285126
1761476497528055600,5.1570556640625,0.20662836730480194,-0.10764959454536438,0.13918939232826233
1761476497538088700,5.167088623046875,0.23549160361289978,-0.1637096405029297,0.11567462235689163
1761476497548121600,5.17712158203125,0.2669413983821869,-0.2220776081085205,0.07045095413923264
1761476497558154800,5.18715478515625,0.28714361786842346,-0.23005907237529755,0.0024912646040320396
1761476497568187600,5.197187744140625,0.3106529414653778,-0.20048360526561737,-0.07115446031093597
1761476497578220800,5.207220703125,0.31477051973342896,-0.16128520667552948,-0.13502384722232819
1761476497588253700,5.217253662109375,0.31055527925491333,-0.09622897207736969,-0.17419308423995972
1761476497598286600,5.22728662109375,0.30657562613487244,-0.05418446660041809,-0.18157729506492615
1761476497608319700,5.23731982421875,0.3025156259536743,-0.09885313361883163,-0.17031213641166687
1761476497618354000,5.24735400390625,0.2835482358932495,-0.1451653242111206,-0.13877204060554504
1761476497628386800,5.25738671875,0.24279893934726715,-0.1608891636133194,-0.10675737261772156
1761476497638419700,5.267419677734375,0.19136527180671692,-0.14635156095027924,-0.061788927763700485
1761476497648452900,5.277452880859375,0.14576183259487152,-0.10263071209192276,-0.023356584832072258
1761476497658485800,5.28748583984375,0.11505058407783508,-0.02860456146299839,0.01326788030564785
1761476497668518700,5.2975185546875,0.09978055953979492,0.041720468550920486,0.029744058847427368
1761476497678550300,5.30755029296875,0.09706275165081024,0.08131309598684311,0.03966477885842323
1761476497688583200,5.317583251953125,0.09789019078016281,0.08700453490018845,0.04437830671668053
1761476497698616300,5.3276162109375,0.10290347039699554,0.06546381115913391,0.037982210516929626
1761476497708649200,5.337649169921875,0.10838718712329865,0.029026446864008904,0.02794848568737507
1761476497718682400,5.347682373046875,0.1085495725274086,0.0015687528066337109,0.016500279307365417
1761476497728715300,5.35771533203125,0.11503037065267563,-0.012963050976395607,-0.00487851444631815
1761476497738748400,5.36774853515625,0.12909184396266937,-0.019916106015443802,-0.0357147753238678
1761476497748781300,5.37778125,0.1347726285457611,-0.03470543771982193,-0.07005038112401962
1761476497758814200,5.387814208984375,0.13033947348594666,-0.052607662975788116,-0.10493801534175873
1761476497768848100,5.39784814453125,0.12400408834218979,-0.05059884116053581,-0.14577654004096985
1761476497778881300,5.40788134765625,0.1185474693775177,-0.04275527223944664,-0.1731235533952713
1761476497788914200,5.4179140625,0.11728726327419281,-0.04366154596209526,-0.190219447016716
1761476497798947300,5.427947265625,0.11017400026321411,-0.05822596698999405,-0.18787895143032074
1761476497808980200,5.437980224609375,0.1044790968298912,-0.07823828607797623,-0.17451387643814087
1761476497819013400,5.448013427734375,0.11108355224132538,-0.09088506549596786,-0.14679743349552155
1761476497829046300,5.45804638671875,0.12298548221588135,-0.08787542581558228,-0.1269931048154831
1761476497839079200,5.4680791015625,0.13453470170497894,-0.06922915577888489,-0.10712077468633652
1761476497849112300,5.4781123046875,0.14088661968708038,-0.058971986174583435,-0.10063225030899048
1761476497859145200,5.488145263671875,0.14969554543495178,-0.05038968473672867,-0.12121981382369995
1761476497869178400,5.498178466796875,0.16871291399002075,-0.06327379494905472,-0.16023698449134827
1761476497879211300,5.508211181640625,0.1999763697385788,-0.11079154163599014,-0.2076755315065384
1761476497889244400,5.518244384765625,0.23097078502178192,-0.1741097867488861,-0.257077157497406
1761476497899277300,5.52827734375,0.2427162528038025,-0.21851499378681183,-0.3072851896286011
1761476497909310500,5.538310546875,0.22492261230945587,-0.2279053032398224,-0.34488314390182495
1761476497919344000,5.54834423828125,0.1925075650215149,-0.1962585300207138,-0.3687761723995209
1761476497929377300,5.558377197265625,0.16199839115142822,-0.13689826428890228,-0.3601837456226349
1761476497939410200,5.56841015625,0.13549016416072845,-0.07206039875745773,-0.31871676445007324
1761476497949443300,5.578443359375,0.12252535670995712,-0.062333203852176666,-0.2551993131637573
1761476497959476200,5.588476318359375,0.1194322481751442,-0.076783686876297,-0.17926464974880219
1761476497969509400,5.59850927734375,0.11907165497541428,-0.09263162314891815,-0.10125773400068283
1761476497979542300,5.608542236328125,0.10576388984918594,-0.0986253023147583,-0.0416746623814106
1761476497989575200,5.6185751953125,0.09894593060016632,-0.08305539190769196,-0.0030705463141202927
1761476497999608300,5.6286083984375,0.10571795701980591,-0.039181046187877655,-0.0008077053353190422
1761476498009641200,5.63864111328125,0.11498335748910904,0.007411756087094545,-0.01036658976227045
1761476498019674400,5.64867431640625,0.12363073229789734,0.022308168932795525,-0.023271791636943817
1761476498029707300,5.658707275390625,0.12505604326725006,0.011801732704043388,-0.0386214554309845
1761476498039740400,5.668740478515625,0.11646716296672821,-0.013769702985882759,-0.05233239382505417
1761476498049773300,5.678773193359375,0.09703540802001953,-0.03771338239312172,-0.06178528442978859
1761476498059806500,5.688806396484375,0.07107333838939667,-0.06660030782222748,-0.06590181589126587
1761476498069840100,5.698840087890625,0.052219491451978683,-0.09397067129611969,-0.06739025563001633
1761476498079873300,5.708873291015625,0.0398082435131073,-0.1088176965713501,-0.06173055246472359
1761476498089906200,5.71890625,0.03644919767975807,-0.10530871152877808,-0.059307344257831573
1761476498099939300,5.728939208984375,0.03757219761610031,-0.08088945597410202,-0.051186393946409225
1761476498109972200,5.73897216796875,0.03888353705406189,-0.04323182255029678,-0.03678961098194122
1761476498120005000,5.749005126953125,0.03623910993337631,-0.021578414365649223,-0.016734011471271515
1761476498130038300,5.759038330078125,0.032839320600032806,-0.010683955624699593,0.007444827817380428
1761476498140071200,5.7690712890625,0.024910397827625275,-0.02102356031537056,0.014772431924939156
1761476498150104300,5.779104248046875,0.014056152664124966,-0.054644905030727386,0.004560541361570358
1761476498160137200,5.78913720703125,-0.00016123522073030472,-0.08835861831903458,-0.0157533697783947
1761476498170170400,5.79917041015625,-0.02206360548734665,-0.10265260189771652,-0.04290642961859703
1761476498180203300,5.809203369140625,-0.03440157696604729,-0.0845886692404747,-0.06804980337619781
1761476498190236400,5.819236328125,-0.02528051659464836,-0.04261591657996178,-0.07526937127113342
1761476498200269300,5.829269287109375,-0.002747963648289442,0.007952737621963024,-0.06943950057029724
1761476498210302500,5.839302490234375,0.012720474973320961,0.03352121636271477,-0.0536046102643013
1761476498220336000,5.849336181640625,0.018295764923095703,0.03927365690469742,-0.02349468320608139
1761476498230369300,5.859369384765625,0.014193966053426266,0.039983123540878296,0.002133447676897049
1761476498240402200,5.869402099609375,0.005695643834769726,0.039245203137397766,0.031783878803253174
1761476498250435300,5.879435302734375,-0.009220189414918423,0.03393859043717384,0.05761361122131348
1761476498260468200,5.88946826171875,-0.01943822205066681,0.028506893664598465,0.0783412754535675
1761476498270501000,5.899501220703125,-0.02839869260787964,0.033436939120292664,0.08289874345064163
1761476498280534300,5.9095341796875,-0.03520698845386505,0.03185754641890526,0.06790076196193695
1761476498290567200,5.919567138671875,-0.043787695467472076,0.02724495157599449,0.04786553233861923
1761476498300600300,5.929600341796875,-0.041253603994846344,0.014344374649226665,0.021689720451831818
1761476498310633200,5.93963330078125,-0.039753176271915436,0.0062803225591778755,0.0002336958423256874
1761476498320666400,5.949666259765625,-0.036126136779785156,0.002315858379006386,-0.009724651463329792
1761476498330699300,5.95969921875,-0.029940415173768997,0.0032524922862648964,-0.014299429953098297
1761476498340732400,5.969732421875,-0.025219354778528214,-0.0007780729793012142,-0.009380694478750229
1761476498350765300,5.979765380859375,-0.01864108070731163,-0.003456946462392807,0.007413998246192932
1761476498360798500,5.989798583984375,-0.03005073592066765,-0.017627226188778877,0.030074933543801308
1761476498370831400,5.999831298828125,-0.04520891606807709,-0.035961493849754333,0.05770736187696457
1761476498380865300,6.009865234375,-0.06396376341581345,-0.0440279096364975,0.08560948818922043
1761476498390898200,6.019898193359375,-0.0753312036395073,-0.035651735961437225,0.0936887189745903
1761476498400931300,6.029931396484375,-0.08205787092447281,-0.017063196748495102,0.08910825848579407
1761476498410964200,6.039964111328125,-0.07587774097919464,0.016142159700393677,0.06669456511735916
1761476498420997000,6.0499970703125,-0.06407490372657776,0.04423375055193901,0.03761112689971924
1761476498431030300,6.0600302734375,-0.049775853753089905,0.05898739770054817,0.010714532807469368
1761476498441063200,6.070063232421875,-0.041362278163433075,0.059358544647693634,-0.011229336261749268
1761476498451096300,6.080096435546875,-0.03960006311535835,0.046660587191581726,-0.027513766661286354
1761476498461129200,6.090129150390625,-0.040387727320194244,0.042382847517728806,-0.025766201317310333
1761476498471162400,6.100162353515625,-0.04071290045976639,0.04267127066850662,-0.014109812676906586
1761476498481195300,6.1101953125,-0.034795016050338745,0.04971972107887268,0.00583900511264801
1761476498491228400,6.120228515625,-0.03044074773788452,0.0601063147187233,0.035057611763477325
1761476498501261300,6.13026123046875,-0.028729647397994995,0.05862593650817871,0.07016851007938385
1761476498511294500,6.14029443359375,-0.03333079069852829,0.0516524501144886,0.09117206186056137
1761476498521327400,6.150327392578125,-0.04279617965221405,0.04094832018017769,0.09411270916461945
1761476498531360300,6.1603603515625,-0.04404786601662636,0.033209703862667084,0.07563623040914536
1761476498541393400,6.170393310546875,-0.04354662075638771,0.022731540724635124,0.051586732268333435
1761476498551427300,6.18042724609375,-0.03790125250816345,0.02330252155661583,0.03971648961305618
1761476498561460200,6.190460205078125,-0.03385459631681442,0.02747146412730217,0.030462946742773056
1761476498571493000,6.2004931640625,-0.029659319669008255,0.027930062264204025,0.031012356281280518
1761476498581526300,6.2105263671875,-0.030153393745422363,0.02837725356221199,0.03485647216439247
1761476498591559200,6.22055908203125,-0.03168018162250519,0.035212524235248566,0.03970368951559067
1761476498601592300,6.23059228515625,-0.027532100677490234,0.03238781541585922,0.03589055687189102
1761476498611625200,6.240625244140625,-0.019343946129083633,0.028435416519641876,0.025874407961964607
1761476498621658400,6.250658447265625,-0.013966167345643044,0.01747256889939308,0.0158223956823349
1761476498631691300,6.260691162109375,-0.012252955697476864,0.006612997967749834,0.002514580264687538
1761476498641724400,6.270724365234375,-0.018279407173395157,-0.0009115268476307392,-0.004909655544906855
1761476498651757300,6.28075732421875,-0.027851872146129608,0.010544059798121452,-0.003289921209216118
1761476498661790200,6.290790283203125,-0.03381466865539551,0.027897926047444344,0.005122187547385693
1761476498671823600,6.30082373046875,-0.03793004900217056,0.051197122782468796,0.01843985542654991
1761476498681856800,6.310856689453125,-0.03908325731754303,0.06940749287605286,0.027860168367624283
1761476498691889700,6.3208896484375,-0.039000701159238815,0.06393656134605408,0.043214887380599976
1761476498701922800,6.3309228515625,-0.0403834767639637,0.044043395668268204,0.050638433545827866
1761476498711955700,6.340955810546875,-0.031077060848474503,0.026037761941552162,0.0518893264234066
1761476498721988600,6.350988525390625,-0.01968873292207718,0.007634630426764488,0.04149091988801956
1761476498732022800,6.361022705078125,-0.0033939164131879807,0.011653340421617031,0.029215343296527863
1761476498742056000,6.371055908203125,0.004453682340681553,0.017887957394123077,0.021510833874344826
1761476498752088800,6.3810888671875,0.006982619874179363,0.017820049077272415,0.01653924584388733
1761476498762121700,6.391121826171875,0.003019111230969429,0.020277904346585274,0.010860002599656582
1761476498772155000,6.40115478515625,0.004248159937560558,0.017583318054676056,0.016312293708324432
1761476498782187800,6.411187744140625,0.003611302934587002,0.010068475268781185,0.02110152319073677
1761476498792221000,6.421220947265625,0.0031817350536584854,0.0010946877300739288,0.03074057027697563
1761476498802253800,6.43125390625,-0.002610523719340563,-0.00048259133473038673,0.034459587186574936
1761476498812287000,6.441286865234375,-0.005160233937203884,0.01139643881469965,0.03305689990520477
1761476498822319900,6.45131982421875,-0.005745298694819212,0.03042849525809288,0.029308944940567017
1761476498832352800,6.461352783203125,-0.008720848709344864,0.05249758064746857,0.027415703982114792
1761476498842385700,6.4713857421875,-0.004091090988367796,0.062375620007514954,0.023677602410316467
1761476498852418800,6.481418701171875,0.008270769380033016,0.06308748573064804,0.02478121593594551
1761476498862451700,6.49145166015625,0.025727372616529465,0.04674846678972244,0.028455030173063278
1761476498872484600,6.501484619140625,0.049495816230773926,0.017715483903884888,0.022015772759914398
1761476498882517800,6.511517822265625,0.05836161598563194,-0.005797507707029581,0.016017701476812363
1761476498892550700,6.521550537109375,0.06069587543606758,-0.005503494758158922,0.00005284976214170456
1761476498902583800,6.531583740234375,0.0562845915555954,0.0008707339875400066,-0.010411428287625313
1761476498912616700,6.54161669921875,0.05020992457866669,0.010998468846082687,-0.020293885841965675
1761476498922649900,6.55164990234375,0.04550959914922714,0.020035097375512123,-0.014476992189884186
1761476498932682800,6.561682861328125,0.04622838646173477,0.03254343196749687,0.0015009092167019844
1761476498942716000,6.5717158203125,0.055542558431625366,0.030890289694070816,0.01729249581694603
1761476498952748800,6.581748779296875,0.06929671764373779,0.021968167275190353,0.029612544924020767
1761476498962782000,6.591781982421875,0.07933077216148376,0.012352879159152508,0.030898943543434143
1761476498972814800,6.60181494140625,0.08424191176891327,0.008387965150177479,0.03248325735330582
1761476498982848800,6.611848876953125,0.09435556083917618,0.0012183496728539467,0.020510589703917503
1761476498992881700,6.621881591796875,0.10630223900079727,-0.005614256486296654,0.007930083200335503
1761476499002914800,6.631914794921875,0.1109849214553833,-0.014596877619624138,-0.009257529862225056
1761476499012947700,6.64194775390625,0.11820156127214432,-0.023923266679048538,-0.0203301552683115
1761476499022980600,6.651980712890625,0.12580716609954834,-0.023522302508354187,-0.029697462916374207
1761476499033013800,6.662013671875,0.13671839237213135,-0.005761149805039167,-0.03928537666797638
1761476499043046700,6.672046630859375,0.14252692461013794,0.01951500214636326,-0.03611627221107483
1761476499053079800,6.682079833984375,0.15438757836818695,0.034355998039245605,-0.028230387717485428
1761476499063112700,6.69211279296875,0.1674809753894806,0.03679634630680084,-0.017986517399549484
1761476499073145900,6.702145751953125,0.17948570847511292,0.030382122844457626,-0.0019143400713801384
1761476499083178800,6.7121787109375,0.1849425584077835,0.02589511126279831,0.01721978187561035
1761476499093212000,6.7222119140625,0.19047288596630096,0.019534150138497353,0.02455812320113182
1761476499103244800,6.732244873046875,0.20172320306301117,0.022396570071578026,0.022013556212186813
1761476499113277700,6.742277587890625,0.21232789754867554,0.024447737261652946,0.002106163650751114
1761476499123310800,6.752310791015625,0.22408264875411987,0.03573884442448616,-0.021405279636383057
1761476499133343700,6.76234375,0.2281319797039032,0.03786031901836395,-0.04657960683107376
1761476499143377000,6.772376953125,0.2282375693321228,0.03245500847697258,-0.06022707372903824
1761476499153409800,6.782409912109375,0.22854331135749817,0.042296722531318665,-0.06760908663272858
1761476499163443000,6.79244287109375,0.22844147682189941,0.0558539442718029,-0.0637524425983429
1761476499173475800,6.802475830078125,0.22543317079544067,0.0784202441573143,-0.04724244028329849
1761476499183509000,6.812509033203125,0.22603043913841248,0.09258096665143967,-0.03003523126244545
1761476499193542000,6.8225419921875,0.2271907776594162,0.1026165559887886,-0.0029109343886375427
1761476499203574800,6.83257470703125,0.23537591099739075,0.09309090673923492,0.016682490706443787
1761476499213607700,6.842607666015625,0.24799183011054993,0.07302930951118469,0.024859994649887085
1761476499223640600,6.852640625,0.2617103159427643,0.05817606300115585,0.012066698633134365
1761476499233673700,6.862673828125,0.27187612652778625,0.052581556141376495,-0.018467774614691734
1761476499243706600,6.87270654296875,0.27553725242614746,0.057053159922361374,-0.05361936241388321
1761476499253739800,6.88273974609375,0.2670729160308838,0.060360804200172424,-0.0857221707701683
1761476499263772700,6.892772705078125,0.24913650751113892,0.0581081323325634,-0.10271871089935303
1761476499273805800,6.902805908203125,0.22469694912433624,0.05721064656972885,-0.10335014015436172
1761476499283838700,6.912838623046875,0.20302404463291168,0.04940125718712807,-0.09019538760185242
1761476499293871900,6.922871826171875,0.19349099695682526,0.04815702512860298,-0.07020597159862518
1761476499303904800,6.93290478515625,0.181471586227417,0.04885167255997658,-0.04551497846841812
1761476499313938000,6.94293798828125,0.17714102566242218,0.04322734475135803,-0.02588561736047268
1761476499323970800,6.952970703125,0.17547078430652618,0.050783466547727585,-0.01083935983479023
1761476499334003700,6.963003662109375,0.16415047645568848,0.06092505156993866,-0.007224385626614094
1761476499344036900,6.973036865234375,0.14624346792697906,0.0648970752954483,-0.006235483568161726
1761476499354069800,6.98306982421875,0.12363670021295547,0.07536303251981735,-0.012452899478375912
1761476499364103000,6.99310302734375,0.10444299131631851,0.07622060924768448,-0.009210669435560703
1761476499374135800,7.0031357421875,0.0894605815410614,0.06539246439933777,-0.006262816488742828
1761476499384169000,7.0131689453125,0.08499819040298462,0.03932470083236694,0.0015830546617507935
1761476499394201900,7.023201904296875,0.08293690532445908,0.011819040402770042,0.015670113265514374
1761476499404235000,7.033235107421875,0.08342649787664413,-0.005944822449237108,0.028992362320423126
1761476499414268000,7.043267822265625,0.0809050127863884,-0.01646324247121811,0.04562247171998024
1761476499424301800,7.0533017578125,0.07213453203439713,-0.013756394386291504,0.057895638048648834
1761476499434334700,7.063334716796875,0.06491949409246445,0.00940032210201025,0.06306669861078262
1761476499444368000,7.073367919921875,0.05079121142625809,0.0288791935890913,0.05752628296613693
1761476499454400800,7.08340087890625,0.03660881146788597,0.05103323236107826,0.05853695422410965
1761476499464433700,7.09343359375,0.025600675493478775,0.06607364118099213,0.0494241937994957
1761476499474466800,7.103466796875,0.026200152933597565,0.05999577417969704,0.04052364453673363
1761476499484499700,7.113499755859375,0.03561393544077873,0.03467675670981407,0.029372017830610275
1761476499494532900,7.123532958984375,0.0492386668920517,0.009521069005131721,0.0045537520200014114
1761476499504565800,7.133565673828125,0.05769128352403641,-0.024391833692789078,-0.02563990280032158
1761476499514599000,7.143598876953125,0.05573279410600662,-0.053859442472457886,-0.04520215466618538
1761476499524631800,7.1536318359375,0.04381639137864113,-0.07826399803161621,-0.055092062801122665
1761476499534665000,7.1636650390625,0.029936261475086212,-0.0896652564406395,-0.06034328415989876
1761476499544697900,7.17369775390625,0.017164887860417366,-0.09239166975021362,-0.058167338371276855
1761476499554731000,7.18373095703125,0.0072952136397361755,-0.07762976735830307,-0.04750377684831619
1761476499564764000,7.193763916015625,-0.0034933360293507576,-0.06252691149711609,-0.026702702045440674
1761476499574796800,7.203796875,-0.015232283622026443,-0.05445939302444458,-0.003161689266562462
1761476499584829700,7.21382958984375,-0.029529379680752754,-0.049151524901390076,0.021449455991387367
1761476499594862600,7.223862548828125,-0.04450753331184387,-0.0394192673265934,0.02972336672246456
1761476499604895700,7.233895751953125,-0.05843023210763931,-0.03331294655799866,0.029699571430683136
1761476499614928600,7.2439287109375,-0.07377509772777557,-0.03171185404062271,0.013579723425209522
1761476499624961800,7.2539619140625,-0.08237464725971222,-0.03175734356045723,-0.009620588272809982
1761476499634994700,7.26399462890625,-0.08637205511331558,-0.03309957683086395,-0.02464427798986435
1761476499645027800,7.27402783203125,-0.08881909400224686,-0.026429053395986557,-0.038356997072696686
1761476499655060700,7.284060791015625,-0.09277575463056564,-0.01779135689139366,-0.04416215792298317
1761476499665094000,7.294093994140625,-0.09602920711040497,-0.010180204175412655,-0.0408540815114975
1761476499675127300,7.304127197265625,-0.10304184257984161,-0.010670759715139866,-0.03147096559405327
1761476499685160200,7.31416015625,-0.11596700549125671,-0.01125921867787838,-0.01580915041267872
1761476499695193300,7.324193359375,-0.12303689122200012,-0.010487167164683342,-0.0032334374263882637
1761476499705226200,7.334226318359375,-0.1288047879934311,-0.018514277413487434,0.006615940481424332
1761476499715259400,7.34425927734375,-0.13363443315029144,-0.015322213992476463,0.005961336195468903
1761476499725292300,7.354292236328125,-0.1451011300086975,-0.0031320895068347454,-0.007837335579097271
1761476499735325400,7.364325439453125,-0.16150541603565216,0.011545389890670776,-0.02091452106833458
1761476499745358300,7.3743583984375,-0.17298662662506104,0.03036157786846161,-0.03174988180398941
1761476499755391200,7.38439111328125,-0.1934751272201538,0.06062067672610283,-0.03827542066574097
1761476499765424000,7.394424072265625,-0.20612454414367676,0.09088868647813797,-0.03185345605015755
1761476499775457000,7.40445703125,-0.21042954921722412,0.09804779291152954,-0.012590811587870121
1761476499785490200,7.414490234375,-0.20082959532737732,0.08658505976200104,0.016449443995952606
1761476499795523000,7.424523193359375,-0.19404464960098267,0.0594855397939682,0.04963376373052597
1761476499805556200,7.43455615234375,-0.18822234869003296,0.035285934805870056,0.061776962131261826
1761476499815589000,7.444589111328125,-0.18862208724021912,0.017183098942041397,0.060154031962156296
1761476499825622300,7.454622314453125,-0.18293780088424683,-0.002321801148355007,0.048918068408966064
1761476499835655200,7.4646552734375,-0.1764570027589798,-0.01656971499323845,0.03737752512097359
1761476499845688300,7.474688232421875,-0.16521359980106354,-0.025510096922516823,0.020392172038555145
1761476499855721200,7.48472119140625,-0.15614978969097137,-0.04077906906604767,0.0026251589879393578
1761476499865754000,7.494754150390625,-0.15493230521678925,-0.055908702313899994,-0.009471497498452663
1761476499875787300,7.504787353515625,-0.15959815680980682,-0.06081424281001091,-0.010642755776643753
1761476499885820200,7.514820068359375,-0.16591264307498932,-0.05429944023489952,-0.00615058233961463
1761476499895853300,7.524853271484375,-0.17482197284698486,-0.03484398499131203,-0.003677571192383766
1761476499905885200,7.53488525390625,-0.18479511141777039,-0.008647559210658073,0.006944878026843071
1761476499915918300,7.54491845703125,-0.19745445251464844,0.013430844992399216,0.02017572894692421
1761476499925951200,7.554951171875,-0.20117692649364471,0.018826816231012344,0.03151385486125946
1761476499935984000,7.564984130859375,-0.20015932619571686,0.010323341935873032,0.039423443377017975
1761476499946017300,7.575017333984375,-0.19724121689796448,-0.0047413622960448265,0.03843768313527107
1761476499956050200,7.58505029296875,-0.1946113407611847,-0.00824688095599413,0.02573973312973976
1761476499966083300,7.595083251953125,-0.20033836364746094,0.00146900350227952,0.007948468439280987
1761476499976116200,7.6051162109375,-0.20426440238952637,0.020374517887830734,-0.014063356444239616
1761476499986149400,7.6151494140625,-0.2057124674320221,0.024726642295718193,-0.02584090828895569
1761476499996182300,7.625182373046875,-0.2056184560060501,0.013128843158483505,-0.03167083114385605
1761476500006215400,7.63521533203125,-0.21634235978126526,-0.0026676850393414497,-0.028612472116947174
1761476500016248300,7.645248291015625,-0.23245741426944733,-0.01871269941329956,-0.023979369550943375
1761476500026281500,7.655281494140625,-0.2512293756008148,-0.02199174463748932,-0.012066621333360672
1761476500036314400,7.665314453125,-0.2653142809867859,-0.008387786336243153,0.0016566477715969086
1761476500046347300,7.67534716796875,-0.2681181728839874,0.013555796816945076,0.01249605044722557
1761476500056380200,7.685380126953125,-0.268113911151886,0.033157993108034134,0.019882595166563988
1761476500066413000,7.6954130859375,-0.26314371824264526,0.04950549080967903,0.022734228521585464
1761476500076446200,7.7054462890625,-0.2588576078414917,0.059881433844566345,0.022666316479444504
1761476500086479000,7.71547900390625,-0.25393593311309814,0.06571099907159805,0.019967157393693924
1761476500096512300,7.72551220703125,-0.24225851893424988,0.0636766105890274,0.02523621916770935
1761476500106545200,7.735545166015625,-0.23085525631904602,0.041726674884557724,0.03454332798719406
1761476500116578300,7.745578369140625,-0.22408950328826904,0.022007834166288376,0.04573339968919754
1761476500126611200,7.755611083984375,-0.22416841983795166,0.007841212674975395,0.04920409992337227
1761476500136644400,7.765644287109375,-0.22338438034057617,0.004630239214748144,0.0433797650039196
1761476500146677200,7.77567724609375,-0.22893083095550537,0.002479101996868849,0.032351456582546234
1761476500156710100,7.785710205078125,-0.2271244078874588,0.003532115835696459,0.02004685252904892
1761476500166743300,7.795743408203125,-0.2267487794160843,0.008399130776524544,0.012112545780837536
1761476500176776200,7.805776123046875,-0.22460253536701202,0.01699182018637657,0.012126128189265728
1761476500186809300,7.815809326171875,-0.22104522585868835,0.01975673995912075,0.015081803314387798
1761476500196842200,7.82584228515625,-0.21706485748291016,0.02769402414560318,0.022544246166944504
1761476500206875400,7.83587548828125,-0.21079054474830627,0.036235928535461426,0.030521932989358902
1761476500216908300,7.845908203125,-0.20768103003501892,0.026827776804566383,0.04038974642753601
1761476500226941400,7.85594140625,-0.20911654829978943,0.017309915274381638,0.040076952427625656
1761476500236974300,7.865974365234375,-0.21173204481601715,0.005931560415774584,0.03521028906106949
1761476500247007200,7.87600732421875,-0.21621131896972656,-0.012661639600992203,0.030800960958003998
1761476500257040400,7.886040283203125,-0.22355204820632935,-0.017559457570314407,0.033737629652023315
1761476500267073300,7.8960732421875,-0.22585757076740265,-0.005608142353594303,0.03993123024702072
1761476500277106200,7.906106201171875,-0.22228600084781647,0.003356057917699218,0.03578442335128784
1761476500287139000,7.91613916015625,-0.22494646906852722,0.012141520157456398,0.030036959797143936
1761476500297172200,7.926172119140625,-0.23180916905403137,0.017792748287320137,0.028754647821187973
1761476500307205000,7.936205078125,-0.23408067226409912,0.013106510043144226,0.028859589248895645
1761476500317238300,7.94623828125,-0.2307775467634201,0.002947082743048668,0.020906858146190643
1761476500327271200,7.956271240234375,-0.218882754445076,-0.018726278096437454,0.0055446987971663475
1761476500337304300,7.96630419921875,-0.2127865105867386,-0.03162902966141701,-0.00605256762355566
1761476500347337200,7.976337158203125,-0.20737288892269135,-0.040065426379442215,-0.020758241415023804
1761476500357370000,7.9863701171875,-0.2104717493057251,-0.034587569534778595,-0.02826329693198204
1761476500367403300,7.9964033203125,-0.21007828414440155,-0.02389228716492653,-0.03389310836791992
1761476500377436200,8.006436279296874,-0.21180294454097748,-0.01533262338489294,-0.026039713993668556
1761476500387469300,8.01646923828125,-0.21275943517684937,-0.005686015821993351,-0.019902825355529785
1761476500397502200,8.026502197265625,-0.21118444204330444,0.008963233791291714,-0.016044970601797104
1761476500407535400,8.036535400390624,-0.2124962955713272,0.02264661341905594,-0.01088702492415905
1761476500417568300,8.046568359375,-0.21150293946266174,0.01447284035384655,-0.005439529195427895
1761476500427601400,8.056601318359375,-0.19974704086780548,-0.0005670315586030483,-0.0035741813480854034
1761476500437634300,8.06663427734375,-0.1829880326986313,-0.013835699297487736,-0.004943312611430883
1761476500447667500,8.07666748046875,-0.17438040673732758,-0.02661263942718506,-0.01239639800041914
1761476500457700400,8.086700439453125,-0.17120404541492462,-0.039101529866456985,-0.017099274322390556
1761476500467733200,8.096733154296874,-0.1671963334083557,-0.056617721915245056,-0.018251175060868263
1761476500477766400,8.106766357421876,-0.16352196037769318,-0.07308883965015411,-0.022057898342609406
1761476500487799000,8.116799072265625,-0.15727101266384125,-0.07311830669641495,-0.028251582756638527
1761476500497832200,8.126832275390624,-0.15310584008693695,-0.059688251465559006,-0.033028494566679
1761476500507865000,8.136864990234375,-0.14837414026260376,-0.04172491282224655,-0.03765458986163139
1761476500517898200,8.146898193359375,-0.15357422828674316,-0.0217320304363966,-0.0313868373632431
1761476500527931100,8.15693115234375,-0.15547113120555878,-0.011420484632253647,-0.025559760630130768
1761476500537964300,8.16696435546875,-0.16596904397010803,-0.009441222995519638,-0.019767649471759796
1761476500547997200,8.1769970703125,-0.1725628823041916,-0.01193750835955143,-0.014472654089331627
1761476500558030000,8.187030029296874,-0.18604807555675507,-0.011595025658607483,-0.01151308324187994
1761476500568063200,8.197063232421876,-0.19447651505470276,-0.0004129977896809578,-0.014202958904206753
1761476500578096000,8.20709619140625,-0.19380459189414978,0.0019420352764427662,-0.007468090858310461
1761476500588129300,8.21712939453125,-0.18345029652118683,0.012653691694140434,-0.0022656219080090523
1761476500598162200,8.227162109375,-0.16213595867156982,0.021381670609116554,0.008323373273015022
1761476500608195300,8.2371953125,-0.14186616241931915,0.01900135912001133,0.025908198207616806
1761476500618228200,8.247228271484374,-0.12283866852521896,0.012010028585791588,0.043421678245067596
1761476500628261400,8.257261474609376,-0.11612246930599213,0.009862571954727173,0.0471811480820179
1761476500638294300,8.267294189453125,-0.10712125152349472,0.006863852962851524,0.04047664254903793
1761476500648327400,8.277327392578124,-0.10646887123584747,-0.0010650926269590855,0.014242305420339108
1761476500658360300,8.2873603515625,-0.10357721149921417,-0.0017849449068307877,-0.01856837049126625
1761476500668393200,8.297393310546875,-0.08894570916891098,-0.00388437882065773,-0.04758438095450401
1761476500678429000,8.307428955078125,-0.06594904512166977,0.0014091860502958298,-0.06428160518407822
1761476500688461800,8.3174619140625,-0.041931815445423126,0.0071029821410775185,-0.06999391317367554
1761476500698495000,8.327494873046875,-0.015313521027565002,0.004860334098339081,-0.06757203489542007
1761476500708527900,8.33752783203125,0.006813506595790386,-0.004213618580251932,-0.06918815523386002
1761476500718561000,8.34756103515625,0.018754854798316956,-0.01068057306110859,-0.06817162781953812
1761476500728594000,8.357593994140625,0.025142760947346687,-0.022551635280251503,-0.05257106572389603
1761476500738627000,8.367626953125,0.03075936622917652,-0.035138264298439026,-0.04309287667274475
1761476500748660000,8.377659912109374,0.037892378866672516,-0.041874200105667114,-0.03633856773376465
1761476500758692900,8.38769287109375,0.0468568429350853,-0.05209194868803024,-0.03169987350702286
1761476500768725800,8.397725830078125,0.05891700088977814,-0.06174655631184578,-0.03147552162408829
1761476500778758700,8.407758544921874,0.06764204800128937,-0.06897065043449402,-0.036881737411022186
1761476500788791800,8.417791748046875,0.07134786993265152,-0.06960883736610413,-0.04692241549491882
1761476500798824700,8.42782470703125,0.06689373403787613,-0.06659334152936935,-0.04959995672106743
1761476500808857900,8.43785791015625,0.06372024863958359,-0.059319764375686646,-0.05402861535549164
1761476500818890800,8.447890869140625,0.07171852141618729,-0.04420233517885208,-0.06174618750810623
1761476500828924000,8.457923828125,0.08433739095926285,-0.02302291989326477,-0.07468630373477936
1761476500838956800,8.467956787109374,0.1045510470867157,0.005221500992774963,-0.0932096615433693
1761476500848990000,8.477989990234375,0.1224527582526207,0.023513637483119965,-0.09916163980960846
1761476500859022800,8.48802294921875,0.1259060800075531,0.008022028021514416,-0.09326086938381195
1761476500869056000,8.498055908203124,0.12724173069000244,0.007199238985776901,-0.08950354903936386
1761476500879089000,8.5080888671875,0.11956650018692017,-0.005654241889715195,-0.0746590867638588
1761476500889121800,8.518121826171875,0.10552283376455307,-0.008482836186885834,-0.06094292923808098
1761476500899155000,8.528155029296874,0.09048369526863098,0.00860001053661108,-0.04698077589273453
1761476500909187800,8.538187744140625,0.08761374652385712,0.024993767961859703,-0.03154699504375458
1761476500919221000,8.548220947265625,0.08417826890945435,0.02377377450466156,-0.019570492208003998
1761476500929254700,8.558254638671874,0.08975017070770264,0.007328638341277838,-0.011320705525577068
1761476500939287800,8.568287841796876,0.08961115777492523,-0.015901315957307816,-0.003974109888076782
1761476500949320700,8.57832080078125,0.09303109347820282,-0.024518975988030434,0.0037925373762845993
1761476500959353900,8.588353759765624,0.10051457583904266,-0.020440345630049706,0.006335590034723282
1761476500969386800,8.59838671875,0.11765380948781967,-0.00840100459754467,-0.001783149316906929
1761476500979422700,8.608422607421875,0.13169054687023163,0.005280187353491783,-0.018656937405467033
1761476500989456000,8.618455810546875,0.13823391497135162,0.0036020558327436447,-0.033919304609298706
1761476500999488800,8.62848876953125,0.14081186056137085,-0.004767726641148329,-0.04984447360038757
1761476501009522000,8.63852197265625,0.13887807726860046,-0.016079045832157135,-0.05357471480965614
1761476501019554800,8.648554931640625,0.13343296945095062,-0.0226764939725399,-0.03916195034980774
1761476501029588000,8.658587890625,0.12756970524787903,-0.022224802523851395,-0.015005512163043022
1761476501039620900,8.668620849609376,0.11740495264530182,-0.007055968977510929,0.012817597016692162
1761476501049653800,8.67865380859375,0.11828244477510452,0.020597347989678383,0.034636497497558594
1761476501059687000,8.68868701171875,0.11845900863409042,0.03650787100195885,0.04563695192337036
1761476501069719800,8.6987197265625,0.1280595362186432,0.03832913935184479,0.042479436844587326
1761476501079753000,8.7087529296875,0.14301051199436188,0.03131837025284767,0.02572336047887802
1761476501089785900,8.718785888671874,0.15331806242465973,0.017369776964187622,0.0005479948595166206
1761476501099819000,8.728819091796876,0.16114161908626556,-0.0023155109956860542,-0.02115650102496147
1761476501109852000,8.738851806640625,0.16671377420425415,-0.02169552631676197,-0.03387650102376938
1761476501119885000,8.748885009765624,0.16577208042144775,-0.031761474907398224,-0.03430074453353882
1761476501129918000,8.75891796875,0.1613399088382721,-0.02363821677863598,-0.02590242400765419
1761476501139951000,8.768951171875,0.153579443693161,-0.01004411093890667,-0.010878201574087143
1761476501149984000,8.77898388671875,0.14636504650115967,0.003848758526146412,0.007344803772866726
1761476501160017000,8.789016845703125,0.13620667159557343,0.022663192823529243,0.02431553229689598
1761476501170049800,8.7990498046875,0.12839853763580322,0.034096069633960724,0.04012932628393173
1761476501180082700,8.809082763671874,0.11601271480321884,0.035063065588474274,0.050567854195833206
1761476501190115800,8.81911572265625,0.11174004524946213,0.02783552184700966,0.049868494272232056
1761476501200149800,8.829149658203125,0.10965479165315628,0.02815190516412258,0.045580536127090454
1761476501210183000,8.839182861328124,0.1164243295788765,0.02724319137632847,0.030031569302082062
1761476501220215800,8.8492158203125,0.12698455154895782,0.025973929092288017,0.01470268052071333
1761476501230249000,8.8592490234375,0.13745638728141785,0.021506285294890404,-0.006858214735984802
1761476501240281900,8.86928173828125,0.14551565051078796,0.017435641959309578,-0.029660198837518692
1761476501250315000,8.87931494140625,0.1400352120399475,0.0014786412939429283,-0.047814562916755676
1761476501260348000,8.889347900390625,0.12971866130828857,-0.023172907531261444,-0.060082681477069855
1761476501270381000,8.899381103515625,0.12023133784532547,-0.040161870419979095,-0.05657064542174339
1761476501280414000,8.9094140625,0.10613549500703812,-0.04722563922405243,-0.04277653619647026
1761476501290446800,8.91944677734375,0.09922239184379578,-0.030311672016978264,-0.02297295816242695
1761476501300480000,8.92947998046875,0.09654697775840759,-0.0010299496352672577,-0.006429135333746672
1761476501310513000,8.939512939453126,0.10341108590364456,0.023742614313960075,-0.0004532570019364357
1761476501320545800,8.9495458984375,0.1074010357260704,0.03667039796710014,-0.003278071992099285
1761476501330578700,8.95957861328125,0.11269228905439377,0.04043303802609444,-0.014012867584824562
1761476501340611800,8.96961181640625,0.11411787569522858,0.03553282096982002,-0.029032830148935318
1761476501350644700,8.979644775390625,0.11922312527894974,0.030861610546708107,-0.048896875232458115
1761476501360678000,8.989677978515624,0.11538445204496384,0.02529320679605007,-0.07192229479551315
1761476501370710800,8.999710693359376,0.10744789242744446,0.0061864713206887245,-0.08721017837524414
1761476501380744000,9.009743896484375,0.09166600555181503,-0.013444488868117332,-0.09783725440502167
1761476501390776800,9.01977685546875,0.07008960843086243,-0.03461731970310211,-0.09711775183677673
1761476501400809700,9.029809814453126,0.05010099336504936,-0.03823069483041763,-0.085645392537117
1761476501410843000,9.0398427734375,0.039252717047929764,-0.021390721201896667,-0.07153704017400742
1761476501420875800,9.049875732421874,0.03454052284359932,-0.006963311228901148,-0.051801420748233795
1761476501430909000,9.059908935546876,0.03670323267579079,0.00019499799236655235,-0.031864359974861145
1761476501440941800,9.06994189453125,0.03167784586548805,-0.0016415179707109928,-0.020733144134283066
1761476501450975000,9.07997509765625,0.018334511667490005,-0.006564285606145859,-0.017336346209049225
1761476501461008000,9.0900078125,0.0029781945049762726,-0.0111742177978158,-0.01964477449655533
1761476501471041000,9.100041015625,-0.008371208794414997,-0.008080839179456234,-0.024920500814914703
1761476501481074000,9.110073974609374,-0.01942412555217743,-0.006032601930201054,-0.03150863200426102
1761476501491107000,9.120107177734376,-0.03323637694120407,-0.010613387450575829,-0.025973094627261162
1761476501501140000,9.130139892578125,-0.041808292269706726,-0.015207873657345772,-0.015926320105791092
1761476501511172900,9.1401728515625,-0.05132027715444565,-0.017009064555168152,-0.003720012493431568
1761476501521206000,9.1502060546875,-0.05532460659742355,-0.01700160838663578,0.011378247290849686
1761476501531239000,9.160239013671875,-0.06215739995241165,-0.00467344094067812,0.02313917502760887
1761476501541271800,9.170271728515624,-0.06683684140443802,0.001518141943961382,0.03226502612233162
1761476501551304700,9.1803046875,-0.0751640722155571,-0.0005794386379420757,0.031522590667009354
1761476501561337900,9.190337890625,-0.08045763522386551,-0.009577462449669838,0.02337917685508728
1761476501571370800,9.200370849609374,-0.08963362127542496,-0.011539177969098091,0.010682066902518272
1761476501581404000,9.21040380859375,-0.09775733202695847,-0.010618789121508598,-0.0006611347198486328
1761476501591436800,9.220436767578125,-0.10161413252353668,-0.013989115133881569,-0.00538816349580884
1761476501601471000,9.230470947265625,-0.10360777378082275,-0.014198172837495804,-0.00988730788230896
1761476501611503900,9.24050390625,-0.10110899806022644,-0.01678437925875187,0.001192682422697544
1761476501621537000,9.250537109375,-0.09898059815168381,-0.017052026465535164,0.007859374396502972
1761476501631570000,9.26056982421875,-0.10245302319526672,-0.012575488537549973,0.013039709068834782
1761476501641602800,9.270602783203126,-0.11198048293590546,-0.0070001608692109585,0.017413683235645294
1761476501651636000,9.280635986328125,-0.11789175122976303,-0.0065919081680476665,0.014142006635665894
1761476501661668900,9.2906689453125,-0.12126623839139938,-0.006756225135177374,0.013719363138079643
1761476501671699200,9.30069921875,-0.11926618963479996,-0.005475969519466162,0.016094956547021866
1761476501681732400,9.310732421875,-0.11790185421705246,-0.009294142946600914,0.022601058706641197
1761476501691765200,9.32076513671875,-0.11288952827453613,-0.023695548996329308,0.03105640783905983
1761476501701798400,9.33079833984375,-0.11235903203487396,-0.029323605820536613,0.0289573073387146
1761476501711831300,9.340831298828125,-0.11694857478141785,-0.03165523335337639,0.02814200147986412
1761476501721864400,9.350864501953126,-0.12439344078302383,-0.03268081694841385,0.019928280264139175
1761476501731897300,9.3608974609375,-0.1318197399377823,-0.02008949965238571,0.008939530700445175
1761476501741930500,9.370930419921875,-0.13624058663845062,-0.009197705425322056,0.0012592412531375885
1761476501751963400,9.38096337890625,-0.14430786669254303,-0.0031189429573714733,0.001684841699898243
1761476501761996300,9.390996337890625,-0.15885910391807556,0.009770756587386131,0.009767002426087856
1761476501772029400,9.401029541015625,-0.16880148649215698,0.029223019257187843,0.017749827355146408
1761476501782062300,9.411062255859376,-0.17043347656726837,0.04917621985077858,0.023307576775550842
1761476501792095500,9.421095458984375,-0.18082591891288757,0.05412199720740318,0.021902620792388916
1761476501802128400,9.43112841796875,-0.1818041056394577,0.04188956692814827,0.017193622887134552
1761476501812161500,9.44116162109375,-0.1724344789981842,0.02458374761044979,0.007386459968984127
1761476501822194400,9.4511943359375,-0.15978100895881653,0.005391943268477917,-0.007263589184731245
1761476501832227600,9.4612275390625,-0.1529194414615631,-0.01268678717315197,-0.023532714694738388
1761476501842260500,9.471260498046876,-0.1519777476787567,-0.019623789936304092,-0.04033859074115753
1761476501852293400,9.48129345703125,-0.15944325923919678,-0.01807897351682186,-0.049837060272693634
1761476501862326300,9.491326171875,-0.16820159554481506,-0.009247133508324623,-0.050807517021894455
1761476501872359200,9.501359130859376,-0.17695379257202148,-0.012164626270532608,-0.037206754088401794
1761476501882392300,9.511392333984375,-0.18679949641227722,-0.019471807405352592,-0.01931776851415634
1761476501892425200,9.52142529296875,-0.18908898532390594,-0.015130051411688328,0.0021517351269721985
1761476501902458400,9.531458251953126,-0.18084225058555603,-0.014014719985425472,0.014923722483217716
1761476501912491300,9.5414912109375,-0.1635744869709015,-0.011457717046141624,0.023687925189733505
1761476501922524400,9.5515244140625,-0.145619735121727,-0.005609414074569941,0.014495760202407837
1761476501932557300,9.561557373046876,-0.13671565055847168,-0.001157376915216446,-0.0029594432562589645
1761476501942590500,9.571590576171875,-0.13365647196769714,-0.0037052230909466743,-0.024379780516028404
1761476501952623400,9.581623291015624,-0.1293732076883316,-0.009836606681346893,-0.03145288676023483
1761476501962656300,9.59165625,-0.12575849890708923,-0.02119605429470539,-0.02788211777806282
1761476501972689400,9.601689453125,-0.12107808142900467,-0.014429431408643723,-0.02108645997941494
1761476501982722300,9.611722412109375,-0.11586068570613861,0.0026398329064249992,-0.0073919533751904964
1761476501992756500,9.621756591796874,-0.11447018384933472,0.01087304949760437,0.0013531539589166641
1761476502002789400,9.631789306640625,-0.1155351847410202,0.013419829308986664,0.013026055879890919
1761476502012822300,9.641822265625,-0.11277279257774353,0.011348146013915539,0.02289707586169243
1761476502022855200,9.651855224609376,-0.10337848961353302,0.011335629038512707,0.02494531124830246
1761476502032888300,9.661888427734375,-0.09795106202363968,0.01205767598003149,0.026977378875017166
1761476502042921200,9.671921142578125,-0.09231874346733093,0.019353939220309258,0.018366578966379166
1761476502052954400,9.681954345703126,-0.08464103937149048,0.0180155411362648,0.009796801954507828
1761476502062987300,9.6919873046875,-0.07137663662433624,0.0013374937698245049,0.006520848721265793
1761476502073020400,9.7020205078125,-0.06165556237101555,-0.022932160645723343,-0.001079014502465725
1761476502083053300,9.71205322265625,-0.04541267454624176,-0.04878798872232437,-0.004639394581317902
1761476502093086500,9.72208642578125,-0.039332494139671326,-0.06344640254974365,-0.011482929810881615
1761476502103119400,9.732119384765625,-0.035118576139211655,-0.06610023975372314,-0.011136185377836227
1761476502113152300,9.74215234375,-0.034667011350393295,-0.058015450835227966,-0.007738641928881407
1761476502123185400,9.752185302734375,-0.036522433161735535,-0.03190741688013077,0.0014260942116379738
1761476502133218300,9.76221826171875,-0.04183804243803024,-0.011336574330925941,0.016979839652776718
1761476502143251500,9.77225146484375,-0.04671216011047363,0.0043015070259571075,0.029828527942299843
1761476502153284400,9.782284423828125,-0.04661022499203682,0.016442028805613518,0.036632947623729706
1761476502163317500,9.7923173828125,-0.040013838559389114,0.03313152492046356,0.040953658521175385
1761476502173350400,9.802350341796876,-0.03138701617717743,0.03693101555109024,0.03213983029127121
1761476502183383600,9.812383544921875,-0.0273579191416502,0.029125822708010674,0.01667565107345581
1761476502193416400,9.82241650390625,-0.021316586062312126,0.008312728255987167,0.008409300819039345
1761476502203449600,9.83244970703125,-0.010850895196199417,-0.012159256264567375,0.003649165853857994
1761476502213482500,9.842482421875,0.0022159693762660027,-0.0156698040664196,0.006626002490520477
1761476502223515400,9.852515380859375,0.013184997253119946,-0.014645019546151161,0.012491347268223763
1761476502233548300,9.86254833984375,0.020210960879921913,-0.003242598380893469,0.008626754395663738
1761476502243581200,9.872581298828125,0.023035507649183273,0.013629059307277203,0.009328764863312244
1761476502253614300,9.8826142578125,0.019814983010292053,0.022524431347846985,0.007163725793361664
1761476502263647200,9.892647216796876,0.022043779492378235,0.023739099502563477,0.011246617883443832
1761476502273680400,9.902680419921875,0.026055173948407173,0.022444453090429306,0.010659084655344486
1761476502283713300,9.91271337890625,0.034857988357543945,0.019721370190382004,0.011849517934024334
1761476502293746400,9.922746337890626,0.04723408818244934,0.006645600311458111,0.00919065810739994
1761476502303779300,9.932779296875,0.06156536191701889,-0.014923075214028358,0.01069108210504055
1761476502313812200,9.942812255859375,0.07828468084335327,-0.03008897975087166,0.010875638574361801
1761476502323845400,9.952845458984376,0.09380638599395752,-0.03562222793698311,0.008655894547700882
1761476502333878300,9.962878173828125,0.10371622443199158,-0.03324400261044502,0.006774872541427612
1761476502343911400,9.972911376953125,0.10993310809135437,-0.0377974770963192,-0.0027062473818659782
1761476502353945300,9.9829453125,0.10921770334243774,-0.031225455924868584,-0.013258630409836769
1761476502363978500,9.992978515625,0.09961248189210892,-0.025161439552903175,-0.02842027321457863
1761476502374011400,10.003011474609375,0.08579275012016296,-0.017130974680185318,-0.024693133309483528
1761476502384044300,10.013044189453124,0.08393333107233047,-0.008219504728913307,-0.0232694074511528
1761476502394077200,10.0230771484375,0.08101069182157516,-0.005504006985574961,-0.004931819625198841
1761476502404110300,10.0331103515625,0.07674271613359451,-0.007702179718762636,0.015944967046380043
1761476502414143200,10.043143310546874,0.07601919770240784,-0.0071670967154204845,0.038418933749198914
1761476502424176400,10.05317626953125,0.08794403076171875,-0.0014479588717222214,0.047828417271375656
1761476502434209300,10.063209228515625,0.10586933046579361,0.003601308446377516,0.04062169790267944
1761476502444242400,10.073242431640624,0.11288516223430634,0.01953180506825447,0.01756378449499607
1761476502454275300,10.083275390625,0.11904530972242355,0.029138116165995598,-0.005836746655404568
1761476502464308200,10.09330810546875,0.12084188312292099,0.03172697499394417,-0.02603069692850113
1761476502474341400,10.10334130859375,0.12927104532718658,0.028927218168973923,-0.03642834350466728
1761476502484374300,10.113374267578125,0.15040722489356995,0.019013334065675735,-0.03623286634683609
1761476502494407400,10.123407470703125,0.1657535284757614,-0.0008078627288341522,-0.025633692741394043
1761476502504440300,10.1334404296875,0.17920595407485962,-0.01285973098129034,-0.012359964661300182
1761476502514473500,10.143473388671875,0.1828625351190567,-0.020117346197366714,-0.005322074051946402
1761476502524506400,10.15350634765625,0.1966121792793274,-0.008438319899141788,-0.010073686018586159
1761476502534539500,10.16353955078125,0.20993515849113464,-0.001284345518797636,-0.029325734823942184
1761476502544572400,10.173572509765625,0.22413618862628937,0.011492169462144375,-0.06405361741781235
1761476502554605600,10.18360546875,0.22760207951068878,0.023065714165568352,-0.08991821110248566
1761476502564638500,10.193638427734374,0.22529657185077667,0.03155747056007385,-0.10215570032596588
1761476502574671400,10.20367138671875,0.226231187582016,0.031240222975611687,-0.0956568568944931
1761476502584704500,10.21370458984375,0.21729467809200287,0.029953917488455772,-0.06582678854465485
1761476502594737400,10.2237373046875,0.19744451344013214,0.026510300114750862,-0.024690117686986923
1761476502604770300,10.233770263671875,0.1768265813589096,0.03613123670220375,0.013908674009144306
1761476502614803200,10.24380322265625,0.1670428067445755,0.03676639124751091,0.04933246225118637
1761476502624836400,10.25383642578125,0.16462571918964386,0.02653186209499836,0.06334041804075241
1761476502634869200,10.263869140625,0.1695970892906189,0.01606985554099083,0.05735006928443909
1761476502644902400,10.27390234375,0.18147026002407074,0.009080389514565468,0.021465573459863663
1761476502654935300,10.283935302734376,0.1941567361354828,0.006491116248071194,-0.031505342572927475
1761476502664968400,10.293968505859375,0.20272305607795715,0.008188082836568356,-0.07906327396631241
1761476502675000800,10.304000732421875,0.20726878941059113,0.008434617891907692,-0.11105348914861679
1761476502685033700,10.31403369140625,0.2071675807237625,0.007287061773240566,-0.12160280346870422
1761476502695068000,10.32406787109375,0.1912720650434494,0.001932081300765276,-0.11756277084350586
1761476502705100800,10.334100830078125,0.17048023641109467,0.005644528195261955,-0.10146236419677734
1761476502715134000,10.344134033203124,0.15303540229797363,0.0066057066433131695,-0.07268761098384857
1761476502725166800,10.354166748046875,0.12934313714504242,0.006157762836664915,-0.041243668645620346
1761476502735199700,10.36419970703125,0.1154651939868927,0.008531225845217705,-0.015385886654257774
1761476502745233000,10.37423291015625,0.09986039996147156,0.01747864857316017,0.0013725869357585907
1761476502755265800,10.384265869140625,0.09719361364841461,0.036170490086078644,0.0037633702158927917
1761476502765299000,10.394298828125,0.10071591287851334,0.03922593593597412,-0.01354371476918459
1761476502775331800,10.404331787109374,0.10299453884363174,0.03158975765109062,-0.04239269718527794
1761476502785365000,10.414364990234375,0.102292001247406,0.0158773735165596,-0.07272477447986603
1761476502795397600,10.424397705078125,0.09755135327577591,0.0027519413270056248,-0.09848190099000931
1761476502805430800,10.4344306640625,0.08637753129005432,0.002266979543492198,-0.11437298357486725
1761476502815463700,10.444463623046875,0.07458508014678955,0.001927864272147417,-0.11250559985637665
1761476502825496600,10.45449658203125,0.06074649840593338,-0.0012756520882248878,-0.10070726275444031
1761476502835529700,10.46452978515625,0.04708808287978172,-0.0007433705031871796,-0.08173707127571106
1761476502845562600,10.474562744140625,0.03517469763755798,0.008179550990462303,-0.06806546449661255
1761476502855595800,10.484595703125,0.021263930946588516,0.022632429376244545,-0.05021555349230766
1761476502865628700,10.494628662109376,0.0025368472561240196,0.027510274201631546,-0.03848379850387573
1761476502875661800,10.504661865234375,-0.009976155124604702,0.025204859673976898,-0.03464241325855255
1761476502885694700,10.51469482421875,-0.01962638646364212,0.019031386822462082,-0.046649008989334106
1761476502895727900,10.524727783203126,-0.02399243786931038,0.003113641869276762,-0.06306282430887222
1761476502905760800,10.5347607421875,-0.029210370033979416,-0.018025998026132584,-0.08617933094501495
1761476502915794000,10.5447939453125,-0.03488116338849068,-0.035703081637620926,-0.10399138182401657
1761476502925826800,10.554826904296876,-0.052853506058454514,-0.03951486200094223,-0.11127433180809021
1761476502935859700,10.564859619140625,-0.060886021703481674,-0.04164644703269005,-0.11382885277271271
1761476502945892900,10.574892822265625,-0.07418850809335709,-0.03869300335645676,-0.10547717660665512
1761476502955925800,10.58492578125,-0.08522887527942657,-0.0369572713971138,-0.08573639392852783
1761476502965959000,10.594958984375,-0.10322625190019608,-0.028035681694746017,-0.06397277116775513
1761476502975991800,10.60499169921875,-0.12036647647619247,-0.010940328240394592,-0.048212163150310516
1761476502986025000,10.61502490234375,-0.13928662240505219,0.010893331840634346,-0.03949777036905289
1761476502996057900,10.625057861328125,-0.13975676894187927,0.02130669727921486,-0.04692013934254646
1761476503006090800,10.6350908203125,-0.1277669370174408,0.018074950203299522,-0.07105717062950134
1761476503016123600,10.64512353515625,-0.11739498376846313,0.006208003498613834,-0.10911381989717484
1761476503026157800,10.65515771484375,-0.10711918026208878,-0.002546073868870735,-0.146037757396698
1761476503036190700,10.665190673828125,-0.09501145780086517,-0.019475916400551796,-0.1925947368144989
1761476503046224000,10.675223876953124,-0.10007013380527496,-0.029213499277830124,-0.22277580201625824
1761476503056256800,10.6852568359375,-0.1104147881269455,-0.04854157194495201,-0.23088721930980682
1761476503066290000,10.6952900390625,-0.1175541952252388,-0.08093493431806564,-0.20103105902671814
1761476503076322800,10.70532275390625,-0.1195482537150383,-0.09251780807971954,-0.1035095751285553
1761476503086355700,10.715355712890625,-0.11185597628355026,-0.03690754249691963,0.008036920800805092
1761476503096388900,10.725388916015625,-0.12302472442388535,0.031244419515132904,0.08905673027038574
1761476503106421800,10.735421875,-0.1535235196352005,0.06220979243516922,0.12530048191547394
1761476503116455000,10.745454833984375,-0.18905693292617798,0.05450752377510071,0.11871542781591415
1761476503126487800,10.75548779296875,-0.2025594264268875,0.0447574257850647,0.0632990375161171
1761476503136521000,10.76552099609375,-0.18644072115421295,0.03142391890287399,-0.012786014005541801
1761476503146553900,10.775553955078125,-0.1598282754421234,0.021735070273280144,-0.09500126540660858
1761476503156587000,10.7855869140625,-0.13696497678756714,-0.002303558401763439,-0.14999167621135712
1761476503166620000,10.795619873046874,-0.11965654790401459,-0.037381917238235474,-0.17824780941009521
