time,seconds_elapsed,z,y,x
1761476478360479200,0.121479248046875,-0.4033646285533905,-0.052936069667339325,0.03288280963897705
1761476478370512400,0.131512451171875,-0.4065124988555908,-0.04913985729217529,0.0339527353644371
1761476478380545300,0.141545166015625,-0.40479740500450134,-0.046510249376297,0.03393062949180603
1761476478390578400,0.151578369140625,-0.40640509128570557,-0.042820077389478683,0.034306615591049194
1761476478400611300,0.161611328125,-0.4071846008300781,-0.03613767400383949,0.03332710638642311
1761476478410644500,0.17164453125,-0.40869754552841187,-0.038920678198337555,0.031066346913576126
1761476478420678400,0.181678466796875,-0.4127886891365051,-0.04025012627243996,0.03200804069638252
1761476478430711600,0.191711669921875,-0.4147028625011444,-0.04204303398728371,0.02755090221762657
1761476478440744400,0.201744384765625,-0.41006550192832947,-0.04614909738302231,0.034310270100831985
1761476478450777600,0.211777587890625,-0.4042801558971405,-0.048963457345962524,0.038647569715976715
1761476478460810500,0.221810546875,-0.3987343907356262,-0.05650179833173752,0.04180048406124115
1761476478470843400,0.231843505859375,-0.3903249502182007,-0.0628770962357521,0.04150556027889252
1761476478480876500,0.24187646484375,-0.3851509690284729,-0.0723254606127739,0.03708817809820175
1761476478490909400,0.251909423828125,-0.375599205493927,-0.08254574984312057,0.02797844633460045
1761476478500942600,0.261942626953125,-0.3682403564453125,-0.0897085890173912,0.009924076497554779
1761476478510975500,0.2719755859375,-0.36236414313316345,-0.09269679337739944,-0.0006770007312297821
1761476478521008400,0.28200830078125,-0.35734888911247253,-0.09293647110462189,-0.007866736501455307
1761476478531041300,0.292041259765625,-0.3585026264190674,-0.09284791350364685,-0.0032047955319285393
1761476478541074400,0.302074462890625,-0.3582246005535126,-0.08854637295007706,0.004403057508170605
1761476478551108400,0.3121083984375,-0.35843613743782043,-0.09654132276773453,0.005288990214467049
1761476478561141500,0.3221416015625,-0.35287678241729736,-0.0924224779009819,0.003520650789141655
1761476478571174400,0.33217431640625,-0.35002219676971436,-0.09223413467407227,0.010181598365306854
1761476478581207600,0.34220751953125,-0.3436468541622162,-0.10279729962348938,0.012456471100449562
1761476478591240400,0.352240478515625,-0.3365465998649597,-0.10976682603359222,0.008332098834216595
1761476478601273300,0.3622734375,-0.32974913716316223,-0.1016915887594223,0.0024901889264583588
1761476478611306500,0.372306396484375,-0.32717207074165344,-0.0891062393784523,-0.0030591916292905807
1761476478621339400,0.38233935546875,-0.32727912068367004,-0.08493413031101227,-0.009478208608925343
1761476478631372500,0.39237255859375,-0.3262746334075928,-0.08150430023670197,-0.00712433410808444
1761476478641405400,0.402405517578125,-0.3248663544654846,-0.07893088459968567,0.0018531819805502892
1761476478651435000,0.41243505859375,-0.31392204761505127,-0.07978159934282303,0.01121050026267767
1761476478661468000,0.422468017578125,-0.299337774515152,-0.07954910397529602,0.022359024733304977
1761476478671501800,0.432501708984375,-0.2893126606941223,-0.08106102794408798,0.025327514857053757
1761476478681534700,0.44253466796875,-0.2802397906780243,-0.07916299253702164,0.02371576800942421
1761476478691567900,0.45256787109375,-0.26408541202545166,-0.07700992375612259,0.02110464498400688
1761476478701600800,0.462600830078125,-0.2509309947490692,-0.07599339634180069,0.016796715557575226
1761476478711633700,0.472633544921875,-0.23144765198230743,-0.07015328109264374,0.015599696896970272
1761476478721666800,0.482666748046875,-0.2179395705461502,-0.056858789175748825,0.013853461481630802
1761476478731699700,0.49269970703125,-0.20731642842292786,-0.05323523283004761,0.011185383424162865
1761476478741732900,0.50273291015625,-0.19671490788459778,-0.047266822308301926,0.009180555120110512
1761476478751765800,0.512765869140625,-0.18930168449878693,-0.04376455396413803,0.007668780162930489
1761476478761799000,0.522798828125,-0.17928393185138702,-0.04356668144464493,0.0045392997562885284
1761476478771831800,0.532831787109375,-0.17013928294181824,-0.047058019787073135,0.0018815360963344574
1761476478781865700,0.54286572265625,-0.15995082259178162,-0.051445845514535904,0.0021710218861699104
1761476478791898600,0.552898681640625,-0.1472153514623642,-0.058459073305130005,0.007094047963619232
1761476478801931800,0.562931884765625,-0.13878192007541656,-0.06965500116348267,0.011690130457282066
1761476478811964700,0.572964599609375,-0.1320435106754303,-0.06101326271891594,0.016899194568395615
1761476478821997800,0.582997802734375,-0.1242620125412941,-0.0471203476190567,0.017970584332942963
1761476478832030700,0.59303076171875,-0.11428382247686386,-0.04053712636232376,0.013289796188473701
1761476478842064000,0.60306396484375,-0.09742601215839386,-0.03675916790962219,0.002252858132123947
1761476478852096800,0.6130966796875,-0.0766444057226181,-0.033729251474142075,-0.0028712665662169456
1761476478862129700,0.623129638671875,-0.05466959998011589,-0.0282916072756052,-0.005161851178854704
1761476478872162800,0.633162841796875,-0.037999436259269714,-0.022717192769050598,-0.0030931755900382996
1761476478882197000,0.643197021484375,-0.025172589346766472,-0.01936960220336914,0.009969629347324371
1761476478892230000,0.65322998046875,-0.018164191395044327,-0.018746498972177505,0.010056491941213608
1761476478902262800,0.6632626953125,-0.011066600680351257,-0.020909521728754044,0.01001175120472908
1761476478912296000,0.6732958984375,-0.0009505338966846466,-0.0205469261854887,0.013389535248279572
1761476478922328800,0.683328857421875,0.006613908335566521,-0.028823500499129295,0.01765858381986618
1761476478932361700,0.69336181640625,0.012778031639754772,-0.027005232870578766,0.020279884338378906
1761476478942394600,0.70339453125,0.023168623447418213,-0.019608035683631897,0.01922713592648506
1761476478952427800,0.713427734375,0.03836634010076523,-0.01453524548560381,0.010606192983686924
1761476478962460700,0.723460693359375,0.04912790656089783,-0.008884284645318985,0.005667892284691334
1761476478972494800,0.733494873046875,0.059809610247612,-0.009267712011933327,0.0005216486752033234
1761476478982527700,0.74352783203125,0.06692317873239517,-0.004608245566487312,-0.003024349920451641
1761476478992561000,0.753560791015625,0.0740535706281662,-0.006556016393005848,0.003334576264023781
1761476479002593800,0.76359375,0.07991784811019897,-0.006642836146056652,0.010814330540597439
1761476479012627000,0.773626953125,0.08530103415250778,-0.008415702730417252,0.01482028141617775
1761476479022659800,0.783659912109375,0.0849287286400795,-0.008578956127166748,0.02378954365849495
1761476479032692700,0.793692626953125,0.08624062687158585,-0.008459044620394707,0.024593599140644073
1761476479042726000,0.803725830078125,0.08761987835168839,-0.005684031639248133,0.017440348863601685
1761476479052759800,0.813759765625,0.09682121872901917,-0.00029386207461357117,0.0076532065868377686
1761476479062792700,0.823792724609375,0.09931021183729172,-0.0023713945411145687,-0.00022096093744039536
1761476479072825600,0.83382568359375,0.1069505363702774,-0.0014366223476827145,-0.00232490710914135
1761476479082858800,0.843858642578125,0.10437792539596558,0.000056345947086811066,-0.0016846833750605583
1761476479092891600,0.8538916015625,0.10749751329421997,0.007473447825759649,0.006299691274762154
1761476479102924800,0.8639248046875,0.11050369590520859,0.016147363930940628,0.017858875915408134
1761476479112957700,0.873957763671875,0.10900113731622696,0.021718695759773254,0.024406522512435913
1761476479122990800,0.883990966796875,0.11178174614906311,0.022428428754210472,0.02151060476899147
1761476479133023700,0.894023681640625,0.11053283512592316,0.019235694780945778,0.012450506910681725
1761476479143058000,0.904057861328125,0.11145002394914627,0.017123542726039886,0.0003712065517902374
1761476479153090800,0.9140908203125,0.10567736625671387,0.01406896486878395,-0.0060073332861065865
1761476479163124000,0.9241240234375,0.09778083115816116,0.015896158292889595,-0.011817817576229572
1761476479173156900,0.934156982421875,0.09293616563081741,0.02531389333307743,-0.01119136717170477
1761476479183189800,0.944189697265625,0.09175612032413483,0.03222746029496193,-0.012499245814979076
1761476479193222700,0.95422265625,0.10359649360179901,0.0409419909119606,-0.011632431298494339
1761476479203255800,0.964255859375,0.12388498336076736,0.04229887202382088,-0.016228247433900833
1761476479213288700,0.974288818359375,0.13643749058246613,0.03626840561628342,-0.013169442303478718
1761476479223323000,0.984322998046875,0.12992046773433685,0.03472057729959488,-0.012656783685088158
1761476479233355800,0.994355712890625,0.11435142904520035,0.034739818423986435,-0.0033768508583307266
1761476479243389000,1.004388916015625,0.09448717534542084,0.0322958379983902,0.010250277817249298
1761476479253421800,1.014421875,0.07634385675191879,0.03121998719871044,0.018423467874526978
1761476479263454700,1.024454833984375,0.0723658949136734,0.023551682010293007,0.02283206209540367
1761476479273488000,1.03448779296875,0.07381178438663483,0.01621553674340248,0.02554357424378395
1761476479283520800,1.044520751953125,0.0787290409207344,0.012594969011843204,0.020698487758636475
1761476479293554000,1.054553955078125,0.08339614421129227,0.010181481018662453,0.012278706766664982
1761476479303587600,1.064587646484375,0.09111557900905609,0.012267001904547215,0.0000992724671959877
1761476479313620700,1.074620849609375,0.0904962494969368,0.017355434596538544,-0.004143431782722473
1761476479323653600,1.084653564453125,0.09244861453771591,0.023911338299512863,0.002922466956079006
1761476479333686800,1.094686767578125,0.09245936572551727,0.027498753741383553,0.009322557598352432
1761476479343719700,1.1047197265625,0.08926250785589218,0.03218671679496765,0.016008689999580383
1761476479353752800,1.1147529296875,0.08623046427965164,0.029084399342536926,0.016472777351737022
1761476479363785700,1.12478564453125,0.08539503067731857,0.027511801570653915,0.009164264425635338
1761476479373819000,1.13481884765625,0.08281639963388443,0.029711175709962845,0.0029569510370492935
1761476479383852800,1.144852783203125,0.07952632755041122,0.02909199148416519,-0.0032676560804247856
1761476479393886000,1.154885986328125,0.07559938728809357,0.03141646087169647,-0.0067467885091900826
1761476479403918800,1.1649189453125,0.07910064607858658,0.033074282109737396,-0.007491674739867449
1761476479413952000,1.174951904296875,0.08370205760002136,0.03582166135311127,-0.006178473588079214
1761476479423984600,1.184984619140625,0.0901208147406578,0.04296266287565231,-0.0063132294453680515
1761476479434017800,1.195017822265625,0.099022276699543,0.04613388702273369,-0.009062965400516987
1761476479444050700,1.20505078125,0.09583606570959091,0.04915843904018402,-0.010725044645369053
1761476479454083600,1.21508349609375,0.09421960264444351,0.05358527973294258,-0.014118297025561333
1761476479464117800,1.22511767578125,0.0871393233537674,0.05208965018391609,-0.013537728227674961
1761476479474151000,1.23515087890625,0.08636375516653061,0.04856908321380615,-0.007288716733455658
1761476479484183800,1.245183837890625,0.08726470172405243,0.035594429820775986,-0.007502834778279066
1761476479494216700,1.255216796875,0.08613120764493942,0.017844725400209427,-0.007842008024454117
1761476479504249900,1.265249755859375,0.08644359558820724,0.01039985939860344,-0.011217031627893448
1761476479514282800,1.27528271484375,0.08816762268543243,0.006964381318539381,-0.017446355894207954
1761476479524316000,1.28531591796875,0.08674256503582001,0.012478722259402275,-0.018598172813653946
1761476479534349600,1.295349609375,0.0815357118844986,0.01804792881011963,-0.02475479245185852
1761476479544382700,1.3053828125,0.0788230150938034,0.02484511397778988,-0.019712362438440323
1761476479554415600,1.31541552734375,0.07020219415426254,0.023172257468104362,-0.015142392367124557
1761476479564448800,1.32544873046875,0.06969565898180008,0.02015409804880619,-0.004937691614031792
1761476479574481700,1.335481689453125,0.06670624017715454,0.022192535921931267,-0.0006754128262400627
1761476479584514800,1.345514892578125,0.06541222333908081,0.02858438901603222,0.001604253426194191
1761476479594547700,1.355547607421875,0.06067294999957085,0.02740986831486225,-0.008342460729181767
1761476479604580900,1.365580810546875,0.058395419269800186,0.02060549147427082,-0.015202497132122517
1761476479614614800,1.37561474609375,0.05096955969929695,0.015064124949276447,-0.025296958163380623
1761476479624648000,1.38564794921875,0.04664378985762596,0.015806347131729126,-0.029891442507505417
1761476479634680800,1.395680908203125,0.04080153629183769,0.009736664593219757,-0.027931559830904007
1761476479644714000,1.4057138671875,0.03458012640476227,0.00524417869746685,-0.02301749587059021
1761476479654745900,1.415745849609375,0.03003191202878952,0.0034825680777430534,-0.021157100796699524
1761476479664778800,1.42577880859375,0.024417702108621597,0.0008945083245635033,-0.01781483367085457
1761476479674812000,1.43581201171875,0.020180795341730118,0.011741900816559792,-0.018573708832263947
1761476479684845600,1.445845458984375,0.011552953161299229,0.007109598256647587,-0.01884082518517971
1761476479694878700,1.455878662109375,0.00840066745877266,0.0026344149373471737,-0.01603078842163086
1761476479704911600,1.46591162109375,0.005589701235294342,0.0024200305342674255,-0.013666699640452862
1761476479714944800,1.47594482421875,-0.00024106446653604507,0.00020681461319327354,-0.011430218815803528
1761476479724977700,1.485977783203125,-0.0059745837934315205,-0.005040944088250399,-0.012574313208460808
1761476479735010800,1.4960107421875,-0.011429361067712307,-0.007025603204965591,-0.015319486148655415
1761476479745043700,1.506043701171875,-0.012088227085769176,-0.007330269552767277,-0.014856096357107162
1761476479755078000,1.516077880859375,-0.019126493483781815,-0.004421822261065245,-0.018272433429956436
1761476479765110800,1.52611083984375,-0.02542060799896717,-0.00676806690171361,-0.017833011224865913
1761476479775144000,1.53614404296875,-0.0331222228705883,-0.0025651250034570694,-0.013930940069258213
1761476479785176800,1.5461767578125,-0.03778861463069916,-0.003232247196137905,-0.009403832256793976
1761476479795210000,1.5562099609375,-0.044488802552223206,-0.003724745474755764,-0.004693199880421162
1761476479805243000,1.566242919921875,-0.04499000310897827,-0.004945272579789162,-0.0023384327068924904
1761476479815276000,1.576276123046875,-0.04677264392375946,-0.003455630037933588,0.0015095006674528122
1761476479825308700,1.58630859375,-0.043428778648376465,-0.00656620180234313,-0.008139930665493011
1761476479835342800,1.5963427734375,-0.042328037321567535,-0.010917731560766697,-0.018324237316846848
1761476479845375700,1.606375732421875,-0.04471636191010475,-0.011306286789476871,-0.034381765872240067
1761476479855409000,1.616408935546875,-0.05227801203727722,-0.002582249231636524,-0.029939699918031693
1761476479865441800,1.62644189453125,-0.05897985398769379,-0.001621114555746317,-0.02427675575017929
1761476479875474700,1.636474609375,-0.06611436605453491,-0.004419365432113409,-0.005347611382603645
1761476479885507800,1.6465078125,-0.06772744655609131,-0.01160350814461708,0.005410759709775448
1761476479895540700,1.656540771484375,-0.06759943068027496,-0.01723995804786682,0.011205335147678852
1761476479905575000,1.666574951171875,-0.07338514924049377,-0.009062721394002438,0.008741113357245922
1761476479915607800,1.67660791015625,-0.06706283241510391,-0.025745626538991928,-0.0020018601790070534
1761476479925640700,1.686640625,-0.06711956113576889,-0.03910404443740845,-0.010533297434449196
1761476479935673600,1.696673583984375,-0.06591939926147461,-0.036825235933065414,-0.014570298604667187
1761476479945706800,1.706706787109375,-0.06805472075939178,-0.029865330085158348,-0.006056172773241997
1761476479955739600,1.71673974609375,-0.0692354142665863,-0.031847722828388214,0.008321455679833889
1761476479965772800,1.726772705078125,-0.06888440996408463,-0.019278667867183685,0.015713859349489212
1761476479975806700,1.736806640625,-0.07052227854728699,-0.007307291962206364,0.019115198403596878
1761476479985839900,1.74683984375,-0.07041548937559128,0.0008153491653501987,0.017096256837248802
1761476479995872800,1.756872802734375,-0.07351488620042801,-0.00009524496272206306,0.015757758170366287
1761476480005906000,1.766906005859375,-0.07481797784566879,-0.0010486566461622715,0.016298115253448486
1761476480015938800,1.776938720703125,-0.07129420340061188,0.001892391126602888,0.010187136009335518
1761476480025972000,1.786971923828125,-0.06941214948892593,0.0009970366954803467,0.01699870266020298
1761476480036004900,1.7970048828125,-0.06709165126085281,0.0015068999491631985,0.022517768666148186
1761476480046038800,1.807038818359375,-0.06292194128036499,-0.0005985954776406288,0.03108995221555233
1761476480056071700,1.81707177734375,-0.05713668465614319,0.00011686421930789948,0.030954275280237198
1761476480066104800,1.827104736328125,-0.056818701326847076,-0.002497561275959015,0.02494432032108307
1761476480076137700,1.8371376953125,-0.05467452481389046,-0.007295049726963043,0.017430301755666733
1761476480086170600,1.847170654296875,-0.04721447825431824,-0.008103584870696068,0.008770235814154148
1761476480096203800,1.857203857421875,-0.04386775195598602,-0.012672699987888336,0.008479327894747257
1761476480106236700,1.867236572265625,-0.041408322751522064,-0.014832790940999985,0.0008925143629312515
1761476480116269800,1.877269775390625,-0.03747044503688812,-0.022838044911623,0.0023820530623197556
1761476480126303700,1.8873037109375,-0.03638174384832382,-0.028346261009573936,0.0005676411092281342
1761476480136337000,1.8973369140625,-0.03325631469488144,-0.029530376195907593,0.0010338090360164642
1761476480146369800,1.907369873046875,-0.034671515226364136,-0.027975622564554214,0.0037635480985045433
1761476480156403000,1.91740283203125,-0.03236585110425949,-0.029509535059332848,0.0014530634507536888
1761476480166435800,1.927435791015625,-0.02923770248889923,-0.023739531636238098,-0.00034989602863788605
1761476480176468700,1.93746875,-0.026955360546708107,-0.013463455252349377,-0.0016249660402536392
1761476480186501600,1.947501708984375,-0.027304500341415405,-0.007879871875047684,0.003134368918836117
1761476480196535800,1.957535888671875,-0.022921230643987656,-0.0005242270417511463,0.0021198661997914314
1761476480206568700,1.967568603515625,-0.01831263303756714,0.005037518218159676,0.0014167921617627144
1761476480216601900,1.977601806640625,-0.016414359211921692,0.0027729093562811613,0.010420682840049267
1761476480226634800,1.987634765625,-0.015308082103729248,-0.0004985174164175987,0.012513929046690464
1761476480236668000,1.99766796875,-0.01814623922109604,-0.009075768291950226,0.010741222649812698
1761476480246700800,2.00770068359375,-0.015720631927251816,-0.015283063054084778,0.012154828757047653
1761476480256734000,2.01773388671875,-0.011364191770553589,-0.013337289914488792,0.01048858929425478
1761476480266767600,2.027767578125,-0.004288438707590103,-0.008731618523597717,0.0007206471636891365
1761476480276800800,2.03780078125,-0.002297571860253811,0.00011919345706701279,-0.002650095149874687
1761476480286833700,2.047833740234375,0.0038969404995441437,0.0027900778222829103,-0.002613610588014126
1761476480296866800,2.05786669921875,0.00852380320429802,0.007732643745839596,-0.004779480397701263
1761476480306899700,2.067899658203125,0.012037046253681183,0.01242406852543354,0.0033325087279081345
1761476480316932600,2.0779326171875,0.019205225631594658,0.015342156402766705,0.009733942337334156
1761476480326965800,2.0879658203125,0.02127263695001602,0.014998874627053738,0.015955351293087006
1761476480337000000,2.098,0.02931305766105652,0.006679292768239975,0.020151842385530472
1761476480347032800,2.10803271484375,0.032178886234760284,0.00914245005697012,0.018358204513788223
1761476480357065700,2.118065673828125,0.03588765859603882,0.01034526526927948,0.013971539214253426
1761476480367099000,2.128098876953125,0.03693161904811859,0.01750597357749939,0.00695490837097168
1761476480377131800,2.1381318359375,0.04516378045082092,0.019274123013019562,0.0014495588839054108
1761476480387165000,2.1481650390625,0.048679422587156296,0.02047094702720642,0.0025816690176725388
1761476480397197800,2.15819775390625,0.05314221978187561,0.01590815559029579,-0.006184897851198912
1761476480407231000,2.16823095703125,0.060275763273239136,0.01505647599697113,-0.012560505419969559
1761476480417264600,2.1782646484375,0.06352564692497253,0.016276922076940536,-0.013652733527123928
1761476480427297800,2.1882978515625,0.06638801097869873,0.016448963433504105,-0.018726853653788567
1761476480437330700,2.19833056640625,0.06910644471645355,0.01783294416964054,-0.019666070118546486
1761476480447363800,2.20836376953125,0.06928195059299469,0.019918199628591537,-0.013898994773626328
1761476480457396700,2.218396728515625,0.07371532171964645,0.026102330535650253,-0.005578162148594856
1761476480467430000,2.228429931640625,0.07853138446807861,0.026888228952884674,-0.0016321567818522453
1761476480477462800,2.238462890625,0.08599633723497391,0.031239239498972893,-0.006428795866668224
1761476480487497000,2.2484970703125,0.08647038042545319,0.03218146786093712,-0.01244674064218998
1761476480497529900,2.25852978515625,0.08024801313877106,0.032628338783979416,-0.014901988208293915
1761476480507562800,2.268562744140625,0.08059342950582504,0.024396507069468498,-0.012717131525278091
1761476480517595600,2.278595703125,0.07932327687740326,0.013845132663846016,-0.008351551368832588
1761476480527628800,2.28862890625,0.08262081444263458,0.001908312551677227,-0.008740372955799103
1761476480537661700,2.29866162109375,0.08733014762401581,-0.0042820703238248825,-0.002898317761719227
1761476480547694600,2.308694580078125,0.09266765415668488,-0.006067986600100994,-0.0012918990105390549
1761476480557728800,2.318728759765625,0.0956350713968277,-0.010199557058513165,-0.008722732774913311
1761476480567762000,2.328761962890625,0.09418737888336182,-0.004109974019229412,-0.012646634131669998
1761476480577794800,2.338794921875,0.09567657858133316,0.01084194891154766,-0.01770934648811817
1761476480587827700,2.34882763671875,0.09677087515592575,0.020860495045781136,-0.018988728523254395
1761476480597860900,2.35886083984375,0.09346915781497955,0.03131779655814171,-0.01396293193101883
1761476480607893800,2.368893798828125,0.09152984619140625,0.04135951027274132,-0.009747680276632309
1761476480617927000,2.378927001953125,0.08799535781145096,0.04978508874773979,-0.0012224894016981125
1761476480627960600,2.388960693359375,0.08858738094568253,0.05006498843431473,-0.0010456554591655731
1761476480637993700,2.39899365234375,0.09458747506141663,0.04116576537489891,-0.0014768736436963081
1761476480648026600,2.409026611328125,0.09333471953868866,0.030764523893594742,-0.004624197259545326
1761476480658060500,2.419060546875,0.09932037442922592,0.024359486997127533,-0.00520464638248086
1761476480668093400,2.429093505859375,0.09682898223400116,0.01892237737774849,0.00036801863461732864
1761476480678126600,2.439126708984375,0.09756593406200409,0.01598125509917736,0.0026563582941889763
1761476480688159500,2.449159423828125,0.10175535082817078,0.023163268342614174,0.0020978935062885284
1761476480698193700,2.459193603515625,0.10292334854602814,0.0280979722738266,0.0023542093113064766
1761476480708226600,2.4692265625,0.10575934499502182,0.03199443966150284,-0.004999843891710043
1761476480718259500,2.479259521484375,0.10660991817712784,0.02569413185119629,-0.012651736848056316
1761476480728292400,2.489292236328125,0.10790741443634033,0.019764604046940804,-0.011961178854107857
1761476480738325200,2.4993251953125,0.11167432367801666,0.014047065749764442,-0.009656188078224659
1761476480748358400,2.5093583984375,0.10971157252788544,0.007104204967617989,-0.0071360389702022076
1761476480758391300,2.519391357421875,0.10453556478023529,-0.00032415520399808884,-0.0036409851163625717
1761476480768424400,2.529424560546875,0.10293527692556381,-0.0012687784619629383,-0.007154759950935841
1761476480778458400,2.539458251953125,0.09802505373954773,0.0017527793534100056,-0.008951349183917046
1761476480788491500,2.549491455078125,0.08994262665510178,0.004748036619275808,-0.010777744464576244
1761476480798524400,2.5595244140625,0.08723378926515579,0.006774764508008957,-0.006414718460291624
1761476480808557600,2.5695576171875,0.08260095864534378,0.015801016241312027,-0.0043550292029976845
1761476480818590500,2.579590576171875,0.08437008410692215,0.0208880677819252,0.004837467335164547
1761476480828623600,2.58962353515625,0.08079159259796143,0.021328553557395935,0.0099091911688447
1761476480838656500,2.599656494140625,0.07860392332077026,0.020002353936433792,0.009522097185254097
1761476480848690400,2.6096904296875,0.07309463620185852,0.015874452888965607,0.006751079112291336
1761476480858723300,2.619723388671875,0.06305432319641113,0.00834577064961195,0.005381884053349495
1761476480868756500,2.629756591796875,0.05775436758995056,0.0052130939438939095,0.0012140367180109024
1761476480878789400,2.639789306640625,0.05144172161817551,0.005835412535816431,0.002415901981294155
1761476480888822500,2.649822509765625,0.04507223889231682,0.002464383142068982,0.0034103263169527054
1761476480898855400,2.65985546875,0.037424273788928986,0.0015340745449066162,0.004343424923717976
1761476480908888300,2.669888427734375,0.03313232213258743,0.004529598169028759,0.003099462017416954
1761476480918922500,2.679922607421875,0.027978219091892242,0.006470049731433392,0.002741127274930477
1761476480928955600,2.68995556640625,0.02316269278526306,0.010416321456432343,0.0013624085113406181
1761476480938988500,2.699988525390625,0.015833422541618347,0.01091119647026062,0.004089743830263615
1761476480949021400,2.710021484375,0.012756140902638435,0.00873858854174614,0.005776590667665005
1761476480959054600,2.7200546875,0.008781122975051403,0.006009175907820463,0.00816916860640049
1761476480969087500,2.73008740234375,0.00557201262563467,0.0030991400126367807,0.013690168038010597
1761476480979120400,2.740120361328125,-0.0022227102890610695,0.0008321292698383331,0.01828618347644806
1761476480989154300,2.750154296875,-0.01200929470360279,-0.0027064126916229725,0.025485776364803314
1761476480999187500,2.7601875,-0.016851425170898438,-0.0009539881721138954,0.023606695234775543
1761476481009220400,2.770220458984375,-0.01566738449037075,0.0027371530886739492,0.02399498224258423
1761476481019253500,2.78025341796875,-0.018177371472120285,0.00972802098840475,0.022554311901330948
1761476481029286400,2.790286376953125,-0.026131168007850647,0.008010282181203365,0.018499914556741714
1761476481039319600,2.800319580078125,-0.03188019245862961,0.006476171780377626,0.013538087718188763
1761476481049352400,2.8103525390625,-0.033255450427532196,-0.00010876031592488289,0.00870764721184969
1761476481059385600,2.820385498046875,-0.03891502320766449,-0.0026302551850676537,0.005616203881800175
1761476481069419300,2.830419189453125,-0.03967801481485367,-0.002784186042845249,0.01100750733166933
1761476481079452400,2.840452392578125,-0.04298073798418045,0.004079185426235199,0.01828095130622387
1761476481089485300,2.8504853515625,-0.04949003458023071,0.005204637069255114,0.020763548091053963
1761476481099518500,2.8605185546875,-0.051750972867012024,0.004948104731738567,0.02452780306339264
1761476481109551400,2.87055126953125,-0.05642934888601303,0.007348145358264446,0.018556993454694748
1761476481119584500,2.88058447265625,-0.0555269718170166,0.002494466956704855,0.01150194276124239
1761476481129617400,2.890617431640625,-0.04847065731883049,-0.0011873533949255943,0.003146274946630001
1761476481139651600,2.900651611328125,-0.04761246219277382,-0.002494966145604849,-0.008656349033117294
1761476481149684500,2.9106845703125,-0.05345836654305458,-0.004765577148646116,-0.0063790795393288136
1761476481159717600,2.920717529296875,-0.06064736470580101,-0.007815618067979813,-0.0048901415430009365
1761476481169750500,2.93075048828125,-0.06720645725727081,-0.021319175139069557,0.0020676329731941223
1761476481179783400,2.940783447265625,-0.06924606114625931,-0.034143634140491486,0.008051411248743534
1761476481189816600,2.950816650390625,-0.06934966146945953,-0.03784303367137909,0.014759381301701069
1761476481199849500,2.960849365234375,-0.06598381698131561,-0.04290963336825371,0.016713310033082962
1761476481209883400,2.97088330078125,-0.06984779983758926,-0.04336024075746536,0.011574741452932358
1761476481219916300,2.980916259765625,-0.07083132863044739,-0.03461981192231178,0.003880821168422699
1761476481229949400,2.990949462890625,-0.07269661128520966,-0.019399315118789673,0.0004919497296214104
1761476481239982300,3.000982421875,-0.07652527838945389,-0.007176465354859829,-0.0001583155244588852
1761476481250015500,3.011015380859375,-0.07961028814315796,0.0009368546307086945,0.00850761029869318
1761476481260048400,3.02104833984375,-0.07964956760406494,0.004995041061192751,0.008180275559425354
1761476481270081500,3.03108154296875,-0.08007167279720306,0.0103306844830513,0.013919919729232788
1761476481280115500,3.041115478515625,-0.08388058841228485,0.004569602198898792,0.015839431434869766
1761476481290148600,3.051148681640625,-0.08786653727293015,0.0010140156373381615,0.009466222487390041
1761476481300181500,3.061181396484375,-0.08677101135253906,-0.00264723040163517,0.008161346428096294
1761476481310214400,3.07121435546875,-0.08813907951116562,-0.013855410739779472,0.007910209707915783
1761476481320247300,3.081247314453125,-0.08719757944345474,-0.017223645001649857,0.00867947842925787
1761476481330280400,3.091280517578125,-0.08175620436668396,-0.01504038367420435,0.013091004453599453
1761476481340313300,3.101313232421875,-0.08037705719470978,-0.010361879132688046,0.017651952803134918
1761476481350346500,3.111346435546875,-0.07858341932296753,-0.009143748320639133,0.02133616805076599
1761476481360380400,3.12138037109375,-0.07699201256036758,-0.011231067590415478,0.01921982690691948
1761476481370413600,3.13141357421875,-0.07417598366737366,-0.011455039493739605,0.012115845456719398
1761476481380446500,3.141446533203125,-0.07275816798210144,-0.012462174519896507,0.003295416943728924
1761476481390479600,3.151479736328125,-0.07743680477142334,-0.01850062608718872,-0.0004982557147741318
1761476481400512500,3.161512451171875,-0.07165468484163284,-0.025639699772000313,-0.005408357363194227
1761476481410545400,3.17154541015625,-0.07227066904306412,-0.028257323428988457,-0.0043486859649419785
1761476481420578600,3.18157861328125,-0.06938371807336807,-0.028691548854112625,-0.006479815114289522
1761476481430612500,3.191612548828125,-0.0703914612531662,-0.0295107364654541,-0.0092460410669446
1761476481440645400,3.201645263671875,-0.07002007216215134,-0.024099189788103104,-0.007321881130337715
1761476481450678300,3.21167822265625,-0.07151730358600616,-0.01727696880698204,-0.006274725776165724
1761476481460711400,3.22171142578125,-0.07202397286891937,-0.009418120607733727,-0.0016638124361634254
1761476481470744300,3.231744384765625,-0.07198083400726318,-0.004220695234835148,0.00030825845897197723
1761476481480777500,3.241777587890625,-0.06816061586141586,-0.0047685070894658566,-0.0003081373870372772
1761476481490810400,3.251810302734375,-0.06804583221673965,-0.005527507979422808,-0.0035342909395694733
1761476481500844500,3.261844482421875,-0.06774872541427612,-0.01005401648581028,-0.009751632809638977
1761476481510877400,3.27187744140625,-0.07199007272720337,-0.01570151560008526,-0.008367322385311127
1761476481520910600,3.28191064453125,-0.07693716138601303,-0.024453993886709213,-0.00697022769600153
1761476481530943500,3.291943603515625,-0.07510410249233246,-0.024002589285373688,-0.00012404005974531174
1761476481540976600,3.3019765625,-0.07812187820672989,-0.022173529490828514,0.007318403571844101
1761476481551009500,3.312009521484375,-0.0772843137383461,-0.020326094701886177,0.0109845120459795
1761476481561042400,3.32204248046875,-0.07766246795654297,-0.016324959695339203,0.013302045874297619
1761476481571075300,3.332075439453125,-0.08241354674100876,-0.01299281232059002,0.016302097588777542
1761476481581109500,3.342109619140625,-0.08264333009719849,-0.011576613411307335,0.01842654123902321
1761476481591142400,3.352142333984375,-0.08072052896022797,-0.014946576207876205,0.018933076411485672
1761476481601175600,3.362175537109375,-0.07638965547084808,-0.02267799898982048,0.016188256442546844
1761476481611208400,3.37220849609375,-0.07367616891860962,-0.02466019056737423,0.02308184839785099
1761476481621241600,3.38224169921875,-0.07672415673732758,-0.02415531687438488,0.02291732281446457
1761476481631274500,3.3922744140625,-0.07547140121459961,-0.017016179859638214,0.019217658787965775
1761476481641307400,3.402307373046875,-0.07185594737529755,-0.01283934898674488,0.011945478618144989
1761476481651341300,3.41234130859375,-0.07573404163122177,-0.009775115177035332,0.00223452877253294
1761476481661375000,3.422375,-0.07577423006296158,-0.00466897152364254,0.001330699771642685
1761476481671407900,3.432407958984375,-0.07060716301202774,-0.0034521734341979027,-0.0009202035143971443
1761476481681441000,3.44244091796875,-0.06354158371686935,-0.001134288962930441,0.006486483849585056
1761476481691474000,3.452473876953125,-0.05835667997598648,-0.0005561164580285549,0.011699088849127293
1761476481701506800,3.4625068359375,-0.054072748869657516,0.0017065019346773624,0.01287290919572115
1761476481711540000,3.4725400390625,-0.05121650919318199,0.002539006294682622,0.010998842306435108
1761476481721572900,3.48257275390625,-0.052920788526535034,0.00438404455780983,0.005481597036123276
1761476481731607000,3.49260693359375,-0.04846398904919624,0.009576143696904182,0.0022224197164177895
1761476481741640000,3.502639892578125,-0.04422915726900101,0.010434746742248535,-0.004646113142371178
1761476481751673000,3.512673095703125,-0.03775714337825775,0.011386826634407043,-0.007755353581160307
1761476481761706000,3.5227060546875,-0.029537854716181755,0.011213388293981552,-0.0080890953540802
1761476481771739000,3.53273876953125,-0.0224170945584774,0.004160272888839245,-0.01867622509598732
1761476481781771800,3.542771728515625,-0.016944117844104767,-0.0013508028350770473,-0.0246767345815897
1761476481791805000,3.552804931640625,-0.011504611000418663,-0.001994755119085312,-0.036209553480148315
1761476481801838800,3.5628388671875,-0.010664875619113445,-0.003569886088371277,-0.03464863449335098
1761476481811872000,3.5728720703125,-0.008046455681324005,-0.005257264710962772,-0.029185157269239426
1761476481821905000,3.58290478515625,-0.004323313012719154,-0.007969893515110016,-0.019725510850548744
1761476481831938000,3.59293798828125,-0.000163189135491848,-0.015299977734684944,-0.013568016700446606
1761476481841971000,3.602970947265625,0.005906660109758377,-0.009047208353877068,-0.009396220557391644
1761476481852004000,3.613004150390625,0.009753063321113586,-0.008167032152414322,-0.004749270621687174
1761476481862037000,3.623037109375,0.012012321501970291,-0.00259230425581336,-0.001020653173327446
1761476481872071000,3.63307080078125,0.014252040535211563,0.00780520960688591,-0.0010174578055739403
1761476481882103800,3.643103759765625,0.0191031564027071,0.015718858689069748,0.001389581710100174
1761476481892137000,3.653136962890625,0.024349849671125412,0.019807610660791397,-0.002688783220946789
1761476481902169900,3.663169921875,0.026133829727768898,0.017527278512716293,-0.010499981231987476
1761476481912203000,3.673203125,0.027502162382006645,0.016712617129087448,-0.016786638647317886
1761476481922236000,3.68323583984375,0.027237853035330772,0.013408967293798923,-0.022627193480730057
1761476481932268800,3.693268798828125,0.027549440041184425,0.015837237238883972,-0.023318815976381302
1761476481942302000,3.703302001953125,0.03213398531079292,0.011543819680809975,-0.01820787414908409
1761476481952336100,3.713336181640625,0.03526506572961807,0.006444931495934725,-0.013173434883356094
1761476481962369000,3.723369140625,0.04253741353750229,0.0020473869517445564,-0.00283042062073946
1761476481972402000,3.73340185546875,0.04999133571982384,0.004820536356419325,0.004488212056457996
1761476481982435000,3.74343505859375,0.05755043774843216,0.013366022147238255,0.007483472116291523
1761476481992468000,3.753468017578125,0.060239702463150024,0.026211246848106384,0.005046413280069828
1761476482002501000,3.763501220703125,0.06610031425952911,0.045158907771110535,-0.000482422299683094
1761476482012534000,3.773533935546875,0.07409032434225082,0.04753338545560837,-0.008060181513428688
1761476482022568000,3.78356787109375,0.08026544004678726,0.042170438915491104,-0.006895272061228752
1761476482032600800,3.793600830078125,0.0826345831155777,0.028223466128110886,-0.007887831889092922
1761476482042634000,3.803634033203125,0.09110905230045319,0.012368401512503624,-0.015870343893766403
1761476482052667000,3.8136669921875,0.09563030302524567,-0.006178917363286018,-0.02529340609908104
1761476482062700000,3.823699951171875,0.10608293861150742,-0.016505654901266098,-0.04021961987018585
1761476482072733000,3.83373291015625,0.11111178249120712,-0.011335394345223904,-0.049627505242824554
1761476482082766000,3.84376611328125,0.11788370460271835,-0.0028070849366486073,-0.04568779096007347
1761476482092799000,3.853799072265625,0.11791647225618362,0.013109296560287476,-0.034703850746154785
1761476482102833200,3.863833251953125,0.1160990446805954,0.02915710210800171,-0.02312622219324112
1761476482112866000,3.873865966796875,0.1184261217713356,0.047132376581430435,-0.015070958063006401
1761476482122899000,3.88389892578125,0.1193658784031868,0.05405725911259651,-0.014070289209485054
1761476482132931800,3.893931884765625,0.11941247433423996,0.04999513924121857,-0.01477069966495037
1761476482142964700,3.90396484375,0.12478140741586685,0.041212569922208786,-0.020756155252456665
1761476482152998000,3.913997802734375,0.1251494586467743,0.034045469015836716,-0.02312503755092621
1761476482163030800,3.92403076171875,0.12290982156991959,0.03233272209763527,-0.02204844355583191
1761476482173065000,3.93406494140625,0.12158862501382828,0.029437866061925888,-0.02151075378060341
1761476482183097900,3.944097900390625,0.12528732419013977,0.029793862253427505,-0.01634189486503601
1761476482193131000,3.954131103515625,0.12164731323719025,0.02483559027314186,-0.0143847381696105
1761476482203164000,3.964163818359375,0.12252495437860489,0.02402978576719761,-0.02074199542403221
1761476482213197000,3.974197021484375,0.12225305289030075,0.021313095465302467,-0.020211495459079742
1761476482223230000,3.98422998046875,0.12696492671966553,0.016222529113292694,-0.02511202171444893
1761476482233263000,3.99426318359375,0.1240149512887001,0.02065429463982582,-0.026347994804382324
1761476482243296000,4.0042958984375,0.1259480118751526,0.01939488761126995,-0.031099844723939896
1761476482253330000,4.014329833984375,0.1243991106748581,0.017293119803071022,-0.030879337340593338
1761476482263362800,4.02436279296875,0.11846612393856049,0.018512047827243805,-0.025915786623954773
1761476482273396000,4.03439599609375,0.11753374338150024,0.018694475293159485,-0.025527499616146088
1761476482283428900,4.044428955078125,0.11253350973129272,0.018643809482455254,-0.02168857306241989
1761476482293462000,4.0544619140625,0.11117103695869446,0.01299551036208868,-0.023832684382796288
1761476482303495000,4.064494873046875,0.10451364517211914,0.02091175504028797,-0.02108914777636528
1761476482313528000,4.074528076171875,0.10230322182178497,0.025744326412677765,-0.017807601019740105
1761476482323561000,4.08456103515625,0.09323136508464813,0.026550132781267166,-0.015714503824710846
1761476482333595100,4.09459521484375,0.09269660711288452,0.03236061707139015,-0.015401050448417664
1761476482343628000,4.1046279296875,0.08817363530397415,0.024804100394248962,-0.01539244968444109
1761476482353661200,4.1146611328125,0.0827927216887474,0.020420804619789124,-0.017489422112703323
1761476482363694000,4.124694091796875,0.07886770367622375,0.012617740780115128,-0.015888215973973274
1761476482373726700,4.134726806640625,0.07179728150367737,0.00865841843187809,-0.014173938892781734
1761476482383760000,4.144759765625,0.06659244745969772,0.010987088084220886,-0.01373702846467495
1761476482393792800,4.154792724609375,0.06578976660966873,0.011755676940083504,-0.011186785995960236
1761476482403827000,4.164826904296875,0.061484165489673615,0.011514858342707157,-0.005882234778255224
1761476482413859800,4.17485986328125,0.06056191027164459,0.012070925906300545,-0.0055229743011295795
1761476482423893000,4.18489306640625,0.05413028597831726,0.002398802898824215,-0.00847783125936985
1761476482433926000,4.19492578125,0.04799728840589523,0.004349035676568747,-0.007614967878907919
1761476482443959000,4.204958984375,0.037447065114974976,-0.00044107064604759216,-0.008623277768492699
1761476482453992000,4.214991943359375,0.029681019484996796,0.0017525753937661648,-0.0017709648236632347
1761476482464025000,4.225025146484375,0.02337638847529888,-0.006633919198065996,-0.001214391551911831
1761476482474058000,4.23505810546875,0.0171097032725811,-0.008543672040104866,-0.0004873480647802353
1761476482484092000,4.245091796875,0.010610433295369148,-0.015699317678809166,-0.004211386665701866
1761476482494124800,4.255124755859375,0.008915064856410027,-0.02643159218132496,-0.007976830005645752
1761476482504158000,4.265157958984375,0.002585502341389656,-0.03230658918619156,-0.011157757602632046
1761476482514190800,4.27519091796875,-0.0028172526508569717,-0.033923663198947906,-0.014625192619860172
1761476482524224000,4.28522412109375,-0.007960230112075806,-0.03178108111023903,-0.012243872508406639
1761476482534257000,4.2952568359375,-0.01575503498315811,-0.024260584264993668,-0.010704565793275833
1761476482544290000,4.3052900390625,-0.02515890635550022,-0.015293720178306103,-0.012283504009246826
1761476482554324000,4.315323974609375,-0.03338887542486191,-0.006346297450363636,-0.008697024546563625
1761476482564357000,4.325357177734375,-0.04181525856256485,-0.0019411626271903515,-0.005200054030865431
1761476482574390000,4.33539013671875,-0.047199904918670654,0.003675976302474737,0.003123655915260315
1761476482584423200,4.345423095703125,-0.050338950008153915,0.0016505816020071507,0.00591688696295023
1761476482594456000,4.3554560546875,-0.05803095921874046,-0.0023111365735530853,0.008117989636957645
1761476482604489000,4.365489013671875,-0.058815911412239075,-0.0018998170271515846,0.013855469413101673
1761476482614521900,4.37552197265625,-0.06210624799132347,-0.003732871264219284,0.018108539283275604
1761476482624554800,4.3855546875,-0.06559261679649353,-0.009936771355569363,0.018218478187918663
1761476482634589000,4.3955888671875,-0.06455770879983902,-0.009830244816839695,0.017804624512791634
1761476482644621800,4.405621826171875,-0.06382694095373154,-0.011622020043432713,0.014520414173603058
1761476482654658000,4.415657958984375,-0.06717506796121597,-0.01802559196949005,0.012386688962578773
1761476482664691000,4.42569091796875,-0.0716988742351532,-0.024035613983869553,0.006079451180994511
1761476482674724000,4.43572412109375,-0.07445259392261505,-0.0205916129052639,0.0026232004165649414
1761476482684757000,4.445757080078125,-0.07303979992866516,-0.028339814394712448,0.00279039703309536
1761476482694790100,4.4557900390625,-0.07568192481994629,-0.03341366723179817,0.0009184610098600388
1761476482704823000,4.465822998046875,-0.07856401801109314,-0.03372272849082947,-0.0020602773874998093
1761476482714857200,4.475857177734375,-0.07787930965423584,-0.034239381551742554,-0.0028243381530046463
1761476482724890000,4.48589013671875,-0.07539521902799606,-0.030558761209249496,-0.009549068287014961
1761476482734923000,4.495923095703125,-0.07479840517044067,-0.028517980128526688,-0.015599504113197327
1761476482744956000,4.505955810546875,-0.07360735535621643,-0.03212722763419151,-0.02066091075539589
1761476482754989000,4.515989013671875,-0.07199134677648544,-0.03598055616021156,-0.021613258868455887
1761476482765022000,4.52602197265625,-0.07338152080774307,-0.029788706451654434,-0.01771811954677105
1761476482775054800,4.536054931640625,-0.07265740633010864,-0.02367941476404667,-0.00998776126652956
1761476482785088000,4.546087890625,-0.07479685544967651,-0.02267267368733883,-0.002630273811519146
1761476482795122200,4.5561220703125,-0.08066140860319138,-0.01929818093776703,-0.001861685886979103
1761476482805155000,4.566155029296875,-0.08125430345535278,-0.007858240976929665,0.004228820092976093
1761476482815188000,4.57618798828125,-0.08277896046638489,-0.003957242704927921,0.006087440066039562
1761476482825221000,4.58622119140625,-0.07941809296607971,-0.00594702223315835,0.0022782785817980766
1761476482835254000,4.59625390625,-0.07594665884971619,-0.01555996760725975,0.004649024456739426
1761476482845287200,4.606287109375,-0.07396750152111053,-0.015675418078899384,0.008604634553194046
1761476482855320000,4.616320068359375,-0.07437016814947128,-0.02130747213959694,0.008276000618934631
1761476482865354000,4.62635400390625,-0.07439160346984863,-0.018754031509160995,0.007963637821376324
1761476482875387000,4.636386962890625,-0.07369305193424225,-0.019652314484119415,0.007109294645488262
1761476482885420000,4.646419921875,-0.07686924189329147,-0.017882313579320908,0.002061612904071808
1761476482895453000,4.656452880859375,-0.07709028571844101,-0.01491555105894804,0.0022829221561551094
1761476482905486000,4.666486083984375,-0.07278359681367874,-0.013840299099683762,0.0030541028827428818
1761476482915519000,4.67651904296875,-0.07204430550336838,-0.01576150394976139,0.0038112392649054527
1761476482925552000,4.68655224609375,-0.06629329174757004,-0.015861772000789642,0.004004389047622681
1761476482935585000,4.6965849609375,-0.05970463156700134,-0.018034111708402634,0.0023542949929833412
1761476482945619200,4.706619140625,-0.05864492058753967,-0.017647888511419296,0.0009543681517243385
1761476482955652000,4.716652099609375,-0.05489412322640419,-0.016317905858159065,-0.0058502741158008575
1761476482965685200,4.726685302734375,-0.054138489067554474,-0.01603221520781517,-0.010082376189529896
1761476482975718100,4.73671826171875,-0.04924759268760681,-0.013132563792169094,-0.013055263087153435
1761476482985751000,4.7467509765625,-0.04773113131523132,-0.014080517925322056,-0.015275711193680763
1761476482995784000,4.756783935546875,-0.04899320378899574,-0.015592393465340137,-0.01092570461332798
1761476483005816800,4.76681689453125,-0.048503633588552475,-0.01785854436457157,-0.011114378459751606
1761476483015850000,4.77685009765625,-0.048855971544981,-0.02205541916191578,-0.005437051877379417
1761476483025884200,4.78688427734375,-0.046459127217531204,-0.018373332917690277,-0.0025368696078658104
1761476483035917000,4.7969169921875,-0.037374284118413925,-0.009369984269142151,-0.001873476430773735
1761476483045950000,4.806949951171875,-0.031503017991781235,-0.008758189156651497,-0.0018152706325054169
1761476483055983000,4.816983154296875,-0.024452831596136093,-0.006811685394495726,-0.008325101807713509
1761476483066016000,4.82701611328125,-0.019234368577599525,-0.0017588692717254162,-0.014486057683825493
1761476483076049200,4.837049072265625,-0.021109234541654587,-0.00030664773657917976,-0.010358158499002457
1761476483086082000,4.84708203125,-0.022511618211865425,-0.0025747278705239296,-0.005028329323977232
1761476483096116000,4.857115966796875,-0.02144502103328705,-0.011447582393884659,0.009892563335597515
1761476483106148900,4.86714892578125,-0.020023001357913017,-0.020453594624996185,0.017282377928495407
1761476483116182000,4.87718212890625,-0.015127046033740044,-0.033508941531181335,0.012928642332553864
1761476483126215000,4.88721484375,-0.00817306898534298,-0.04615003615617752,0.0023176632821559906
1761476483136248000,4.897248046875,-0.005119222681969404,-0.04898710176348686,-0.010673768818378448
1761476483146281000,4.907281005859375,-0.0031092381104826927,-0.04533783718943596,-0.02409670501947403
1761476483156314000,4.917314208984375,-0.0022873864509165287,-0.03903466835618019,-0.024862363934516907
1761476483166347000,4.927346923828125,-0.001976356375962496,-0.023418225347995758,-0.021586459130048752
1761476483176381200,4.937381103515625,0.00010916497558355331,-0.012257450260221958,-0.015656663104891777
1761476483186414000,4.9474140625,0.001359795220196247,-0.00015065306797623634,-0.008844566531479359
1761476483196447200,4.957447265625,0.003948920406401157,0.007309660315513611,0.0019699977710843086
1761476483206480100,4.967480224609375,0.0006844345480203629,0.013480736874043941,0.002447020262479782
1761476483216513300,4.97751318359375,-0.0007656561210751534,0.01717560738325119,0.012621627189218998
1761476483226546200,4.987546142578125,0.0012235119938850403,0.006446929648518562,0.014286997728049755
1761476483236578800,4.997578857421875,0.00498016644269228,0.0009075547568500042,0.012003337033092976
1761476483246612000,5.007612060546875,0.00911150686442852,0.002322359709069133,0.009261086583137512
1761476483256646100,5.017646240234375,0.012253506109118462,-0.002682785037904978,0.005009084939956665
1761476483266679000,5.027678955078125,0.01510409265756607,-0.006533783860504627,-0.00025480426847934723
1761476483276712000,5.0377119140625,0.014103809371590614,-0.009339690208435059,-0.00780672999098897
1761476483286745000,5.0477451171875,0.01728915423154831,-0.004739411640912294,-0.006160245276987553
1761476483296778000,5.057778076171875,0.01862339675426483,-0.0030909148044884205,-0.0024752290919423103
1761476483306811100,5.06781103515625,0.01447451114654541,-0.004960586316883564,0.0035883523523807526
1761476483316844000,5.077843994140625,0.015572000294923782,0.00034469738602638245,0.01061696745455265
1761476483326877200,5.087877197265625,0.01632959023118019,0.0009168088436126709,0.004094208590686321
1761476483336910800,5.097910888671875,0.014752998948097229,-0.0009479369036853313,0.007964047603309155
1761476483346944000,5.107944091796875,0.017251640558242798,0.0002388344146311283,0.0023862039670348167
1761476483356977000,5.117976806640625,0.01684577390551567,-0.002067196648567915,-0.0049984753131866455
1761476483367010000,5.128010009765625,0.013859190046787262,-0.006614477839320898,-0.007353486027568579
1761476483377043000,5.13804296875,0.014421382918953896,-0.006261875387281179,-0.009444866329431534
1761476483387076000,5.148076171875,0.014870015904307365,-0.00018866639584302902,-0.008090093731880188
1761476483397109000,5.15810888671875,0.017087630927562714,0.003321912605315447,-0.002361900173127651
1761476483407142000,5.168141845703125,0.016208773478865623,0.0006615449674427509,0.0034935958683490753
1761476483417176000,5.178176025390625,0.015066277235746384,0.0032384193036705256,0.0028909211978316307
1761476483427209200,5.188209228515625,0.012247497215867043,0.00462579308077693,0.0072130365297198296
1761476483437242000,5.1982421875,0.012458419427275658,0.003347209421917796,0.0012001506984233856
1761476483447275000,5.20827490234375,0.007820622995495796,0.0022712256759405136,0.0049482109025120735
1761476483457308200,5.21830810546875,0.006934856064617634,0.0063077788800001144,0.005688036791980267
1761476483467341000,5.228341064453125,0.0014041708782315254,0.002808984601870179,0.003002045676112175
1761476483477374000,5.2383740234375,0.0000025490298867225647,0.00045528262853622437,0.0020566238090395927
1761476483487406800,5.24840673828125,0.002615642733871937,-0.0009138481691479683,0.0018321191892027855
1761476483497441000,5.25844091796875,-0.0008888104930520058,-0.001577241811901331,0.0020494330674409866
1761476483507474000,5.268473876953125,-0.0007521072402596474,0.004065204411745071,-0.0006657810881733894
1761476483517507000,5.278507080078125,-0.0013843416236341,0.0038039484061300755,0.0018809996545314789
1761476483527540000,5.2885400390625,-0.007735628169029951,0.009599046781659126,-0.00013215560466051102
1761476483537573000,5.298572998046875,-0.010894137434661388,0.012324792332947254,-0.003142060711979866
1761476483547606000,5.30860595703125,-0.012520983815193176,0.018953867256641388,0.000652555376291275
1761476483557639200,5.31863916015625,-0.012339889071881771,0.02426527626812458,0.0058305393904447556
1761476483567672000,5.328672119140625,-0.011268115602433681,0.027956347912549973,0.01592176780104637
1761476483577706000,5.3387060546875,-0.011782638728618622,0.02837499789893627,0.0260271318256855
1761476483587739000,5.34873876953125,-0.006915036588907242,0.012856491841375828,0.022794608026742935
1761476483597772000,5.35877197265625,-0.002655843272805214,0.008003147318959236,0.02018151432275772
1761476483607805000,5.368804931640625,-0.0002016620710492134,0.007505603600293398,0.006619245745241642
1761476483617838000,5.378838134765625,0.00020526908338069916,0.0044381748884916306,0.0015304777771234512
1761476483627871000,5.38887109375,0.0005236519500613213,0.002151782624423504,-0.00391486007720232
1761476483637904000,5.39890380859375,-0.005232770927250385,0.005439987406134605,-0.0038916906341910362
1761476483647937000,5.40893701171875,-0.00441865436732769,0.0035750451497733593,-0.003982022404670715
1761476483657966000,5.418966064453125,-0.004356070421636105,0.008827065117657185,-0.002771882340312004
1761476483668000000,5.429,-0.0010110042057931423,0.010971905663609505,-0.0010786186903715134
1761476483678033200,5.439033203125,0.009442967362701893,0.0062655676156282425,0.0016047824174165726
1761476483688066000,5.449066162109375,0.01498238742351532,0.007128498516976833,-0.006152108311653137
1761476483698099200,5.45909912109375,0.017109720036387444,0.0035510745365172625,-0.014700322411954403
1761476483708132000,5.469132080078125,0.01235675998032093,0.0004229247570037842,-0.022882401943206787
1761476483718165000,5.4791650390625,0.00862753577530384,-0.0004990613088011742,-0.02096572518348694
1761476483728198100,5.4891982421875,0.008742352947592735,0.0005725370720028877,-0.01785750314593315
1761476483738231000,5.49923095703125,0.008684562519192696,-0.006058733910322189,-0.0032676411792635918
1761476483748265000,5.509264892578125,0.015541347675025463,-0.019433069974184036,0.00287697184830904
1761476483758297900,5.5192978515625,0.016381841152906418,-0.023085596039891243,0.004781131632626057
1761476483768331000,5.5293310546875,0.02234642580151558,-0.029905885457992554,0.003525259904563427
1761476483778364000,5.539364013671875,0.020456647500395775,-0.03278156369924545,-0.007942844182252884
1761476483788397000,5.54939697265625,0.019415128976106644,-0.03062540292739868,-0.01484033465385437
1761476483798430000,5.559429931640625,0.020067870616912842,-0.02075839228928089,-0.009954499080777168
1761476483808463000,5.569463134765625,0.021144099533557892,-0.005461129359900951,-0.002838701941072941
1761476483818496000,5.57949609375,0.018681474030017853,0.012671003118157387,0.004969686269760132
1761476483828530200,5.5895302734375,0.016730040311813354,0.019237095490098,0.011304521933197975
1761476483838563000,5.59956298828125,0.01592603325843811,0.02146483026444912,0.013073926791548729
1761476483848596200,5.60959619140625,0.01229384820908308,0.01661362126469612,0.012141747400164604
1761476483858628900,5.61962890625,0.013064301572740078,0.012443643063306808,0.012172108516097069
1761476483868662000,5.629662109375,0.016728760674595833,0.009373681619763374,0.004128730855882168
1761476483878695000,5.63969482421875,0.01514817401766777,0.013654712587594986,0.0035715969279408455
1761476483888728000,5.64972802734375,0.010534686036407948,0.017386794090270996,0.008553964085876942
1761476483898761000,5.659760986328125,0.011782643385231495,0.013357166200876236,0.01209916453808546
1761476483908795100,5.669795166015625,0.01445546094328165,0.015295282006263733,0.009006315842270851
1761476483918828000,5.679828125,0.023660678416490555,0.013841195963323116,0.003967881202697754
1761476483928861200,5.689861083984375,0.02892090007662773,0.013226807117462158,-0.004603386390954256
1761476483938894000,5.69989404296875,0.02487342804670334,0.009903980419039726,-0.01279580220580101
1761476483948927000,5.709927001953125,0.02363518625497818,0.00613301619887352,-0.01916903629899025
1761476483958960000,5.719960205078125,0.021927300840616226,-0.007181190885603428,-0.022034332156181335
1761476483968993000,5.729992919921875,0.018642352893948555,-0.012437213212251663,-0.01929299347102642
1761476483979026200,5.740026123046875,0.021753722801804543,-0.02137771248817444,-0.01922960951924324
1761476483989059000,5.75005908203125,0.022016160190105438,-0.023155972361564636,-0.0051625510677695274
1761476483999093000,5.760093017578125,0.018437137827277184,-0.018769744783639908,-0.002646130509674549
1761476484009126000,5.7701259765625,0.020752036944031715,-0.016345800831913948,-0.002010289579629898
1761476484019159000,5.780158935546875,0.019443359225988388,-0.01107034645974636,-0.005280385259538889
1761476484029192000,5.79019189453125,0.02006671577692032,-0.008937550708651543,-0.003695998340845108
1761476484039225000,5.80022509765625,0.01713484153151512,-0.003737462218850851,-0.001393163576722145
1761476484049258000,5.810258056640625,0.01575290784239769,0.0033726480323821306,0.0023631760850548744
1761476484059291100,5.820291015625,0.012789872474968433,0.0013395906426012516,0.008865551091730595
1761476484069324000,5.830323974609375,0.008541936054825783,-0.004485675133764744,0.016375809907913208
1761476484079358200,5.840358154296875,0.008322492241859436,-0.003990061581134796,0.023640383034944534
1761476484089391000,5.85039111328125,0.0065188175067305565,-0.013250076211988926,0.022335359826683998
1761476484099424000,5.860424072265625,0.006048769690096378,-0.013205601833760738,0.02174760214984417
1761476484109457000,5.870456787109375,0.0029715243726968765,-0.010343294590711594,0.014474023133516312
1761476484119490000,5.880489990234375,0.005185943096876144,-0.009376835078001022,0.007285885512828827
1761476484129523000,5.89052294921875,0.00292854942381382,-0.005563388578593731,-0.00017515476793050766
1761476484139555800,5.900555908203125,0.0011266553774476051,-0.005521576851606369,-0.006953165400773287
1761476484149589000,5.910589111328125,0.00196714885532856,-0.0043268827721476555,-0.002365604043006897
1761476484159623200,5.920623046875,0.00005633104592561722,-0.0019446853548288345,-0.002613544464111328
1761476484169656000,5.930656005859375,-0.002761994954198599,0.003617526963353157,0.0012383786961436272
1761476484179689000,5.94068896484375,-0.002705269493162632,-0.0023101367987692356,0.004910346120595932
1761476484189722000,5.95072216796875,-0.007064135745167732,-0.005233547650277615,0.00023395661264657974
1761476484199755000,5.960755126953125,-0.0065093995071947575,-0.008307102136313915,-0.0019945763051509857
1761476484209788200,5.9707880859375,-0.008349500596523285,-0.0022575408220291138,-0.004319493658840656
1761476484219821000,5.980821044921875,-0.009253643453121185,-0.0023291800171136856,-0.0029700705781579018
1761476484229854200,5.990854248046875,-0.009435082785785198,-0.0063347769901156425,0.001268206164240837
1761476484239887000,6.00088720703125,-0.011504092253744602,-0.004312372766435146,0.006041388958692551
1761476484249921000,6.010921142578125,-0.011935303919017315,-0.004631218034774065,0.005739289335906506
1761476484259954000,6.020953857421875,-0.014795538038015366,0.005568955559283495,0.007537455298006535
1761476484269987000,6.030987060546875,-0.01655540242791176,0.008386781439185143,0.008072389289736748
1761476484280020000,6.04102001953125,-0.015325555577874184,0.006926304195076227,0.004701625555753708
1761476484290053000,6.05105322265625,-0.01388783659785986,-0.0027204654179513454,0.00012021418660879135
1761476484300086000,6.0610859375,-0.010299227200448513,-0.00699004577472806,-0.005811178125441074
1761476484310119200,6.071119140625,-0.00700440863147378,-0.005789484363049269,-0.009576184675097466
1761476484320152000,6.081152099609375,-0.00789257325232029,-0.004608106333762407,-0.004677299410104752
1761476484330186200,6.091186279296875,-0.011234482750296593,-0.0034261387772858143,0.008059194311499596
1761476484340219100,6.10121923828125,-0.014520557597279549,-0.006394498515874147,0.01746175065636635
1761476484350252000,6.111251953125,-0.009645472280681133,-0.011181996203958988,0.01825784146785736
1761476484360285000,6.121284912109375,-0.00983721949160099,-0.0136560732498765,0.014087066054344177
1761476484370317800,6.13131787109375,-0.0068755378015339375,-0.021418651565909386,0.0025699101388454437
1761476484380351000,6.14135107421875,-0.005532505922019482,-0.022494835779070854,-0.0019934168085455894
1761476484390383900,6.1513837890625,-0.0032467879354953766,-0.017756672576069832,0.002680819481611252
1761476484400417000,6.1614169921875,-0.003094188868999481,-0.009821517392992973,0.00009462423622608185
1761476484410450000,6.171449951171875,0.0015380429103970528,0.006168118212372065,0.0003876974806189537
1761476484420483000,6.181483154296875,0.0011231228709220886,0.01289739366620779,0.0004947558045387268
1761476484430517000,6.19151708984375,-0.00037609320133924484,0.014444274827837944,-0.002518857829272747
1761476484440550100,6.201550048828125,0.003680434077978134,0.01700330525636673,-0.0027734562754631042
1761476484450583000,6.2115830078125,0.0055581554770469666,0.017746727913618088,-0.002403154969215393
1761476484460616200,6.2216162109375,0.006949923001229763,0.01660636067390442,0.0031484710052609444
1761476484470649000,6.231649169921875,0.010017256252467632,0.01710333116352558,0.01009460911154747
1761476484480682200,6.24168212890625,0.00904626864939928,0.014533113688230515,0.016436927020549774
1761476484490715100,6.251715087890625,0.014025048352777958,0.010037432424724102,0.025451458990573883
1761476484500748000,6.261748046875,0.019492249935865402,0.006391032133251429,0.03066646307706833
1761476484510781000,6.271781005859375,0.023257186636328697,0.011062327772378922,0.02644246444106102
1761476484520815000,6.281815185546875,0.029150763526558876,0.015265860594809055,0.02005140855908394
1761476484530848000,6.291847900390625,0.03026139736175537,0.024564027786254883,0.013698366470634937
1761476484540881200,6.301881103515625,0.032451849430799484,0.02642185054719448,0.009230381809175014
1761476484550914000,6.3119140625,0.03394503518939018,0.02427900955080986,0.0016549238935112953
1761476484560947000,6.321947021484375,0.03556423634290695,0.01669805496931076,-0.00016667786985635757
1761476484570980000,6.33197998046875,0.03375335410237312,0.010139771737158298,-0.006993803661316633
1761476484581013000,6.342012939453125,0.03874358534812927,-0.0009978343732655048,-0.013109220191836357
1761476484591046100,6.352046142578125,0.0398152694106102,-0.006020297762006521,-0.019435515627264977
1761476484601079000,6.3620791015625,0.04296152666211128,-0.0038130697794258595,-0.024787137284874916
1761476484611112200,6.3721123046875,0.04077940434217453,0.000210681464523077,-0.02608635649085045
1761476484621145900,6.382145751953125,0.04146170616149902,0.006812657695263624,-0.01791737601161003
1761476484631179000,6.392178955078125,0.040048662573099136,0.01503363810479641,-0.011394712142646313
1761476484641212000,6.4022119140625,0.042273733764886856,0.026637829840183258,0.00024223700165748596
1761476484651245000,6.4122451171875,0.04354702681303024,0.02937859296798706,0.011658523231744766
1761476484661278000,6.42227783203125,0.044823214411735535,0.03219621628522873,0.014550182968378067
1761476484671310800,6.432310791015625,0.04421064257621765,0.035613179206848145,0.011103685013949871
1761476484681344000,6.442343994140625,0.04595927521586418,0.033993177115917206,0.006235427223145962
1761476484691377000,6.452376953125,0.043389152735471725,0.02026424929499626,0.0006448477506637573
1761476484701409800,6.462409912109375,0.04347757250070572,0.010071268305182457,-0.005150723736733198
1761476484711443000,6.47244287109375,0.043507158756256104,0.0016902904026210308,-0.001733311451971531
1761476484721477000,6.48247705078125,0.043228328227996826,-0.0025404067710042,-0.0009490102529525757
1761476484731510000,6.492510009765625,0.04350856691598892,-0.0028820359148085117,-0.0012833643704652786
1761476484741543000,6.50254296875,0.04199163243174553,0.0003555687144398689,0.0003970898687839508
1761476484751576000,6.512576171875,0.039202526211738586,0.0032478307839483023,0.002094373106956482
1761476484761609000,6.52260888671875,0.040039557963609695,0.007930466905236244,0.00674558337777853
1761476484771641900,6.532641845703125,0.039211466908454895,0.009664754383265972,0.008782994002103806
1761476484781674800,6.5426748046875,0.03826338052749634,0.0042332373559474945,0.007392823696136475
1761476484791708000,6.5527080078125,0.03901161998510361,0.004294137936085463,0.004377606324851513
1761476484801740800,6.56274072265625,0.03491754084825516,0.001288760919123888,0.0019906144589185715
1761476484811774000,6.57277392578125,0.03414316847920418,0.0011730440892279148,-0.002089204266667366
1761476484821806800,6.582806884765625,0.031054966151714325,0.0045081209391355515,-0.0011331290006637573
1761476484831841000,6.592841064453125,0.028775688260793686,0.00428388686850667,-0.0017049312591552734
1761476484841874000,6.6028740234375,0.023127920925617218,0.002864421810954809,-0.0018327627331018448
1761476484851907000,6.612906982421875,0.01942089945077896,0.0038579031825065613,0.00011712498962879181
1761476484861940000,6.62293994140625,0.014596317894756794,0.01203540526330471,0.0012116841971874237
1761476484871972900,6.632972900390625,0.013094549998641014,0.016495294868946075,0.00664001889526844
1761476484882006000,6.643006103515625,0.014024525880813599,0.016897164285182953,0.007828854024410248
1761476484892039000,6.653038818359375,0.014000831171870232,0.011940943077206612,0.007469054311513901
1761476484902072000,6.663072021484375,0.014846118167042732,0.008454864844679832,0.004668207839131355
1761476484912105000,6.67310498046875,0.012613551691174507,0.008771339431405067,0.0039983876049518585
1761476484922137900,6.683137939453125,0.008314942941069603,0.0010729404166340828,-0.0036747120320796967
1761476484932170800,6.693170654296875,0.00004632491618394852,-0.00223705917596817,-0.0044255671091377735
1761476484942204000,6.703203857421875,-0.005674677900969982,-0.00038776034489274025,0.004835842177271843
1761476484952237800,6.71323779296875,-0.009638555347919464,-0.003151046112179756,0.011687315069139004
1761476484962271000,6.72327099609375,-0.007373536936938763,-0.012854272499680519,0.01443117018789053
1761476484972304000,6.733303955078125,-0.008445736020803452,-0.021293215453624725,0.016276482492685318
1761476484982337000,6.7433369140625,-0.011962439864873886,-0.0237387977540493,0.009557594545185566
1761476484992370000,6.753369873046875,-0.013637248426675797,-0.026032518595457077,0.0025365278124809265
1761476485002403000,6.763403076171875,-0.01583195850253105,-0.017958080396056175,-0.00020280014723539352
1761476485012436000,6.77343603515625,-0.01906152255833149,-0.013089524582028389,0.0006101615726947784
1761476485022468900,6.78346875,-0.02236543968319893,-0.009341657161712646,0.0013870056718587875
1761476485032502000,6.793501953125,-0.027416668832302094,-0.005484223365783691,0.005540941841900349
1761476485042535000,6.803534912109375,-0.029892873018980026,-0.0039145564660429955,0.010256334207952023
1761476485052568000,6.813568115234375,-0.031364962458610535,-0.0018073446117341518,0.014119168743491173
1761476485062601000,6.82360107421875,-0.03350401669740677,-0.0022097486071288586,0.014265377074480057
1761476485072635000,6.833634765625,-0.035007573664188385,-0.0001921909861266613,0.010046816430985928
1761476485082667800,6.843667724609375,-0.032479699701070786,0.0007652151398360729,0.011000228114426136
1761476485092701000,6.853700927734375,-0.03151087462902069,-0.0015575508587062359,0.010134857147932053
1761476485102733800,6.86373388671875,-0.03216095268726349,-0.0027610333636403084,0.010389987379312515
1761476485112767000,6.87376708984375,-0.03444555029273033,-0.009790555573999882,0.012961042113602161
1761476485122799900,6.8837998046875,-0.03360611945390701,-0.010637440718710423,0.016684141010046005
1761476485132833000,6.8938330078125,-0.03239796310663223,-0.005824582185596228,0.013893434777855873
1761476485142866000,6.903865966796875,-0.030711647123098373,-0.0033963113091886044,0.009174846112728119
1761476485152899000,6.913899169921875,-0.03410366550087929,0.000539340078830719,0.006551533006131649
1761476485162932000,6.923931884765625,-0.033119361847639084,-0.00348576158285141,0.008556625805795193
1761476485172964900,6.93396484375,-0.03263847529888153,-0.011909892782568932,0.003976047970354557
1761476485182998000,6.943998046875,-0.03533545881509781,-0.01972919888794422,0.0031169122084975243
1761476485193031000,6.954031005859375,-0.037858761847019196,-0.02383405528962612,0.0016003446653485298
1761476485203064000,6.96406396484375,-0.036407340317964554,-0.02960752137005329,-0.0020955903455615044
1761476485213097700,6.97409765625,-0.038024432957172394,-0.026625383645296097,-0.0041249701753258705
1761476485223131000,6.984130859375,-0.03627340495586395,-0.022088157013058662,0.000015446916222572327
1761476485233163800,6.994163818359375,-0.03644958883523941,-0.010378231294453144,0.004853058606386185
1761476485243197000,7.004197021484375,-0.032562173902988434,-0.0030859634280204773,0.0063420310616493225
1761476485253229800,7.014229736328125,-0.02929031103849411,0.006798956077545881,0.01080476213246584
1761476485263263000,7.024262939453125,-0.030507639050483704,0.014555146917700768,0.014490843750536442
1761476485273296000,7.0342958984375,-0.031891774386167526,0.017320794984698296,0.014711488969624043
1761476485283329000,7.0443291015625,-0.031202547252178192,0.017551958560943604,0.015944000333547592
1761476485293362000,7.05436181640625,-0.027726322412490845,0.013997970148921013,0.01870090514421463
1761476485303395000,7.06439501953125,-0.02855323627591133,0.007510242518037558,0.011645925231277943
1761476485313428000,7.074427978515625,-0.027008265256881714,0.002069377340376377,0.0030589066445827484
1761476485323460900,7.0844609375,-0.025863373652100563,-0.0006134910508990288,-0.003400590270757675
1761476485333494000,7.094493896484375,-0.026800338178873062,-0.00040930556133389473,-0.006671229377388954
1761476485343527000,7.10452685546875,-0.02559099718928337,-0.0023733866401016712,-0.007989494130015373
1761476485353560000,7.11456005859375,-0.019976601004600525,-0.0001789652742445469,-0.0022021224722266197
1761476485363593000,7.124593017578125,-0.01680930331349373,0.0008870977908372879,-0.0027171773836016655
1761476485373627000,7.134626953125,-0.010188732296228409,-0.00017340714111924171,0.001572740264236927
1761476485383659800,7.14465966796875,-0.009667285718023777,0.0027850985061377287,0.0019983137026429176
1761476485393693000,7.15469287109375,-0.0076207490637898445,-0.0000026565976440906525,0.0031372299417853355
1761476485403725800,7.164725830078125,-0.008467367850244045,-0.002862625289708376,0.006766320206224918
1761476485413759000,7.174759033203125,-0.005832340568304062,-0.002805165946483612,0.006167834624648094
1761476485423791900,7.1847919921875,-0.005392652936279774,-0.0013947556726634502,0.0022663045674562454
1761476485433825000,7.194824951171875,-0.002042338252067566,-0.0004664263688027859,-0.00024436600506305695
1761476485443858000,7.20485791015625,-0.002062844578176737,-0.004036660306155682,-0.003139488399028778
1761476485453890800,7.214890869140625,0.002799662761390209,0.000736745074391365,-0.0039596278220415115
1761476485463924000,7.224924072265625,0.002238001674413681,0.010898302309215069,-0.0018085921183228493
1761476485473956900,7.234956787109375,0.004936189390718937,0.016982797533273697,-0.0018825288861989975
1761476485483990000,7.244989990234375,0.007355937734246254,0.01934475637972355,0.00031644292175769806
1761476485494023000,7.25502294921875,0.014046539552509785,0.022986572235822678,0.0025084009394049644
1761476485504056000,7.26505615234375,0.019486047327518463,0.029764316976070404,0.001104116439819336
1761476485514089000,7.2750888671875,0.0203125961124897,0.021318698301911354,-0.0007757376879453659
1761476485524122000,7.2851220703125,0.020339760929346085,0.0200321264564991,-0.000697440467774868
1761476485534155000,7.295155029296875,0.01858426257967949,0.021936075761914253,-0.004514194093644619
1761476485544189000,7.30518896484375,0.02189243957400322,0.016553029417991638,-0.0011956291273236275
1761476485554221800,7.315221923828125,0.020725823938846588,0.007640502415597439,-0.00011467002332210541
1761476485564255000,7.3252548828125,0.024180743843317032,-0.0010861437767744064,-0.0030651865527033806
1761476485574288000,7.335287841796875,0.02972719445824623,-0.0184218380600214,-0.005667272489517927
1761476485584321000,7.345321044921875,0.0325581356883049,-0.025065625086426735,-0.017780661582946777
1761476485594354000,7.35535400390625,0.035434290766716,-0.027925118803977966,-0.021722760051488876
1761476485604386800,7.36538671875,0.03293917328119278,-0.02042512223124504,-0.029884815216064453
1761476485614420000,7.375419921875,0.031289100646972656,-0.003628389909863472,-0.024944670498371124
1761476485624452900,7.385452880859375,0.030424371361732483,0.006976050790399313,-0.020242327824234962
1761476485634486000,7.395486083984375,0.02489878609776497,0.01435508206486702,-0.008991891518235207
1761476485644519000,7.405518798828125,0.025401324033737183,0.024304918944835663,0.001383516937494278
1761476485654552000,7.415552001953125,0.022664833813905716,0.02716878429055214,0.011799142695963383
1761476485664585500,7.42558544921875,0.02576395310461521,0.029064688831567764,0.013860163278877735
1761476485674618400,7.435618408203125,0.023620642721652985,0.02818414196372032,0.012964609079062939
1761476485684651300,7.4456513671875,0.02431892231106758,0.03021666780114174,0.015386753715574741
1761476485694684400,7.455684326171875,0.027214158326387405,0.028302662074565887,0.01616145297884941
1761476485704717300,7.46571728515625,0.02995242178440094,0.02247806265950203,0.015605117194354534
1761476485714750500,7.47575048828125,0.03600120171904564,0.014232165180146694,0.0062796324491500854
1761476485724783400,7.485783447265625,0.04182153940200806,0.01138258259743452,-0.004499778151512146
1761476485734816500,7.49581640625,0.04308754950761795,0.015610991045832634,-0.011662366800010204
1761476485744849400,7.505849365234375,0.0452556237578392,0.018565768375992775,-0.011405904777348042
1761476485754883600,7.515883544921875,0.04464838653802872,0.014247204177081585,-0.007847422733902931
1761476485764916500,7.52591650390625,0.05146048590540886,0.01054887194186449,-0.0017040427774190903
1761476485774949600,7.53594970703125,0.05516738444566727,0.005105086602270603,0.0008217329159379005
1761476485784982500,7.545982421875,0.05631040781736374,-0.0029981140978634357,0.0002635344862937927
1761476485795015700,7.556015625,0.057350337505340576,-0.006886868271976709,-0.0049239411018788815
1761476485805048600,7.566048583984375,0.057287752628326416,-0.005011470522731543,-0.009617229923605919
1761476485815081500,7.57608154296875,0.0559980571269989,-0.004906020127236843,-0.011605607345700264
1761476485825114400,7.5861142578125,0.057774387300014496,0.0013428209349513054,-0.008885987102985382
1761476485835147300,7.596147216796875,0.056432876735925674,-0.00039964914321899414,-0.010696472600102425
1761476485845180400,7.606180419921875,0.06118741258978844,0.006737089715898037,-0.006105183158069849
1761476485855213300,7.61621337890625,0.0654999166727066,0.010936077684164047,-0.0005300873890519142
1761476485865246500,7.62624658203125,0.06882540136575699,0.016345756128430367,0.0030606528744101524
1761476485875279400,7.636279296875,0.06780434399843216,0.018869267776608467,0.0033587347716093063
1761476485885312500,7.6463125,0.06845548748970032,0.01942853070795536,0.0016596373170614243
1761476485895345400,7.656345458984375,0.07127531617879868,0.015835091471672058,-0.0013597877696156502
1761476485905378300,7.66637841796875,0.07299971580505371,0.010160693898797035,-0.002224782481789589
1761476485915411500,7.676411376953125,0.07284224033355713,0.009170034900307655,0.007020581513643265
1761476485925444400,7.6864443359375,0.07363852858543396,0.013753601349890232,0.01427369937300682
1761476485935477500,7.6964775390625,0.0773271769285202,0.015412548556923866,0.017660245299339294
1761476485945510400,7.706510498046875,0.0773780420422554,0.015396302565932274,0.013013294897973537
1761476485955543600,7.71654345703125,0.08352325111627579,0.01592239737510681,0.005347279831767082
1761476485965576400,7.726576416015625,0.08299994468688965,0.022426102310419083,-0.001894121989607811
1761476485975609600,7.736609619140625,0.09145176410675049,0.021796604618430138,-0.002735626883804798
1761476485985642500,7.746642578125,0.09332077205181122,0.022145478054881096,-0.0022911448031663895
1761476485995675600,7.756675537109375,0.0985489934682846,0.02015536278486252,-0.0033984165638685226
1761476486005708500,7.76670849609375,0.10334081947803497,0.020683201029896736,-0.00473532360047102
1761476486015741400,7.776741455078125,0.11094073206186295,0.017629310488700867,-0.006045169197022915
1761476486025775400,7.786775390625,0.11418313533067703,0.019061822444200516,-0.011335272341966629
1761476486035808500,7.79680859375,0.12099209427833557,0.0186751876026392,-0.018440768122673035
1761476486045841400,7.80684130859375,0.1214166134595871,0.022799892351031303,-0.024200119078159332
1761476486055874300,7.816874267578125,0.11904321610927582,0.0195290707051754,-0.028541017323732376
1761476486065907500,7.826907470703125,0.11768579483032227,0.014063199050724506,-0.029202811419963837
1761476486075940400,7.8369404296875,0.11797706037759781,0.012600921094417572,-0.025843430310487747
1761476486085973500,7.846973388671875,0.11676105111837387,0.013641685247421265,-0.016452325507998466
1761476486096006400,7.85700634765625,0.1163017600774765,0.0169476680457592,-0.011319953016936779
1761476486106039600,7.86703955078125,0.11550413817167282,0.025172840803861618,-0.005083095747977495
1761476486116072400,7.877072509765625,0.11561299860477448,0.0248715840280056,-0.003727898932993412
1761476486126105600,7.887105712890625,0.11186912655830383,0.02642633579671383,-0.009482457302510738
1761476486136138500,7.897138427734375,0.09928968548774719,0.02475067600607872,-0.01018180325627327
1761476486146171600,7.907171630859375,0.09495618939399719,0.01982036605477333,-0.019288215786218643
1761476486156204500,7.91720458984375,0.08791647851467133,0.013826228678226471,-0.013131778687238693
1761476486166237400,7.927237548828125,0.08465570211410522,0.009942008182406425,-0.010994326323270798
1761476486176270600,7.9372705078125,0.08191327750682831,-0.0049584428779780865,-0.0015449682250618935
1761476486186303500,7.947303466796875,0.0745038241147995,-0.017599137499928474,0.001128578558564186
1761476486196336400,7.95733642578125,0.07289207726716995,-0.012436307966709137,-0.0009685279801487923
1761476486206369300,7.967369384765625,0.06623044610023499,-0.002816971857100725,-0.004479639232158661
1761476486216402400,7.97740234375,0.0573442280292511,0.009817350655794144,-0.011021459475159645
1761476486226435300,7.987435302734375,0.050463687628507614,0.016631580889225006,-0.013553859665989876
1761476486236468500,7.997468505859375,0.0462176539003849,0.02396460622549057,-0.009360461495816708
1761476486246501400,8.00750146484375,0.04266393184661865,0.023165656253695488,-0.00347727257758379
1761476486256534300,8.0175341796875,0.03474655747413635,0.024355236440896988,-0.0008149957284331322
1761476486266567400,8.0275673828125,0.03174518048763275,0.023079583421349525,-0.0010149991139769554
1761476486276600300,8.037600341796875,0.02425973489880562,0.02428446151316166,0.0005073342472314835
1761476486286633500,8.047633544921876,0.0185491181910038,0.02404078282415867,0.008208130486309528
1761476486296666400,8.057666259765625,0.013057666830718517,0.019800135865807533,0.016925804316997528
1761476486306699500,8.067699462890625,0.01132554654031992,0.007529620546847582,0.019208133220672607
1761476486316732400,8.077732421875,0.013401729986071587,0.004919935949146748,0.018668383359909058
1761476486326765600,8.087765625,0.013836357742547989,-0.0011603268794715405,0.009969700127840042
1761476486336798500,8.097798583984375,0.011244866997003555,-0.00530219217762351,-0.0004868237301707268
1761476486346831600,8.10783154296875,0.00681736133992672,-0.006919796112924814,-0.008859802037477493
1761476486356864500,8.117864501953125,0.0014570457860827446,-0.0012651709839701653,-0.015299662947654724
1761476486366897400,8.1278974609375,-0.002394151408225298,-0.0027312408201396465,-0.012194682843983173
1761476486376930600,8.1379306640625,-0.006985285319387913,-0.0077387928031384945,-0.006472866982221603
1761476486386963500,8.14796337890625,-0.013104164972901344,-0.014738112688064575,-0.0028269998729228973
1761476486396996600,8.15799658203125,-0.015154954046010971,-0.013091737404465675,0.000049466267228126526
1761476486407029500,8.168029541015626,-0.019701767712831497,-0.014251809567213058,0.004536093212664127
1761476486417062400,8.1780625,-0.02721753716468811,-0.025186004117131233,0.0008645746856927872
1761476486427095300,8.18809521484375,-0.030302010476589203,-0.027536241337656975,-0.0022992603480815887
1761476486437128400,8.19812841796875,-0.03539193794131279,-0.022318514063954353,-0.0062933992594480515
1761476486447161300,8.208161376953125,-0.04294093698263168,-0.01671016216278076,-0.006836684420704842
1761476486457194500,8.218194580078125,-0.050096455961465836,-0.01222211867570877,-0.0035971738398075104
1761476486467227400,8.228227294921876,-0.05585074797272682,-0.009857498109340668,0.0015994524583220482
1761476486477260300,8.23826025390625,-0.057397957891225815,-0.004356287885457277,0.006487222388386726
1761476486487294500,8.24829443359375,-0.05802752822637558,-0.003910741303116083,0.008934933692216873
1761476486497327600,8.25832763671875,-0.06668417155742645,-0.006419111974537373,0.009038756601512432
1761476486507360500,8.268360595703125,-0.06733105331659317,-0.01048948708921671,0.005263724364340305
1761476486517393400,8.278393310546875,-0.07120585441589355,-0.013157982379198074,-0.0008193431422114372
1761476486527426600,8.288426513671874,-0.07440084218978882,-0.015082117170095444,-0.006826369091868401
1761476486537459500,8.29845947265625,-0.08416426926851273,-0.019199971109628677,-0.009620613418519497
1761476486547492600,8.30849267578125,-0.08452645689249039,-0.013041411526501179,-0.005498306360095739
1761476486557525500,8.318525390625,-0.08835680782794952,-0.014355821534991264,0.0001472020521759987
1761476486567558400,8.328558349609375,-0.08633893728256226,-0.016205918043851852,0.008162783458828926
1761476486577591300,8.33859130859375,-0.08799497783184052,-0.016802137717604637,0.005846170708537102
1761476486587624400,8.34862451171875,-0.08863227069377899,-0.020575037226080894,-0.00025007128715515137
1761476486597657300,8.3586572265625,-0.08770306408405304,-0.02397572435438633,-0.005649658385664225
1761476486607690500,8.3686904296875,-0.0947420671582222,-0.03248319402337074,-0.016774214804172516
1761476486617723400,8.378723388671874,-0.09981407225131989,-0.032008424401283264,-0.013837335631251335
1761476486627756300,8.38875634765625,-0.0990137904882431,-0.03275837004184723,-0.011604009196162224
1761476486637789400,8.39878955078125,-0.10036418586969376,-0.03489644080400467,-0.005554836243391037
1761476486647822300,8.408822265625,-0.1042444109916687,-0.031442586332559586,-0.003659464418888092
1761476486657855500,8.41885546875,-0.1047695055603981,-0.025731287896633148,-0.004077845253050327
1761476486667891700,8.4288916015625,-0.11163540184497833,-0.02128753811120987,-0.005910366307944059
1761476486677924600,8.438924560546875,-0.11614871025085449,-0.025524361059069633,-0.015050755813717842
1761476486687957800,8.448957763671874,-0.12090511620044708,-0.026630105450749397,-0.01552479900419712
1761476486697990700,8.45899072265625,-0.12404196709394455,-0.030018506571650505,-0.014178108423948288
1761476486708023800,8.46902392578125,-0.1307523250579834,-0.030799614265561104,0.00041015446186065674
1761476486718056700,8.479056640625,-0.13436129689216614,-0.029469452798366547,0.01790361851453781
1761476486728089900,8.48908984375,-0.13294635713100433,-0.024047521874308586,0.032487884163856506
1761476486738122800,8.499122802734375,-0.12920662760734558,-0.02186444215476513,0.0331643745303154
1761476486748155600,8.50915576171875,-0.12376180291175842,-0.02440722845494747,0.024726947769522667
1761476486758188800,8.519188720703125,-0.12121854722499847,-0.029865428805351257,0.008118058554828167
1761476486768221700,8.5292216796875,-0.12359008938074112,-0.03024306520819664,-0.0031276708468794823
1761476486778254800,8.5392548828125,-0.13119786977767944,-0.027420520782470703,-0.013578041456639767
1761476486788287700,8.549287841796875,-0.13906323909759521,-0.03209489956498146,-0.011534864082932472
1761476486798321000,8.55932080078125,-0.14176340401172638,-0.03795988857746124,0.005760682746767998
1761476486808353500,8.569353515625,-0.14194849133491516,-0.04985222965478897,0.017059409990906715
1761476486818386700,8.57938671875,-0.13638967275619507,-0.05750982463359833,0.019603725522756577
1761476486828419600,8.589419677734375,-0.12864120304584503,-0.06191309541463852,0.0146329365670681
1761476486838452700,8.59945263671875,-0.12448994815349579,-0.05720508471131325,0.0006637852638959885
1761476486848485600,8.609485595703125,-0.1227349266409874,-0.052552539855241776,-0.011560922488570213
1761476486858518500,8.6195185546875,-0.11821720004081726,-0.0425795279443264,-0.014082551933825016
1761476486868551700,8.6295517578125,-0.11403124034404755,-0.029261857271194458,-0.012239377945661545
1761476486878584600,8.63958447265625,-0.11126620322465897,-0.021284712478518486,0.002941393293440342
1761476486888620500,8.64962060546875,-0.10634122043848038,-0.020562196150422096,0.013680856674909592
1761476486898653700,8.65965380859375,-0.09976138919591904,-0.01893121749162674,0.021607179194688797
1761476486908686600,8.6696865234375,-0.09781301766633987,-0.013528462499380112,0.026152927428483963
1761476486918719700,8.6797197265625,-0.09357316792011261,-0.020774148404598236,0.02219254896044731
1761476486928752600,8.689752685546875,-0.08603215962648392,-0.024149440228939056,0.013104778714478016
1761476486938785800,8.699785888671874,-0.07859958708286285,-0.030626945197582245,0.0022644158452749252
1761476486948818700,8.709818603515625,-0.06865188479423523,-0.034418489784002304,-0.00503344414755702
1761476486958851800,8.719851806640625,-0.0524681992828846,-0.030324332416057587,-0.003244945779442787
1761476486968884700,8.729884765625,-0.036499086767435074,-0.02258891426026821,0.005659332498908043
1761476486978917600,8.739917724609375,-0.027783440425992012,-0.00791688822209835,0.016745932400226593
1761476486988950800,8.74995068359375,-0.033753715455532074,0.0061065200716257095,0.021993160247802734
1761476486998983700,8.759983642578124,-0.04669433459639549,0.011123080737888813,0.020412078127264977
1761476487009016800,8.770016845703125,-0.049239519983530045,0.008054053410887718,0.016718009486794472
1761476487019049700,8.7800498046875,-0.05103025212883949,0.002163049764931202,0.008127006702125072
1761476487029083000,8.790082763671874,-0.04904486611485481,-0.006663465406745672,-0.00007712747901678085
1761476487039115800,8.80011572265625,-0.03996653854846954,-0.015354718081653118,-0.0052605438977479935
1761476487049148700,8.810148681640625,-0.030408449470996857,-0.01894146203994751,-0.012788500636816025
1761476487059181600,8.820181640625,-0.019684286788105965,-0.016379058361053467,-0.016050919890403748
1761476487069214700,8.830214599609375,-0.00801644567400217,-0.006640410516411066,-0.0167918112128973
1761476487079247600,8.84024755859375,-0.0018879263661801815,0.00618455046787858,-0.012620477005839348
1761476487089280500,8.850280517578126,0.001408800482749939,0.017739739269018173,-0.009531475603580475
1761476487099313700,8.860313720703125,0.006428859196603298,0.025153979659080505,-0.002584354020655155
1761476487109346600,8.8703466796875,0.009210264310240746,0.017672095447778702,-0.000555824488401413
1761476487119379700,8.880379638671876,0.01282915472984314,0.014971522614359856,-0.0023434776812791824
1761476487129412600,8.89041259765625,0.020190663635730743,0.006218245252966881,-0.008191512897610664
1761476487139445800,8.90044580078125,0.021890906617045403,-0.0016826321370899677,-0.015038419514894485
1761476487149478700,8.910478759765626,0.028533095493912697,0.00013337703421711922,-0.014509515836834908
1761476487159511800,8.92051171875,0.0334605947136879,-0.0031742434948682785,-0.01369368564337492
1761476487169544700,8.930544677734375,0.03503479063510895,-0.005028601735830307,-0.00800623930990696
1761476487179577600,8.94057763671875,0.037714798003435135,-0.0037707393057644367,-0.007820269092917442
1761476487189610800,8.95061083984375,0.03756139799952507,-0.003214139025658369,-0.0007679518312215805
1761476487199643600,8.9606435546875,0.037562690675258636,0.004770384170114994,0.009465544484555721
1761476487209676800,8.9706767578125,0.03752114623785019,0.0068503133952617645,0.014458972029387951
1761476487219709700,8.980709716796875,0.03902435302734375,0.010396134108304977,0.017583705484867096
1761476487229742800,8.990742919921875,0.03909678757190704,0.007339091971516609,0.023283403366804123
1761476487239775700,9.000775634765626,0.0396280363202095,0.003841791767627001,0.01636241376399994
1761476487249809000,9.010808837890625,0.03901950642466545,-0.004433182533830404,0.016225794330239296
1761476487259841800,9.020841796875,0.04059905558824539,-0.00037756888195872307,0.014820292592048645
1761476487269874700,9.030874755859376,0.04740156978368759,0.004841960500925779,0.01647544838488102
1761476487279907600,9.040907470703125,0.04606195539236069,0.010895630344748497,0.01874775066971779
1761476487289940500,9.0509404296875,0.047362376004457474,0.019369009882211685,0.026965200901031494
1761476487299973600,9.0609736328125,0.05411723256111145,0.019086524844169617,0.03311609476804733
1761476487310006500,9.071006591796875,0.05988350510597229,0.020234080031514168,0.034995753318071365
1761476487320039700,9.081039794921875,0.06362969428300858,0.02448735199868679,0.030670851469039917
1761476487330072600,9.091072509765626,0.0668390691280365,0.01816447451710701,0.018742019310593605
1761476487340105700,9.101105712890625,0.06587707251310349,0.015842022374272346,0.0012530777603387833
1761476487350138600,9.111138671875,0.06935355812311172,0.014698993414640427,-0.005978470202535391
1761476487360171800,9.121171875,0.069680355489254,0.016627399250864983,-0.011684554629027843
1761476487370204700,9.13120458984375,0.07401704043149948,0.021821629256010056,-0.011979899369180202
1761476487380237800,9.14123779296875,0.0821690708398819,0.02705906331539154,-0.009106690995395184
1761476487390270700,9.151270751953126,0.09086615592241287,0.02885350212454796,0.0037774164229631424
1761476487400303600,9.1613037109375,0.0941847562789917,0.02894294634461403,0.015665940940380096
1761476487410336800,9.171336669921875,0.09121958911418915,0.03052326664328575,0.01988811418414116
1761476487420369700,9.18136962890625,0.08546704798936844,0.027978792786598206,0.01924944296479225
1761476487430402800,9.19140283203125,0.0861261785030365,0.02313743159174919,0.017701614648103714
1761476487440435700,9.201435791015625,0.08293570578098297,0.0192029420286417,0.014857840724289417
1761476487450468900,9.21146875,0.08522069454193115,0.016899574548006058,0.013863415457308292
1761476487460501800,9.221501708984375,0.08368649333715439,0.02291155979037285,0.01239171251654625
1761476487470535000,9.231534912109375,0.08229685574769974,0.02237040549516678,0.011020183563232422
1761476487480566800,9.24156689453125,0.08419559895992279,0.020352261140942574,0.011438161134719849
1761476487490599700,9.251599609375,0.0853775143623352,0.020191140472888947,0.01030099019408226
1761476487500632800,9.2616328125,0.08402892202138901,0.025610698387026787,0.0033113788813352585
1761476487510665700,9.271665771484376,0.08683402836322784,0.0300174318253994,0.0014194697141647339
1761476487520699000,9.281698974609375,0.08851420134305954,0.04018264263868332,-0.002947375178337097
1761476487530731800,9.291731689453124,0.09180746972560883,0.04676384478807449,-0.006441176403313875
1761476487540765000,9.301764892578126,0.0926019698381424,0.04362277314066887,-0.004294529557228088
1761476487550797800,9.3117978515625,0.09612613916397095,0.03518108278512955,-0.0063643385656178
1761476487560830700,9.321830810546874,0.09131316840648651,0.0275266133248806,-0.004228206351399422
1761476487570863600,9.331863525390625,0.08628857880830765,0.021173376590013504,-0.0014958027750253677
1761476487580896500,9.341896484375,0.0872124508023262,0.017346832901239395,0.003966989926993847
1761476487590929700,9.3519296875,0.09008919447660446,0.019824638962745667,0.009323938749730587
1761476487600962600,9.361962646484375,0.09420683234930038,0.023966943845152855,0.007595113478600979
1761476487610995700,9.37199560546875,0.09378845244646072,0.029264504089951515,0.007616686634719372
1761476487621028600,9.382028564453124,0.09289144724607468,0.03295060992240906,0.005860310047864914
1761476487631061800,9.392061767578125,0.09026583284139633,0.030597176402807236,0.0064952075481414795
1761476487641094700,9.4020947265625,0.08984337002038956,0.02668718621134758,0.0038132090121507645
1761476487651127800,9.4121279296875,0.08758261054754257,0.01578713394701481,-0.0048167649656534195
1761476487661160200,9.42216015625,0.08479801565408707,0.009388432838022709,-0.013634166680276394
1761476487671193300,9.432193359375,0.0771653950214386,0.004159849137067795,-0.024315040558576584
1761476487681226200,9.442226318359374,0.07022088766098022,-0.004055178724229336,-0.029588919132947922
1761476487691259400,9.45225927734375,0.06633453071117401,-0.005424310453236103,-0.02879609540104866
1761476487701292300,9.462292236328125,0.06334119290113449,-0.005304085556417704,-0.021207384765148163
1761476487711325400,9.472325439453124,0.06369379907846451,0.00252374354749918,-0.015146031975746155
1761476487721358300,9.4823583984375,0.05763794481754303,0.009975065477192402,-0.011481985449790955
1761476487731391200,9.49239111328125,0.049607448279857635,0.0155277568846941,-0.007051284424960613
1761476487741424400,9.50242431640625,0.04148906469345093,0.021511470898985863,-0.0029886430129408836
1761476487751457300,9.512457275390625,0.03304604813456535,0.023162364959716797,-0.0022930260747671127
1761476487761490400,9.522490478515625,0.029413530603051186,0.02037186734378338,0.002056625671684742
1761476487771523300,9.5325234375,0.02307148091495037,0.016425861045718193,0.003085670992732048
1761476487781556500,9.542556396484375,0.01957707852125168,0.007027782499790192,-0.0017701499164104462
1761476487791589400,9.55258935546875,0.012579887174069881,0.0014596451073884964,-0.007111385930329561
1761476487801622300,9.562622314453124,0.008344118483364582,-0.0013082544319331646,-0.013271601870656013
1761476487811655200,9.5726552734375,0.004485731013119221,-0.004184734541922808,-0.01872362568974495
1761476487821688000,9.58268798828125,-0.0006712605245411396,-0.0027755536139011383,-0.019856493920087814
1761476487831721200,9.59272119140625,-0.007514252793043852,-0.01000869832932949,-0.025340475142002106
1761476487841754000,9.602754150390625,-0.01444663479924202,-0.016391560435295105,-0.025326959788799286
1761476487851787300,9.612787353515625,-0.019714102149009705,-0.017647240310907364,-0.019906895235180855
1761476487861819400,9.6228193359375,-0.02467060461640358,-0.016110001131892204,-0.02049005776643753
1761476487871852300,9.632852294921875,-0.03139082342386246,-0.02119237743318081,-0.015270262956619263
1761476487881885200,9.64288525390625,-0.03673172369599342,-0.019128110259771347,-0.012292238883674145
1761476487891918000,9.65291796875,-0.04088306054472923,-0.021387802436947823,-0.007876451127231121
1761476487901951200,9.662951171875,-0.04304884746670723,-0.027463819831609726,0.0005178404971957207
1761476487911984000,9.672984130859374,-0.04376363754272461,-0.029966391623020172,-0.0010590171441435814
1761476487922017300,9.683017333984376,-0.052409280091524124,-0.01956324465572834,0.00006108079105615616
1761476487932050200,9.69305029296875,-0.06135963276028633,-0.010315684601664543,-0.00247185118496418
1761476487942083300,9.703083251953124,-0.06816302239894867,-0.002519016619771719,-0.004509319551289082
1761476487952116200,9.7131162109375,-0.0650191605091095,-0.005556884687393904,-0.008615913800895214
1761476487962149400,9.7231494140625,-0.06784611940383911,-0.008609866723418236,-0.007680658251047134
1761476487972182300,9.733182373046875,-0.07445954531431198,-0.014796657487750053,-0.009318502619862556
1761476487982215400,9.74321533203125,-0.08136250823736191,-0.018636442720890045,-0.015239480882883072
1761476487992248300,9.753248291015625,-0.08151084184646606,-0.023524407297372818,-0.017321806401014328
1761476488002281200,9.76328125,-0.07877485454082489,-0.02932101860642433,-0.02225681208074093
1761476488012314400,9.773314453125,-0.07580889016389847,-0.03350324556231499,-0.028475560247898102
1761476488022347300,9.78334716796875,-0.08649152517318726,-0.0323956273496151,-0.02926279976963997
1761476488032380400,9.79338037109375,-0.0912037193775177,-0.0375983752310276,-0.025857681408524513
1761476488042413300,9.803413330078126,-0.0937095358967781,-0.03016912192106247,-0.02501768246293068
1761476488052446500,9.813446533203125,-0.09516095370054245,-0.024182600900530815,-0.022146794945001602
1761476488062479400,9.823479248046874,-0.09750092774629593,-0.020135343074798584,-0.017024239525198936
1761476488072512500,9.833512451171876,-0.10606218874454498,-0.02968357503414154,-0.018871407955884933
1761476488082545400,9.84354541015625,-0.11082661151885986,-0.03521324694156647,-0.018654746934771538
1761476488092578000,9.853578125,-0.1059703379869461,-0.037255626171827316,-0.024935545399785042
1761476488102611200,9.863611083984376,-0.10428901761770248,-0.04455191642045975,-0.026240210980176926
1761476488112644000,9.87364404296875,-0.10710105299949646,-0.05250198394060135,-0.029116958379745483
1761476488122677200,9.88367724609375,-0.11208994686603546,-0.053608305752277374,-0.02258334681391716
1761476488132710100,9.893710205078126,-0.11433233320713043,-0.04388537257909775,-0.020671995356678963
1761476488142742300,9.9037421875,-0.1139993965625763,-0.039735548198223114,-0.011829073540866375
1761476488152775200,9.913775146484374,-0.11603830754756927,-0.03178068622946739,-0.0030720671638846397
1761476488162808000,9.92380810546875,-0.11905761808156967,-0.023621421307325363,0.003890363499522209
1761476488172841200,9.93384130859375,-0.11960223317146301,-0.0179480891674757,0.005551377311348915
1761476488182874000,9.9438740234375,-0.12244096398353577,-0.01650150865316391,0.002332070842385292
1761476488192907300,9.9539072265625,-0.12542876601219177,-0.017187004908919334,0.002908378839492798
1761476488202940200,9.963940185546875,-0.12361328303813934,-0.011236628517508507,0.003301789052784443
1761476488212973300,9.973973388671874,-0.12367746233940125,-0.009206501767039299,0.005612081848084927
1761476488223006200,9.984006103515625,-0.12463409453630447,-0.006920597516000271,0.010819505900144577
1761476488233039400,9.994039306640625,-0.12397363036870956,-0.01131055224686861,0.016889382153749466
1761476488243072300,10.004072265625,-0.1200980618596077,-0.014708912000060081,0.01742163673043251
1761476488253105400,10.01410546875,-0.10976313054561615,-0.022186802700161934,0.010520054027438164
1761476488263138300,10.02413818359375,-0.10554732382297516,-0.021695150062441826,0.0011860830709338188
1761476488273171200,10.034171142578124,-0.10025455802679062,-0.020199786871671677,-0.005017750896513462
1761476488283204400,10.044204345703125,-0.10120616853237152,-0.020917436107993126,-0.009244819171726704
1761476488293237200,10.0542373046875,-0.09799572825431824,-0.020537670701742172,-0.008217638358473778
1761476488303270400,10.0642705078125,-0.09283162653446198,-0.026236843317747116,-0.0019774185493588448
1761476488313303300,10.07430322265625,-0.08332893997430801,-0.02320030704140663,0.001957668922841549
1761476488323336400,10.08433642578125,-0.07668827474117279,-0.023449795320630074,-0.00043723639100790024
1761476488333369300,10.094369384765624,-0.07191188633441925,-0.02234538272023201,-0.008684780448675156
1761476488343402500,10.104402587890625,-0.07018934190273285,-0.0221483763307333,-0.017017770558595657
1761476488353435400,10.114435302734375,-0.06438418477773666,-0.02046073041856289,-0.02532896399497986
1761476488363468300,10.12446826171875,-0.05812525376677513,-0.01476161926984787,-0.026903435587882996
1761476488373500400,10.13450048828125,-0.054064732044935226,-0.006604888942092657,-0.024030417203903198
1761476488383533300,10.144533203125,-0.046286311000585556,0.00515610771253705,-0.012178793549537659
1761476488393566500,10.15456640625,-0.03866301104426384,0.0068988800048828125,-0.005692131817340851
1761476488403599400,10.164599365234375,-0.0336032398045063,0.005153186619281769,0.0004755808040499687
1761476488413632500,10.174632568359375,-0.03015950694680214,0.00018186401575803757,0.0013440381735563278
1761476488423665400,10.18466552734375,-0.019994445145130157,0.001431992743164301,-0.004933322314172983
1761476488433698300,10.1946982421875,-0.015006079338490963,0.0015228064730763435,-0.011390955187380314
1761476488443731200,10.204731201171874,-0.012320732697844505,-0.0037477300502359867,-0.01568596437573433
1761476488453764000,10.21476416015625,-0.007576311007142067,-0.011921770870685577,-0.012067793868482113
1761476488463797200,10.22479736328125,-0.002876784186810255,-0.011817017570137978,-0.013839807361364365
1761476488473830100,10.234830078125,0.004226931370794773,0.0006447127088904381,-0.010133219882845879
1761476488483863300,10.24486328125,0.007600016891956329,0.01246834360063076,-0.007492321543395519
1761476488493896200,10.254896240234375,0.010143069550395012,0.021167026832699776,-0.003788396716117859
1761476488503929300,10.264929443359375,0.011797334998846054,0.024999335408210754,0.0038904473185539246
1761476488513962200,10.274962158203126,0.013851430267095566,0.02166159451007843,0.003905095160007477
1761476488523995400,10.284995361328125,0.01908576302230358,0.02552255429327488,0.0013832924887537956
1761476488534028300,10.2950283203125,0.023564934730529785,0.023213062435388565,0.004205177538096905
1761476488544061200,10.305061279296876,0.02491827681660652,0.00800747238099575,0.001191120594739914
1761476488554094300,10.31509423828125,0.028900504112243652,0.005194375291466713,0.0038537494838237762
1761476488564127200,10.325127197265624,0.032385606318712234,0.011174129322171211,0.002996492199599743
1761476488574160400,10.335160400390626,0.0402965284883976,0.017804069444537163,-0.001526886597275734
1761476488584192300,10.345192138671875,0.04849236458539963,0.018548913300037384,-0.009889457374811172
1761476488594225400,10.355225341796874,0.055406466126441956,0.01701599918305874,-0.012446625158190727
1761476488604258300,10.36525830078125,0.06425122916698456,0.022291433066129684,-0.008459162898361683
1761476488614291200,10.375291259765625,0.060486044734716415,0.02791416458785534,-0.0011128326877951622
1761476488624324400,10.385324462890624,0.061577994376420975,0.021919017657637596,0.002952168695628643
1761476488634357200,10.395357177734375,0.06391891837120056,0.012151075527071953,0.009350146166980267
1761476488644390400,10.405390380859375,0.07027388364076614,0.00938517227768898,0.015729455277323723
1761476488654423300,10.41542333984375,0.07820451259613037,0.020903876051306725,0.01667514443397522
1761476488664456400,10.42545654296875,0.08536600321531296,0.02753126621246338,0.015276062302291393
1761476488674489600,10.435489501953125,0.09257571399211884,0.0350581556558609,0.006688964553177357
1761476488684522500,10.4455224609375,0.1046401709318161,0.04082368314266205,-0.0038424301892518997
1761476488694555600,10.4555556640625,0.11247172206640244,0.03517431765794754,-0.017071949318051338
1761476488704588300,10.46558837890625,0.11627617478370667,0.03089318983256817,-0.01931874081492424
1761476488714621200,10.47562109375,0.11258982867002487,0.021919136866927147,-0.011109814047813416
1761476488724654300,10.485654296875,0.10709154605865479,0.009473511949181557,-0.0022216439247131348
1761476488734687200,10.495687255859375,0.10369548201560974,0.004279016051441431,0.010196409188210964
1761476488744720400,10.505720458984374,0.09859000891447067,0.0024284347891807556,0.00972723588347435
1761476488754753300,10.515753173828125,0.10211896151304245,-0.0008270135149359703,0.004004104062914848
1761476488764786400,10.525786376953125,0.10810675472021103,-0.0039154537953436375,-0.013299532234668732
1761476488774818300,10.535818359375,0.11381284147500992,-0.0040949503891170025,-0.025289084762334824
1761476488784851200,10.545851318359375,0.11858012527227402,0.001721841748803854,-0.03727825731039047
1761476488794884400,10.55588427734375,0.11743070930242538,0.007763755042105913,-0.03363558650016785
1761476488804917200,10.565917236328126,0.10849565267562866,0.020851461216807365,-0.023658622056245804
1761476488814950400,10.575950439453125,0.10233309864997864,0.03568793088197708,-0.008187520317733288
1761476488824983300,10.5859833984375,0.09415663033723831,0.034243278205394745,0.0008479291573166847
1761476488835016400,10.596016357421876,0.08407817035913467,0.027745699509978294,0.010368997231125832
1761476488845049300,10.60604931640625,0.08082041144371033,0.03321515768766403,0.022268937900662422
1761476488855082500,10.61608251953125,0.07209110260009766,0.03550947085022926,0.023528611287474632
1761476488865115400,10.626115478515626,0.0690523162484169,0.03409413620829582,0.025858908891677856
1761476488875148300,10.636148193359375,0.06913673132658005,0.03238198906183243,0.021817032247781754
1761476488885181400,10.646181396484375,0.07166251540184021,0.0284594614058733,0.014494654722511768
1761476488895214300,10.65621435546875,0.07391341775655746,0.02659498155117035,0.009673799388110638
1761476488905247500,10.66624755859375,0.07219962775707245,0.024165527895092964,0.005035859532654285
1761476488915280400,10.6762802734375,0.06898918747901917,0.02366778254508972,-0.0022572074085474014
1761476488925313500,10.6863134765625,0.06960241496562958,0.021605148911476135,-0.008295651525259018
1761476488935345400,10.696345458984375,0.06706228852272034,0.019757449626922607,-0.012804916128516197
1761476488945378300,10.70637841796875,0.06348835676908493,0.013958113268017769,-0.012017233297228813
1761476488955411500,10.716411376953126,0.061953842639923096,0.04235832765698433,0.04931722953915596
1761476488965444400,10.7264443359375,0.0430774949491024,0.004648789297789335,0.10008914768695831
1761476488975477500,10.7364775390625,0.0381474494934082,-0.0236454326659441,0.08253678679466248
1761476488985510400,10.746510498046876,0.049100011587142944,-0.012543660588562489,0.025490056723356247
1761476488995543600,10.75654345703125,0.047419290989637375,-0.002667328342795372,-0.02550734579563141
1761476489005576400,10.766576416015624,0.04073580354452133,-0.009919535368680954,-0.05487494543194771
1761476489015609600,10.776609619140626,0.03436046093702316,-0.009334173053503036,-0.07230400294065475
1761476489025642500,10.786642578125,0.029739491641521454,0.0003060358576476574,-0.08018947392702103
1761476489035675600,10.796675537109374,0.018750224262475967,0.007565280422568321,-0.06747633963823318
1761476489045708500,10.80670849609375,0.005011187866330147,0.01775304041802883,-0.042927805334329605
1761476489055741200,10.8167412109375,0.001391420140862465,0.025301504880189896,-0.01308469008654356
1761476489065774300,10.8267744140625,0.00005243625491857529,0.02048507332801819,0.01689979061484337
