time,seconds_elapsed,z,y,x
1761476466225912600,0.11891259765625,-0.17634925246238708,-0.020011406391859055,0.007210720330476761
1761476466235945500,0.128945556640625,-0.1899256706237793,-0.012499779462814331,0.008914211764931679
1761476466245978600,0.138978515625,-0.19894102215766907,-0.013043595477938652,0.00982794351875782
1761476466256012500,0.149012451171875,-0.2045140415430069,-0.01693788170814514,0.015216066502034664
1761476466266045700,0.159045654296875,-0.20465333759784698,-0.019951514899730682,0.01525708008557558
1761476466276078300,0.169078369140625,-0.20797967910766602,-0.023125845938920975,0.009818341583013535
1761476466286111500,0.179111572265625,-0.2165774255990982,-0.02779543027281761,0.0059777963906526566
1761476466296144400,0.189144287109375,-0.22254574298858643,-0.030054422095417976,0.0036401497200131416
1761476466306177500,0.199177490234375,-0.23052936792373657,-0.03616158664226532,0.010554513894021511
1761476466316211500,0.20921142578125,-0.23220665752887726,-0.04310770332813263,0.01260723453015089
1761476466326244600,0.21924462890625,-0.2356692999601364,-0.04851525276899338,0.014253334142267704
1761476466336277500,0.229277587890625,-0.24121832847595215,-0.06013129651546478,0.007375572808086872
1761476466346310700,0.239310546875,-0.2496083527803421,-0.06432098150253296,-0.004043795168399811
1761476466356343600,0.249343505859375,-0.25395452976226807,-0.0605614148080349,-0.018272165209054947
1761476466366377500,0.25937744140625,-0.2569074332714081,-0.057422880083322525,-0.0252738818526268
1761476466376410400,0.269410400390625,-0.25755447149276733,-0.05089845880866051,-0.022547541186213493
1761476466386443500,0.279443603515625,-0.2565288841724396,-0.039447132498025894,-0.02276325598359108
1761476466396476400,0.289476318359375,-0.2560029923915863,-0.03523286432027817,-0.018975311890244484
1761476466406509600,0.299509521484375,-0.2543553113937378,-0.03489410877227783,-0.028141379356384277
1761476466416542500,0.30954248046875,-0.25489842891693115,-0.03639473021030426,-0.02417852357029915
1761476466426576600,0.31957666015625,-0.2592545449733734,-0.04446224868297577,-0.033004239201545715
1761476466436609500,0.329609619140625,-0.2589905560016632,-0.04465114325284958,-0.03945808485150337
1761476466446642700,0.339642578125,-0.2607349455356598,-0.04813162609934807,-0.038801081478595734
1761476466456675600,0.349675537109375,-0.2595023810863495,-0.050533756613731384,-0.042459484189748764
1761476466466708700,0.359708740234375,-0.254831999540329,-0.0521196685731411,-0.037882838398218155
1761476466476742400,0.369742431640625,-0.2522265613079071,-0.04619802534580231,-0.028107941150665283
1761476466486775600,0.379775634765625,-0.25422021746635437,-0.04868355393409729,-0.02019675448536873
1761476466496808400,0.389808349609375,-0.2523149847984314,-0.04164956510066986,-0.015664946287870407
1761476466506841600,0.399841552734375,-0.24946193397045135,-0.03880584239959717,-0.01447717659175396
1761476466516874500,0.40987451171875,-0.2453380972146988,-0.034470632672309875,-0.008181669749319553
1761476466526907400,0.419907470703125,-0.24012362957000732,-0.034826699644327164,-0.005417575128376484
1761476466536941600,0.429941650390625,-0.23922522366046906,-0.039171867072582245,-0.0012812698259949684
1761476466546974700,0.439974609375,-0.23677484691143036,-0.03867411985993385,-0.0016887327656149864
1761476466557007600,0.450007568359375,-0.23105254769325256,-0.04324735701084137,-0.002003563567996025
1761476466567040500,0.46004052734375,-0.22759950160980225,-0.04043798893690109,-0.0050411648117005825
1761476466577073700,0.47007373046875,-0.22303506731987,-0.04067925736308098,0.0008331602439284325
1761476466587107600,0.480107666015625,-0.214742511510849,-0.036138299852609634,0.003513897769153118
1761476466597140500,0.490140380859375,-0.209249347448349,-0.035285525023937225,0.0042349062860012054
1761476466607173400,0.50017333984375,-0.19989366829395294,-0.03596942499279976,-0.002666410058736801
1761476466617206500,0.51020654296875,-0.19123801589012146,-0.0310964435338974,-0.006046834867447615
1761476466627239400,0.520239501953125,-0.18808163702487946,-0.01911221817135811,-0.010073534213006496
1761476466637273600,0.530273681640625,-0.18216116726398468,-0.017040012404322624,-0.01240886002779007
1761476466647303700,0.5403037109375,-0.17377221584320068,-0.016499657183885574,-0.00545987393707037
1761476466657336800,0.5503369140625,-0.15941108763217926,-0.02349463477730751,-0.0059503233060240746
1761476466667369700,0.56036962890625,-0.14844712615013123,-0.02402806654572487,0.0019390247762203217
1761476466677402600,0.570402587890625,-0.13362611830234528,-0.02278473600745201,0.005051827989518642
1761476466687435500,0.580435546875,-0.11831267923116684,-0.021413739770650864,-0.0025847861543297768
1761476466697469700,0.5904697265625,-0.11125314235687256,-0.0253513902425766,-0.0082949697971344
1761476466707502600,0.600502685546875,-0.10254912823438644,-0.017214901745319366,-0.013852454721927643
1761476466717535700,0.61053564453125,-0.09601783752441406,-0.013233094476163387,-0.013522027060389519
1761476466727568600,0.620568603515625,-0.0850307047367096,-0.025321446359157562,-0.011480980552732944
1761476466737601500,0.6306015625,-0.07751328498125076,-0.039293572306632996,-0.0025814250111579895
1761476466747635700,0.6406357421875,-0.06842897832393646,-0.041213177144527435,0.008243526332080364
1761476466757668600,0.650668701171875,-0.05811256542801857,-0.028879621997475624,0.012430661357939243
1761476466767701500,0.660701416015625,-0.045319538563489914,-0.024485671892762184,0.018132757395505905
1761476466777734400,0.670734375,-0.03114999644458294,-0.01901288330554962,0.02233218401670456
1761476466787768600,0.6807685546875,-0.018466956913471222,-0.023849183693528175,0.01957474648952484
1761476466797801700,0.6908017578125,-0.006280734669417143,-0.013952331617474556,0.013878010213375092
1761476466807834600,0.700834716796875,0.01243596151471138,0.013953601941466331,0.016289768740534782
1761476466817867500,0.710867431640625,0.02782623842358589,0.012967154383659363,0.026023056358098984
1761476466827900700,0.720900634765625,0.039578236639499664,0.00691991439089179,0.024717044085264206
1761476466837934800,0.730934814453125,0.05016998574137688,0.011201433837413788,0.025869382545351982
1761476466847967700,0.7409677734375,0.05928917974233627,0.013825979083776474,0.026724522933363914
1761476466858000600,0.751000732421875,0.06894063204526901,0.011744016781449318,0.02469879388809204
1761476466868033500,0.761033447265625,0.08654385805130005,0.010855586268007755,0.026218127459287643
1761476466878066400,0.77106640625,0.0950230062007904,0.01379871554672718,0.027259495109319687
1761476466888100600,0.7811005859375,0.10637179762125015,0.018202252686023712,0.025435496121644974
1761476466898133500,0.791133544921875,0.11893044412136078,0.02602997235953808,0.027729641646146774
1761476466908166700,0.801166748046875,0.12476383149623871,0.024790270254015923,0.03340377286076546
1761476466918199600,0.811199462890625,0.13553275167942047,0.021388711407780647,0.03418608009815216
1761476466928232700,0.821232666015625,0.15310588479042053,0.018429141491651535,0.03440312668681145
1761476466938266600,0.8312666015625,0.1636439859867096,0.024245427921414375,0.02727486938238144
1761476466948299500,0.841299560546875,0.17437811195850372,0.027725113555788994,0.021298471838235855
1761476466958332400,0.85133251953125,0.18368951976299286,0.025300724431872368,0.011026302352547646
1761476466968365600,0.861365478515625,0.19638480246067047,0.02386021986603737,0.008357282727956772
1761476466978399500,0.8713994140625,0.20865043997764587,0.030671939253807068,0.005511871539056301
1761476466988432600,0.8814326171875,0.21963810920715332,0.04207159951329231,0.002421007491648197
1761476466998465500,0.891465576171875,0.22971200942993164,0.04918151721358299,-0.0005449587479233742
1761476467008498700,0.901498779296875,0.23656459152698517,0.05986132472753525,-0.0012568216770887375
1761476467018531600,0.911531494140625,0.2450326830148697,0.06598740816116333,0.004825728014111519
1761476467028565800,0.921565673828125,0.25342246890068054,0.06908120959997177,0.009546713903546333
1761476467038598700,0.9315986328125,0.26300016045570374,0.06886447221040726,0.013463977724313736
1761476467048631600,0.941631591796875,0.2742738723754883,0.07018966227769852,0.011106548830866814
1761476467058664400,0.95166455078125,0.28297874331474304,0.072048619389534,0.006626284681260586
1761476467068697600,0.961697509765625,0.28783875703811646,0.06576542556285858,0.0012328503653407097
1761476467078731500,0.9717314453125,0.29746222496032715,0.060770973563194275,-0.005929629318416119
1761476467088764700,0.9817646484375,0.30400535464286804,0.0536201186478138,-0.004163154400885105
1761476467098797600,0.991797607421875,0.31624898314476013,0.049357809126377106,-0.0016389088705182076
1761476467108830700,1.001830810546875,0.3199736773967743,0.0487854965031147,-0.003231213428080082
1761476467118864600,1.01186474609375,0.3238300681114197,0.04449619725346565,0.0029795169830322266
1761476467128897800,1.021897705078125,0.3283795416355133,0.05102919787168503,-0.00033585261553525925
1761476467138930400,1.031930419921875,0.33133023977279663,0.05866481736302376,-0.002418636344373226
1761476467148963600,1.041963623046875,0.33540648221969604,0.06391897052526474,-0.009134595282375813
1761476467158996500,1.05199658203125,0.3402947187423706,0.07252727448940277,-0.01553605031222105
1761476467169030700,1.06203076171875,0.34638404846191406,0.07689458876848221,-0.017157649621367455
1761476467179063600,1.0720634765625,0.35263052582740784,0.06746324151754379,-0.024688107892870903
1761476467189096700,1.0820966796875,0.3565637469291687,0.061992842704057693,-0.028117727488279343
1761476467199129600,1.092129638671875,0.3562794327735901,0.06687682121992111,-0.03169778734445572
1761476467209163800,1.102163818359375,0.34657540917396545,0.06856925785541534,-0.0360477939248085
1761476467219196700,1.11219677734375,0.34296637773513794,0.06732365489006042,-0.03916744142770767
1761476467229229600,1.1222294921875,0.3385964035987854,0.07597146928310394,-0.03607071936130524
1761476467239262500,1.132262451171875,0.33023548126220703,0.08580424636602402,-0.02870165929198265
1761476467249295600,1.142295654296875,0.3304101824760437,0.0944129079580307,-0.021025896072387695
1761476467259329500,1.15232958984375,0.33378279209136963,0.09778120368719101,-0.01335449330508709
1761476467269362700,1.16236279296875,0.33914828300476074,0.09980360418558121,-0.009607958607375622
1761476467279395600,1.1723955078125,0.34154877066612244,0.09328992664813995,-0.013300524093210697
1761476467289428700,1.1824287109375,0.34167101979255676,0.07964974641799927,-0.022475913166999817
1761476467299462700,1.192462646484375,0.33452990651130676,0.07740584015846252,-0.027149686589837074
1761476467309495800,1.202495849609375,0.33087632060050964,0.06982381641864777,-0.02802906185388565
1761476467319528700,1.21252880859375,0.3185335695743561,0.06543558835983276,-0.029154129326343536
1761476467329561600,1.2225615234375,0.30700287222862244,0.05970659479498863,-0.026321057230234146
1761476467339594500,1.232594482421875,0.2992936670780182,0.05381597578525543,-0.024734802544116974
1761476467349628700,1.242628662109375,0.29127541184425354,0.04788990691304207,-0.018300604075193405
1761476467359661600,1.25266162109375,0.2821696698665619,0.044228777289390564,-0.016790982335805893
1761476467369694700,1.26269482421875,0.280219167470932,0.04137147217988968,-0.015529442578554153
1761476467379727600,1.2727275390625,0.2755310833454132,0.04563216492533684,-0.017482873052358627
1761476467389761800,1.28276171875,0.2652882933616638,0.050472192466259,-0.01960248313844204
1761476467399794700,1.292794677734375,0.25482258200645447,0.05157990753650665,-0.019568100571632385
1761476467409827600,1.30282763671875,0.24901902675628662,0.050883494317531586,-0.019041594117879868
1761476467419860500,1.312860595703125,0.2416660338640213,0.05467592179775238,-0.01893838495016098
1761476467429894700,1.322894775390625,0.22906236350536346,0.05667462199926376,-0.011906308121979237
1761476467439927600,1.332927490234375,0.2163567692041397,0.054894957691431046,-0.008847569115459919
1761476467449960700,1.342960693359375,0.20447933673858643,0.05509895831346512,-0.008251553401350975
1761476467459993600,1.35299365234375,0.1896296888589859,0.05302488058805466,-0.0099325655028224
1761476467470026800,1.36302685546875,0.17443369328975677,0.04888472706079483,-0.0069562168791890144
1761476467480060700,1.373060791015625,0.17339502274990082,0.04299463704228401,-0.007905540987849236
1761476467490093800,1.38309375,0.16420818865299225,0.036868300288915634,-0.013684866949915886
1761476467500126700,1.393126708984375,0.1567935049533844,0.030741190537810326,-0.016816575080156326
1761476467510159600,1.40315966796875,0.14919310808181763,0.019795598462224007,-0.03025035932660103
1761476467520193500,1.413193603515625,0.14270204305648804,0.014990820549428463,-0.038826096802949905
1761476467530226700,1.423226806640625,0.1251712441444397,0.016586054116487503,-0.04103865101933479
1761476467540259600,1.433259521484375,0.11152397096157074,0.013701259158551693,-0.036674823611974716
1761476467550292700,1.443292724609375,0.09732213616371155,0.004480596631765366,-0.03036446124315262
1761476467560326700,1.45332666015625,0.08424900472164154,0.0085779232904315,-0.026792358607053757
1761476467570359800,1.46335986328125,0.0724826231598854,0.008305215276777744,-0.023768339306116104
1761476467580392700,1.473392822265625,0.05946684628725052,0.012832565233111382,-0.01870361901819706
1761476467590425900,1.48342578125,0.044270049780607224,0.019405247643589973,-0.014188495464622974
1761476467600458500,1.49345849609375,0.02885058894753456,0.017896220088005066,-0.010489198379218578
1761476467610492700,1.50349267578125,0.018542293459177017,0.018906092271208763,-0.007790351286530495
1761476467620525600,1.513525634765625,0.007885993458330631,0.014701350592076778,-0.010164784267544746
1761476467630558700,1.523558837890625,-0.005955786444246769,0.00482794689014554,-0.014296945184469223
1761476467640590600,1.533590576171875,-0.024654578417539597,-0.002035418525338173,-0.009751586243510246
1761476467650624800,1.543624755859375,-0.036987945437431335,-0.0018772268667817116,-0.0005881814286112785
1761476467660657700,1.55365771484375,-0.05241139233112335,-0.0008080345578491688,0.0071570007130503654
1761476467670690800,1.56369091796875,-0.0613819845020771,-0.0019281599670648575,0.014741149730980396
1761476467680723700,1.5737236328125,-0.07402101904153824,-0.004668951965868473,0.018965065479278564
1761476467690757600,1.583757568359375,-0.08254499733448029,-0.012874417938292027,0.018081430345773697
1761476467700790500,1.59379052734375,-0.09050016850233078,-0.01702304556965828,0.013246136717498302
1761476467710823700,1.60382373046875,-0.09524565935134888,-0.019635872915387154,0.011310284025967121
1761476467720856600,1.613856689453125,-0.10515980422496796,-0.02193835750222206,0.010325855575501919
1761476467730889500,1.623889404296875,-0.11346114426851273,-0.031110551208257675,0.013670519925653934
1761476467740923600,1.633923583984375,-0.12373918294906616,-0.04025577753782272,0.017124710604548454
1761476467750956800,1.643956787109375,-0.12846043705940247,-0.038945503532886505,0.018462149426341057
1761476467760989700,1.65398974609375,-0.13534462451934814,-0.037123508751392365,0.015764202922582626
1761476467771022600,1.664022705078125,-0.14030583202838898,-0.03871288150548935,0.013551381416618824
1761476467781056800,1.674056884765625,-0.15049457550048828,-0.04023069143295288,0.011583209037780762
1761476467791089700,1.684089599609375,-0.15938980877399445,-0.04106372594833374,0.00881059281527996
1761476467801122600,1.69412255859375,-0.16422529518604279,-0.03664679452776909,0.013102415949106216
1761476467811155500,1.704155517578125,-0.16496485471725464,-0.04050970822572708,0.014228399842977524
1761476467821189600,1.714189697265625,-0.1730901002883911,-0.044951461255550385,0.012924393638968468
1761476467831222800,1.724222900390625,-0.17987743020057678,-0.044962648302316666,0.008132301270961761
1761476467841255700,1.734255615234375,-0.1889326125383377,-0.04158369451761246,0.0009936271235346794
1761476467851288600,1.74428857421875,-0.19525602459907532,-0.045369911938905716,-0.0010013468563556671
1761476467861322800,1.75432275390625,-0.1988859474658966,-0.04546539485454559,-0.004154982976615429
1761476467871355600,1.764355712890625,-0.20605598390102386,-0.04621241241693497,-0.006685252767056227
1761476467881388500,1.774388427734375,-0.21236276626586914,-0.03564365580677986,-0.007258876226842403
1761476467891421400,1.78442138671875,-0.21310178935527802,-0.025541750714182854,-0.0069890981540083885
1761476467901455600,1.79445556640625,-0.21463707089424133,-0.021629158407449722,-0.010821162723004818
1761476467911488800,1.80448876953125,-0.21829386055469513,-0.03244851902127266,-0.012988709844648838
1761476467921521700,1.814521728515625,-0.2256941944360733,-0.041562519967556,-0.015427757054567337
1761476467931554600,1.824554443359375,-0.23328126966953278,-0.055731870234012604,-0.017097558826208115
1761476467941587700,1.834587646484375,-0.2391984462738037,-0.06862117350101471,-0.023972708731889725
1761476467951622000,1.844621826171875,-0.2392256110906601,-0.08607260137796402,-0.023261643946170807
1761476467961654800,1.85465478515625,-0.24001872539520264,-0.09550977498292923,-0.02619534358382225
1761476467971687700,1.864687744140625,-0.23999182879924774,-0.10694298893213272,-0.03126334026455879
1761476467981720600,1.874720458984375,-0.24147552251815796,-0.1137000247836113,-0.0346437431871891
1761476467991754800,1.884754638671875,-0.24093356728553772,-0.11812619864940643,-0.03582672029733658
1761476468001787600,1.89478759765625,-0.24796831607818604,-0.11235946416854858,-0.02715768665075302
1761476468011820500,1.904820556640625,-0.25527018308639526,-0.1039193719625473,-0.018048610538244247
1761476468021853700,1.914853759765625,-0.26096391677856445,-0.10320551693439484,-0.0026107393205165863
1761476468031888000,1.924887939453125,-0.2677145004272461,-0.10429501533508301,0.010174032300710678
1761476468041920800,1.934920654296875,-0.27370336651802063,-0.09642796963453293,0.023966902866959572
1761476468051953700,1.94495361328125,-0.28089284896850586,-0.0970226526260376,0.0253999512642622
1761476468061986600,1.954986572265625,-0.28751128911972046,-0.09677530825138092,0.02085021510720253
1761476468072020700,1.965020751953125,-0.29256170988082886,-0.09717132151126862,0.008418578654527664
1761476468082053600,1.9750537109375,-0.29322224855422974,-0.0895427018404007,0.00034008733928203583
1761476468092086500,1.98508642578125,-0.29902714490890503,-0.08770964294672012,-0.0024567637592554092
1761476468102119700,1.99511962890625,-0.3029882311820984,-0.0913928672671318,-0.022152509540319443
1761476468112153900,2.00515380859375,-0.30640721321105957,-0.06546459347009659,-0.015614716336131096
1761476468122186800,2.015186767578125,-0.3054084777832031,-0.058434247970581055,-0.0024031642824411392
1761476468132219600,2.0252197265625,-0.29941874742507935,-0.06923390179872513,0.0057200100272893906
1761476468142252800,2.035252685546875,-0.29809054732322693,-0.07021400332450867,0.012903589755296707
1761476468152286700,2.04528662109375,-0.29454800486564636,-0.06771036982536316,0.006040623411536217
1761476468162319600,2.055319580078125,-0.2954072654247284,-0.07399489730596542,-0.0015739072114229202
1761476468172352500,2.0653525390625,-0.2970041036605835,-0.0832027792930603,-0.005342013202607632
1761476468182385700,2.0753857421875,-0.2950618863105774,-0.08338333666324615,-0.007873009890317917
1761476468192419800,2.085419921875,-0.2896255850791931,-0.08942631632089615,-0.0017530666664242744
1761476468202452700,2.09545263671875,-0.2895103991031647,-0.08811424672603607,0.004672732204198837
1761476468212485600,2.105485595703125,-0.2796061038970947,-0.08383161574602127,0.004075385630130768
1761476468222518800,2.115518798828125,-0.2737237513065338,-0.07881756871938705,0.002307318150997162
1761476468232551700,2.1255517578125,-0.2650042772293091,-0.07481643557548523,-0.005121835973113775
1761476468242585600,2.135585693359375,-0.25890985131263733,-0.06935494393110275,-0.008531794883310795
1761476468252618800,2.14561865234375,-0.25445809960365295,-0.057701483368873596,-0.006074496079236269
1761476468262651600,2.155651611328125,-0.24729275703430176,-0.055938731878995895,-0.00015266984701156616
1761476468272684500,2.1656845703125,-0.2387341558933258,-0.05511022359132767,0.011205978691577911
1761476468282718700,2.17571875,-0.2274322658777237,-0.05185757949948311,0.021241115406155586
1761476468292752000,2.185751953125,-0.2203567773103714,-0.05049244314432144,0.025083521381020546
1761476468302784800,2.19578466796875,-0.21373359858989716,-0.05270032957196236,0.022481288760900497
1761476468312817700,2.205817626953125,-0.20965683460235596,-0.055153630673885345,0.019235696643590927
1761476468322851600,2.2158515625,-0.2000344693660736,-0.05289693549275398,0.014520230703055859
1761476468332884700,2.225884765625,-0.19565464556217194,-0.04859353229403496,0.013584663160145283
1761476468342917600,2.235917724609375,-0.18560883402824402,-0.044345393776893616,0.00461337435990572
1761476468352950500,2.245950439453125,-0.172496497631073,-0.04379518702626228,-0.003977184183895588
1761476468362984700,2.255984619140625,-0.16186074912548065,-0.037731364369392395,-0.007975809276103973
1761476468373017900,2.266017822265625,-0.15360629558563232,-0.043262217193841934,-0.013317044824361801
1761476468383050800,2.27605078125,-0.14395499229431152,-0.04040651023387909,-0.011028057895600796
1761476468393083600,2.286083740234375,-0.131102055311203,-0.040732745081186295,-0.005895080976188183
1761476468403117600,2.29611767578125,-0.12358173727989197,-0.04195280745625496,0.005168456584215164
1761476468413150700,2.306150634765625,-0.10854765772819519,-0.0394720733165741,0.01194193959236145
1761476468423183600,2.31618359375,-0.09894516319036484,-0.031742583960294724,0.013694277964532375
1761476468433216500,2.326216552734375,-0.0838780626654625,-0.031332988291978836,0.009614848531782627
1761476468443250700,2.336250732421875,-0.06503269076347351,-0.034630510956048965,0.002834637649357319
1761476468453283800,2.346283935546875,-0.05576036125421524,-0.03392131254076958,-0.007166863419115543
1761476468463316700,2.356316650390625,-0.03921088948845863,-0.040462639182806015,-0.009134408086538315
1761476468473349600,2.366349609375,-0.026760078966617584,-0.047435060143470764,-0.00814850628376007
1761476468483382800,2.3763828125,-0.008555686101317406,-0.04995700716972351,-0.0008059227839112282
1761476468493416700,2.386416748046875,0.01170324720442295,-0.046370793133974075,0.002239667810499668
1761476468503449600,2.39644970703125,0.02584528923034668,-0.028782816603779793,0.00786921102553606
1761476468513482500,2.406482421875,0.041637301445007324,-0.008328942582011223,0.003640909679234028
1761476468523515600,2.416515625,0.05365266278386116,0.007075320463627577,-0.0014014774933457375
1761476468533549800,2.4265498046875,0.06302858889102936,0.012971026822924614,-0.009144085459411144
1761476468543582700,2.436582763671875,0.07032056897878647,0.024668093770742416,-0.008798765018582344
1761476468553615600,2.44661572265625,0.08120091259479523,0.031133983284235,-0.010017693974077702
1761476468563648800,2.456648681640625,0.09162770211696625,0.028148848563432693,-0.0024702558293938637
1761476468573682700,2.4666826171875,0.10813237726688385,0.02596239373087883,-0.0006688935682177544
1761476468583715600,2.476715576171875,0.12400247901678085,0.01841025985777378,-0.004120873287320137
1761476468593748500,2.48674853515625,0.13670894503593445,0.008814891800284386,-0.00910844188183546
1761476468603781600,2.49678173828125,0.14261288940906525,0.0074249934405088425,-0.019715236499905586
1761476468613815800,2.50681591796875,0.14884229004383087,0.006662797182798386,-0.024778438732028008
1761476468623848700,2.5168486328125,0.15758016705513,0.014710205607116222,-0.02247515693306923
1761476468633881600,2.526881591796875,0.16618217527866364,0.015960827469825745,-0.010795064270496368
1761476468643915000,2.5369150390625,0.17682279646396637,0.0252650436013937,0.0015574218705296516
1761476468653949000,2.546948974609375,0.18192781507968903,0.03491261228919029,0.009680595248937607
1761476468663981800,2.55698193359375,0.18442945182323456,0.052859652787446976,0.013061460107564926
1761476468674015000,2.567014892578125,0.191664457321167,0.07554978877305984,0.007901320233941078
1761476468684048000,2.5770478515625,0.19359862804412842,0.0886526107788086,0.002706630155444145
1761476468694082000,2.58708203125,0.1995697021484375,0.09138767421245575,-0.006601650733500719
1761476468704115000,2.597114990234375,0.2010064274072647,0.0906895250082016,-0.010064473375678062
1761476468714148000,2.607148193359375,0.21158289909362793,0.07857959717512131,-0.006298497784882784
1761476468724181000,2.617180908203125,0.21960337460041046,0.06514547765254974,-0.001914474181830883
1761476468734214100,2.627214111328125,0.23375222086906433,0.060887351632118225,-0.00423994567245245
1761476468744247800,2.637247802734375,0.2461685687303543,0.06714797765016556,-0.007395986467599869
1761476468754281000,2.647281005859375,0.25635623931884766,0.07723736763000488,-0.012693546712398529
1761476468764313900,2.65731396484375,0.2611839175224304,0.07938314229249954,-0.01920783333480358
1761476468774347000,2.667346923828125,0.26875951886177063,0.07722091674804688,-0.02340923622250557
1761476468784381000,2.677380859375,0.2750716805458069,0.06924441456794739,-0.024815665557980537
1761476468794414000,2.6874140625,0.28171655535697937,0.05568573623895645,-0.01705840975046158
1761476468804447000,2.697447021484375,0.28789594769477844,0.04337640479207039,-0.0059236823581159115
1761476468814480100,2.707480224609375,0.3009454309940338,0.03303907811641693,0.005907144397497177
1761476468824513800,2.717513671875,0.30420878529548645,0.042486369609832764,0.015217890031635761
1761476468834547000,2.727546875,0.30917879939079285,0.05654199793934822,0.019687470048666
1761476468844579800,2.737579833984375,0.31164902448654175,0.07133732736110687,0.024358654394745827
1761476468854613000,2.747613037109375,0.31722596287727356,0.07639813423156738,0.018739385530352592
1761476468864647000,2.75764697265625,0.3222258985042572,0.08066505193710327,0.011449800804257393
1761476468874680000,2.76768017578125,0.32416200637817383,0.07947355508804321,0.010928619652986526
1761476468884713000,2.777712890625,0.3263695538043976,0.07796820998191833,0.0039664991199970245
1761476468894746000,2.78774609375,0.327679306268692,0.07107941061258316,0.010806296020746231
1761476468904780000,2.797780029296875,0.3325706422328949,0.0713532418012619,0.009269644506275654
1761476468914813000,2.80781298828125,0.3288313150405884,0.06942298263311386,0.005677041597664356
1761476468924845800,2.817845703125,0.33681416511535645,0.06430915743112564,0.0008824588730931282
1761476468934879000,2.82787890625,0.3328612446784973,0.059575654566287994,-0.006041760090738535
1761476468944913000,2.837912841796875,0.33168700337409973,0.058508552610874176,-0.011125333607196808
1761476468954946000,2.847946044921875,0.32805153727531433,0.05714394897222519,-0.0067590815015137196
1761476468964979000,2.85797900390625,0.32521235942840576,0.058602627366781235,-0.0046668509021401405
1761476468975012000,2.86801220703125,0.3158891797065735,0.057026833295822144,-0.003705715760588646
1761476468985046000,2.8780458984375,0.3087664842605591,0.05703582242131233,-0.0007845079526305199
1761476468995079200,2.8880791015625,0.30340632796287537,0.0549662820994854,0.005387367680668831
1761476469005111800,2.89811181640625,0.30017173290252686,0.0591064989566803,0.009681233204901218
1761476469015145000,2.90814501953125,0.29562249779701233,0.06007935106754303,0.013795285485684872
1761476469025179000,2.918178955078125,0.2906161844730377,0.06530074030160904,0.015907378867268562
1761476469035212000,2.9282119140625,0.28723636269569397,0.06657160073518753,0.015177406370639801
1761476469045245000,2.938244873046875,0.27493199706077576,0.0586337111890316,0.00735294446349144
1761476469055278000,2.948278076171875,0.26500293612480164,0.05241336673498154,0.0016796132549643517
1761476469065311000,2.95831103515625,0.25367897748947144,0.05415547266602516,-0.0007045706734061241
1761476469075345200,2.96834521484375,0.2481135129928589,0.06141285225749016,0.0011218255385756493
1761476469085378000,2.9783779296875,0.23878464102745056,0.0642624944448471,0.0026049669831991196
1761476469095411000,2.988410888671875,0.22909259796142578,0.06912010163068771,-0.0006017452105879784
1761476469105443800,2.99844384765625,0.22052469849586487,0.06371235847473145,-0.006450218614190817
1761476469115478000,3.00847802734375,0.2098478078842163,0.05871200934052467,-0.01135256513953209
1761476469125511000,3.018510986328125,0.2032850682735443,0.04912962764501572,-0.011941684409976006
1761476469135544000,3.0285439453125,0.2009737193584442,0.046948499977588654,-0.010818895883858204
1761476469145577000,3.038576904296875,0.19385430216789246,0.04478348419070244,-0.00543962512165308
1761476469155611100,3.048611083984375,0.18466132879257202,0.04105372726917267,-0.003019077703356743
1761476469165644000,3.05864404296875,0.18353500962257385,0.0314469039440155,-0.002988014370203018
1761476469175677200,3.06867724609375,0.17754901945590973,0.03184983879327774,-0.007846685126423836
1761476469185710000,3.0787099609375,0.16796109080314636,0.037232283502817154,-0.013261519372463226
1761476469195744000,3.088743896484375,0.16083605587482452,0.04087761789560318,-0.004728751257061958
1761476469205777000,3.09877685546875,0.14200299978256226,0.031886063516139984,0.005703517235815525
1761476469215810000,3.10881005859375,0.13052023947238922,0.022926123812794685,0.01114968303591013
1761476469225843000,3.118843017578125,0.11901534348726273,0.009168094024062157,0.014793501235544682
1761476469235877000,3.128877197265625,0.10911343991756439,-0.011958496645092964,0.007891654036939144
1761476469245910000,3.138909912109375,0.10543621331453323,-0.028661103919148445,-0.0011740047484636307
1761476469255943200,3.148943115234375,0.09487944096326828,-0.03351524472236633,-0.0136858019977808
1761476469265976000,3.15897607421875,0.08314518630504608,-0.027400294318795204,-0.018593937158584595
1761476469276009000,3.169009033203125,0.07203181087970734,-0.01275290921330452,-0.017017878592014313
1761476469286043000,3.17904296875,0.05578181520104408,-0.0024591279216110706,-0.0010904725641012192
1761476469296076000,3.189075927734375,0.04377495497465134,0.011179719120264053,0.005391662009060383
1761476469306109000,3.19910888671875,0.03170333802700043,0.017685417085886,0.009647208265960217
1761476469316142000,3.20914208984375,0.017729202285408974,0.01563158631324768,0.005711057223379612
1761476469326176000,3.219176025390625,0.0014568362385034561,0.010695355013012886,-0.010318273678421974
1761476469336209200,3.229209228515625,-0.009727908298373222,0.0031330434139817953,-0.015502382069826126
1761476469346242000,3.239241943359375,-0.02592613361775875,0.0006640884093940258,-0.015313267707824707
1761476469356275200,3.249275146484375,-0.03962090611457825,0.004188249818980694,-0.0024472707882523537
1761476469366308900,3.259308837890625,-0.05620000511407852,0.002213321626186371,0.013509971089661121
1761476469376342000,3.269342041015625,-0.06491280347108841,0.006705275271087885,0.017427481710910797
1761476469386375000,3.279375,-0.07405363023281097,0.008600778877735138,0.015843290835618973
1761476469396408000,3.289407958984375,-0.08089955151081085,0.009982960298657417,0.008857018314301968
1761476469406442000,3.29944189453125,-0.0946025475859642,0.006070841569453478,-0.0011745244264602661
1761476469416475100,3.30947509765625,-0.10570792853832245,-0.0005718814209103584,-0.012166189029812813
1761476469426508000,3.319508056640625,-0.11220043152570724,-0.01458190381526947,-0.021335892379283905
1761476469436541200,3.329541259765625,-0.12163574248552322,-0.029355790466070175,-0.02450372278690338
1761476469446574800,3.339574951171875,-0.13017579913139343,-0.044654328376054764,-0.021965261548757553
1761476469456608000,3.34960791015625,-0.13588029146194458,-0.05214153975248337,-0.01545010507106781
1761476469466641000,3.359640869140625,-0.14551928639411926,-0.05271591618657112,-0.011174083687365055
1761476469476674000,3.369674072265625,-0.14998941123485565,-0.04964209720492363,-0.009667267091572285
1761476469486708000,3.3797080078125,-0.1600389927625656,-0.04017109423875809,-0.011144766584038734
1761476469496741000,3.3897412109375,-0.16565772891044617,-0.03646983578801155,-0.01533418521285057
1761476469506774000,3.39977392578125,-0.1736695021390915,-0.03053583949804306,-0.020081298425793648
1761476469516807200,3.40980712890625,-0.17969118058681488,-0.02818826213479042,-0.01985066756606102
1761476469526840000,3.419840087890625,-0.18468120694160461,-0.03626363351941109,-0.01840951107442379
1761476469536874000,3.4298740234375,-0.18515737354755402,-0.03641942888498306,-0.017247308045625687
1761476469546907000,3.439906982421875,-0.18996240198612213,-0.034258536994457245,-0.005058530252426863
1761476469556940000,3.44993994140625,-0.19901394844055176,-0.031134650111198425,-0.004142402671277523
1761476469566973000,3.459972900390625,-0.20627962052822113,-0.03692370280623436,-0.004112496040761471
1761476469577007000,3.470007080078125,-0.21672667562961578,-0.04275629296898842,-0.010194356553256512
1761476469587040000,3.4800400390625,-0.22306765615940094,-0.04805465042591095,-0.018320459872484207
1761476469597073200,3.4900732421875,-0.22440749406814575,-0.05066801235079765,-0.027324607595801353
1761476469607106000,3.50010595703125,-0.2206282764673233,-0.05747091770172119,-0.030277621001005173
1761476469617140000,3.510139892578125,-0.22494687139987946,-0.05343809351325035,-0.0316036120057106
1761476469627172900,3.5201728515625,-0.23064418137073517,-0.05546235665678978,-0.02750842645764351
1761476469637206000,3.5302060546875,-0.2370898276567459,-0.06557305157184601,-0.025540882721543312
1761476469647238400,3.54023828125,-0.2409416139125824,-0.07084978371858597,-0.021137669682502747
1761476469657272600,3.5502724609375,-0.24174827337265015,-0.06910781562328339,-0.022203732281923294
1761476469667305500,3.560305419921875,-0.23968559503555298,-0.06131545454263687,-0.02868584915995598
1761476469677338600,3.570338623046875,-0.24410830438137054,-0.05347936972975731,-0.03050771914422512
1761476469687371500,3.58037158203125,-0.24797071516513824,-0.051014505326747894,-0.03096921369433403
1761476469697405700,3.59040576171875,-0.251444011926651,-0.04543864727020264,-0.032852865755558014
1761476469707438600,3.6004384765625,-0.25282934308052063,-0.04622741416096687,-0.03306001424789429
1761476469717471500,3.610471435546875,-0.2526269555091858,-0.045574672520160675,-0.03368745744228363
1761476469727504400,3.62050439453125,-0.2484990656375885,-0.04360969737172127,-0.029220879077911377
1761476469737537500,3.63053759765625,-0.24985887110233307,-0.043527938425540924,-0.02659633383154869
1761476469747571500,3.640571533203125,-0.2536287307739258,-0.045292697846889496,-0.03451518714427948
1761476469757604600,3.6506044921875,-0.25249049067497253,-0.04747355729341507,-0.03682015463709831
1761476469767637500,3.660637451171875,-0.25004997849464417,-0.04493734985589981,-0.041006505489349365
1761476469777670700,3.670670654296875,-0.24575750529766083,-0.043752774596214294,-0.0423751026391983
1761476469787704600,3.68070458984375,-0.24112318456172943,-0.042808614671230316,-0.04106231778860092
1761476469797737500,3.690737548828125,-0.23745468258857727,-0.03949617221951485,-0.0363442599773407
1761476469807770400,3.700770263671875,-0.23510503768920898,-0.03731445595622063,-0.030150026082992554
1761476469817803500,3.710803466796875,-0.230637326836586,-0.04009879007935524,-0.026777666062116623
1761476469827837400,3.72083740234375,-0.23159433901309967,-0.03472266346216202,-0.01929789036512375
1761476469837870600,3.73087060546875,-0.2277740240097046,-0.03167121112346649,-0.010683362372219563
1761476469847903500,3.740903564453125,-0.22424758970737457,-0.02903561107814312,-0.007305206265300512
1761476469857936600,3.7509365234375,-0.22110691666603088,-0.04058760404586792,-0.013408106751739979
1761476469867970600,3.760970458984375,-0.21087580919265747,-0.05030309036374092,-0.018982183188199997
1761476469878003700,3.771003662109375,-0.2034437358379364,-0.05594819411635399,-0.0261538103222847
1761476469888036600,3.78103662109375,-0.1921003758907318,-0.052727460861206055,-0.027630433440208435
1761476469898069500,3.791069580078125,-0.18446749448776245,-0.044777922332286835,-0.02465754747390747
1761476469908102400,3.801102294921875,-0.17735905945301056,-0.038340918719768524,-0.016937673091888428
1761476469918136600,3.811136474609375,-0.17100316286087036,-0.0366242453455925,-0.009104249998927116
1761476469928169500,3.82116943359375,-0.16411617398262024,-0.030165942385792732,-0.00602735485881567
1761476469938202600,3.83120263671875,-0.15819783508777618,-0.02178257703781128,-0.000917813740670681
1761476469948235500,3.841235595703125,-0.14272178709506989,-0.021018896251916885,-0.0034166714176535606
1761476469958269700,3.851269775390625,-0.13748787343502045,-0.022179502993822098,-0.01333881076425314
1761476469968302600,3.861302490234375,-0.125418022274971,-0.016903681680560112,-0.021955769509077072
1761476469978335700,3.871335693359375,-0.11706608533859253,-0.01616252399981022,-0.028116993606090546
1761476469988368400,3.881368408203125,-0.11161160469055176,-0.020016349852085114,-0.024236075580120087
1761476469998402600,3.891402587890625,-0.10279760509729385,-0.0184826347976923,-0.018861018121242523
1761476470008435500,3.901435546875,-0.0910537987947464,-0.020010091364383698,-0.011867680586874485
1761476470018468600,3.911468505859375,-0.08229679614305496,-0.011315136216580868,-0.007353889290243387
1761476470028501500,3.92150146484375,-0.07020850479602814,-0.002949378453195095,0.0007603410631418228
1761476470038534700,3.93153466796875,-0.05729483813047409,0.0036182431504130363,0.000615730881690979
1761476470048568600,3.941568603515625,-0.04554353281855583,0.010293740779161453,0.0033253030851483345
1761476470058601700,3.951601806640625,-0.03438648581504822,0.008878004737198353,0.0026049185544252396
1761476470068634600,3.961634521484375,-0.022996246814727783,0.002217506058514118,-0.001956472173333168
1761476470078667500,3.97166748046875,-0.010600829496979713,-0.0013780277222394943,-0.010045291855931282
1761476470088701400,3.981701416015625,0.0008722562342882156,-0.006559794768691063,-0.01382050197571516
1761476470098734600,3.991734619140625,0.010670025832951069,-0.00990658812224865,-0.017972903326153755
1761476470108767500,4.001767578125,0.020360156893730164,-0.010450622998178005,-0.016603881493210793
1761476470118800600,4.011800537109375,0.03166127949953079,-0.003037448041141033,-0.011932430788874626
1761476470128834600,4.02183447265625,0.040041882544755936,0.007450680248439312,-0.012445283122360706
1761476470138867700,4.03186767578125,0.0435551255941391,0.0175163634121418,-0.009853227995336056
1761476470148900600,4.041900634765625,0.051136769354343414,0.01878800243139267,-0.009586186148226261
1761476470158933800,4.051933837890625,0.06251299381256104,0.022910842671990395,-0.002731209620833397
1761476470168967400,4.061967529296875,0.07437252253293991,0.025850124657154083,-0.0010669995099306107
1761476470179000600,4.07200048828125,0.08419159799814224,0.02420375868678093,0.002709895372390747
1761476470189033500,4.082033447265625,0.09414839744567871,0.01853608340024948,0.004747794941067696
1761476470199066600,4.092066650390625,0.10061881691217422,0.016024723649024963,0.005371240898966789
1761476470209099500,4.102099609375,0.1028851717710495,0.014650612138211727,0.0024682702496647835
1761476470219133700,4.1121337890625,0.10625753551721573,0.012874550186097622,-0.004146222956478596
1761476470229166600,4.12216650390625,0.11143157631158829,0.011082111857831478,-0.005439577158540487
1761476470239199700,4.13219970703125,0.11814860999584198,0.008197109214961529,-0.0058851237408816814
1761476470249232600,4.142232666015625,0.1275031566619873,0.008132086135447025,-0.007043234072625637
1761476470259266600,4.1522666015625,0.13008935749530792,0.013815272599458694,0.00024610385298728943
1761476470269299500,4.162299560546875,0.1364637166261673,0.018268026411533356,0.005491446703672409
1761476470279332600,4.17233251953125,0.13729993999004364,0.019058983772993088,0.012516599148511887
1761476470289365500,4.182365478515625,0.14365018904209137,0.022254906594753265,0.018279533833265305
1761476470299399700,4.192399658203125,0.1501307338476181,0.021997911855578423,0.021145358681678772
1761476470309432600,4.2024326171875,0.15393589437007904,0.02020229399204254,0.015874359756708145
1761476470319465700,4.2124658203125,0.1583213210105896,0.018274430185556412,0.007426014170050621
1761476470329498600,4.22249853515625,0.15874937176704407,0.015035701915621758,-0.001104649156332016
1761476470339531800,4.23253173828125,0.16724884510040283,0.019717006012797356,-0.005690079648047686
1761476470349565400,4.2425654296875,0.1685589998960495,0.027439014986157417,-0.0030963290482759476
1761476470359598600,4.2525986328125,0.17259235680103302,0.02799534983932972,0.0019346484914422035
1761476470369631500,4.262631591796875,0.17277942597866058,0.02828911691904068,0.004615459591150284
1761476470379664600,4.27266455078125,0.1770268976688385,0.02570132352411747,0.0056796595454216
1761476470389698600,4.282698486328125,0.1788920909166336,0.022715527564287186,0.009898005984723568
1761476470399731700,4.292731689453125,0.17912910878658295,0.024318218231201172,0.010198944248259068
1761476470409764600,4.3027646484375,0.17770375311374664,0.027968548238277435,0.009371716529130936
1761476470419797800,4.3127978515625,0.18106013536453247,0.03802597522735596,0.01584346406161785
1761476470429831400,4.32283154296875,0.18231381475925446,0.049371231347322464,0.019900938495993614
1761476470439864600,4.332864501953125,0.18052789568901062,0.04977709800004959,0.01890598237514496
1761476470449897500,4.3428974609375,0.18350975215435028,0.047554995864629745,0.014820133335888386
1761476470459930600,4.3529306640625,0.1827014833688736,0.03713404759764671,0.006869000382721424
1761476470469963500,4.362963623046875,0.18746276199817657,0.030350403860211372,0.0010652001947164536
1761476470479997700,4.372997802734375,0.1846906840801239,0.03231688216328621,-0.002098369412124157
1761476470490030600,4.383030517578125,0.18523062765598297,0.034635066986083984,-0.0010247565805912018
1761476470500063700,4.393063720703125,0.1816132664680481,0.03400655835866928,0.00876049604266882
1761476470510096600,4.4030966796875,0.1794390082359314,0.025447506457567215,0.016271144151687622
1761476470520130600,4.413130615234375,0.18053463101387024,0.023587025701999664,0.01855560392141342
1761476470530163500,4.42316357421875,0.1790088713169098,0.013752566650509834,0.013117600232362747
1761476470540196600,4.433196533203125,0.18175646662712097,0.006237659603357315,0.0059422459453344345
1761476470550229500,4.4432294921875,0.17830730974674225,0.0030433523934334517,-0.005180761218070984
1761476470560263700,4.453263671875,0.1781855970621109,0.005088393576443195,-0.011920423246920109
1761476470570296600,4.463296630859375,0.17131757736206055,0.014188681729137897,-0.01529571320861578
1761476470580329700,4.473329833984375,0.16566474735736847,0.029559114947915077,-0.010226652957499027
1761476470590362600,4.483362548828125,0.16013002395629883,0.04302529618144035,-0.004032576456665993
1761476470600395500,4.4933955078125,0.15484072268009186,0.05317220464348793,-0.0008301250636577606
1761476470610429400,4.503429443359375,0.1489766389131546,0.054237231612205505,0.006641600281000137
1761476470620462600,4.513462646484375,0.14240209758281708,0.05921388044953346,0.010013429448008537
1761476470630495500,4.52349560546875,0.13763369619846344,0.06282807886600494,0.011861453764140606
1761476470640528400,4.5335283203125,0.1353340446949005,0.05857314541935921,0.01531690452247858
1761476470650563800,4.543563720703125,0.1230868399143219,0.04848456755280495,0.016395777463912964
1761476470660596700,4.5535966796875,0.11950169503688812,0.04220589995384216,0.012692919932305813
1761476470670629600,4.563629638671875,0.11515015363693237,0.034240879118442535,0.005482705309987068
1761476470680662500,4.57366259765625,0.10914738476276398,0.03356603533029556,-0.001970948651432991
1761476470690696700,4.58369677734375,0.10440675169229507,0.02972296252846718,-0.0028528431430459023
1761476470700729600,4.5937294921875,0.09845378994941711,0.026776975020766258,-0.0007353639230132103
1761476470710765600,4.603765625,0.09163970500230789,0.026193469762802124,0.010872000828385353
1761476470720799700,4.6137998046875,0.0889832004904747,0.023088224232196808,0.02276274748146534
1761476470730832600,4.62383251953125,0.08450426161289215,0.020405717194080353,0.028483234345912933
1761476470740865800,4.63386572265625,0.07862533628940582,0.013332095928490162,0.023323625326156616
1761476470750898700,4.643898681640625,0.07196825742721558,0.010164078325033188,0.01279385294765234
1761476470760932600,4.6539326171875,0.059259384870529175,0.007646592333912849,0.008435857482254505
1761476470770965500,4.663965576171875,0.052614882588386536,0.009794645942747593,0.003945481032133102
1761476470780998700,4.67399853515625,0.04373670369386673,0.010746993124485016,0.004265060648322105
1761476470791031600,4.684031494140625,0.041085682809352875,0.014756620861589909,0.007933218963444233
1761476470801065700,4.694065673828125,0.03574711084365845,0.021198540925979614,0.016300871968269348
1761476470811098600,4.7040986328125,0.026006992906332016,0.018233919516205788,0.021649856120347977
1761476470821131800,4.7141318359375,0.020813828334212303,0.009950157254934311,0.01909428834915161
1761476470831164700,4.72416455078125,0.015869081020355225,0.006770565174520016,0.014084620401263237
1761476470841197800,4.73419775390625,0.012730014510452747,0.0031380136497318745,0.0035363715142011642
1761476470851231500,4.7442314453125,0.008912643417716026,-0.0007338058203458786,-0.008811584673821926
1761476470861264600,4.7542646484375,0.0027514202520251274,-0.0061948844231665134,-0.018390443176031113
1761476470871297500,4.764297607421875,-0.0003870893269777298,-0.005172947887331247,-0.02027878724038601
1761476470881330700,4.77433056640625,-0.009917478077113628,-0.001596855465322733,-0.01841830275952816
1761476470891364600,4.784364501953125,-0.012125018984079361,-0.0018868264742195606,-0.015457245521247387
1761476470901397800,4.794397705078125,-0.016164502128958702,-0.0033622183836996555,-0.008624905720353127
1761476470911430700,4.8044306640625,-0.0219840407371521,-0.007210219744592905,-0.005565200001001358
1761476470921463800,4.8144638671875,-0.022189637646079063,-0.015665223821997643,-0.009213464334607124
1761476470931496700,4.82449658203125,-0.02639450877904892,-0.01785416342318058,-0.010218953713774681
1761476470941530600,4.834530517578125,-0.032623909413814545,-0.01587490178644657,-0.009433853439986706
1761476470951563500,4.8445634765625,-0.033758360892534256,-0.016814157366752625,-0.005579202901571989
1761476470961596700,4.8545966796875,-0.038505446165800095,-0.017474887892603874,-0.0012158798053860664
1761476470971629600,4.864629638671875,-0.04179864004254341,-0.014872480183839798,0.004680126905441284
1761476470981663700,4.874663818359375,-0.04694519564509392,-0.015282608568668365,0.007089754566550255
1761476470991696600,4.884696533203125,-0.05133653059601784,-0.011463521048426628,0.005940934643149376
1761476471001729800,4.894729736328125,-0.05761173740029335,-0.008035501465201378,0.006483154371380806
1761476471011762700,4.9047626953125,-0.05705788731575012,-0.004542982205748558,0.0021193157881498337
1761476471021795800,4.9147958984375,-0.055571045726537704,-0.008241847157478333,-0.003648824989795685
1761476471031829500,4.92482958984375,-0.05434195697307587,-0.00638423440977931,-0.009869126603007317
1761476471041862700,4.934862548828125,-0.05664106458425522,-0.0017471392638981342,-0.011883274652063847
1761476471051895600,4.9448955078125,-0.057110726833343506,-0.000155511312186718,-0.01140526868402958
1761476471061928700,4.9549287109375,-0.05832565948367119,-0.003835999872535467,-0.003957472741603851
1761476471071962600,4.964962646484375,-0.06036410480737686,-0.004801531787961721,0.008504378609359264
1761476471081995800,4.974995849609375,-0.0609436109662056,-0.0027247988618910313,0.014538302086293697
1761476471092028700,4.985028564453125,-0.057412467896938324,-0.000405140221118927,0.02221379615366459
1761476471102061800,4.995061767578125,-0.0494442917406559,-0.004091487731784582,0.018090687692165375
1761476471112094700,5.0050947265625,-0.05065196007490158,0.0009542559273540974,0.004232755862176418
1761476471122128600,5.015128662109375,-0.05219712480902672,0.0008639749139547348,-0.007221233565360308
1761476471132161500,5.02516162109375,-0.05670483037829399,-0.008389770984649658,-0.012532155960798264
1761476471142194700,5.035194580078125,-0.059251878410577774,-0.024372730404138565,-0.014124194160103798
1761476471152227600,5.0452275390625,-0.05565963685512543,-0.035339467227458954,-0.012778806500136852
1761476471162261800,5.05526171875,-0.052154384553432465,-0.0442325621843338,-0.012901578098535538
1761476471172294700,5.065294677734375,-0.04689374566078186,-0.04410222917795181,-0.012614181265234947
1761476471182327800,5.075327880859375,-0.051132164895534515,-0.040682196617126465,-0.008737417869269848
1761476471192360700,5.085360595703125,-0.0526534765958786,-0.031734805554151535,-0.0026370007544755936
1761476471202394600,5.09539453125,-0.05079032853245735,-0.027934741228818893,0.006232922896742821
1761476471212427500,5.105427490234375,-0.05022742599248886,-0.02110489457845688,0.013976030983030796
1761476471222460700,5.115460693359375,-0.051937442272901535,-0.016763143241405487,0.020992394536733627
1761476471232493600,5.12549365234375,-0.047222647815942764,-0.015462325885891914,0.024048760533332825
1761476471242526700,5.135526611328125,-0.047887105494737625,-0.013468684628605843,0.02190544828772545
1761476471252560600,5.145560546875,-0.04792909696698189,-0.009646566584706306,0.006616218946874142
1761476471262593800,5.15559375,-0.05180266499519348,-0.004581235349178314,-0.0034622475504875183
1761476471272626700,5.165626708984375,-0.05336611717939377,-0.006010607350617647,-0.007727055810391903
1761476471282659800,5.175659912109375,-0.055299311876297,-0.008532088249921799,-0.009070354513823986
1761476471292693500,5.185693603515625,-0.056885283440351486,-0.014674272388219833,-0.007284851279109716
1761476471302726700,5.1957265625,-0.05550070479512215,-0.021742302924394608,-0.0027396343648433685
1761476471312759600,5.205759521484375,-0.05183438956737518,-0.021441087126731873,-0.00173917505890131
1761476471322792700,5.215792724609375,-0.04849105700850487,-0.01883811503648758,0.0004526069387793541
1761476471332825600,5.22582568359375,-0.044459812343120575,-0.010426325723528862,-0.005665431264787912
1761476471342859800,5.23585986328125,-0.04047359153628349,-0.006310410797595978,-0.010096132755279541
1761476471352892700,5.245892578125,-0.03598330542445183,-0.00110309524461627,-0.010031181387603283
1761476471362925800,5.25592578125,-0.03527623787522316,0.0009400821290910244,-0.009482037276029587
1761476471372958700,5.265958740234375,-0.031184203922748566,0.001525925938040018,-0.002701914869248867
1761476471382991600,5.27599169921875,-0.028213713318109512,0.0023536363150924444,0.0016305157914757729
1761476471393025500,5.286025634765625,-0.028273597359657288,0.0025184201076626778,0.0027685780078172684
1761476471403058700,5.29605859375,-0.022641010582447052,-0.0003894856199622154,-0.0036488408222794533
1761476471413091600,5.306091552734375,-0.018790321424603462,-0.011258972808718681,-0.015782415866851807
1761476471423124500,5.31612451171875,-0.012704465538263321,-0.009600888937711716,-0.023430749773979187
1761476471433158700,5.32615869140625,-0.010205556638538837,-0.013017439283430576,-0.027788277715444565
1761476471443191800,5.33619189453125,-0.006478462368249893,-0.011509290896356106,-0.029883386567234993
1761476471453224700,5.346224609375,-0.002454654313623905,-0.011017348617315292,-0.019756406545639038
1761476471463257900,5.3562578125,-0.0025329510681331158,-0.007632737047970295,-0.014918508939445019
1761476471473290800,5.366290771484375,0.00006623845547437668,-0.015826653689146042,-0.009797994047403336
1761476471483324700,5.37632470703125,0.0003575878217816353,-0.01900779828429222,-0.009442195296287537
1761476471493357600,5.386357666015625,0.0009039212018251419,-0.023138852789998055,-0.012221377342939377
1761476471503390700,5.396390625,0.0020685214549303055,-0.01957128196954727,-0.009542503394186497
1761476471513423600,5.406423583984375,-0.005091157741844654,-0.019382255151867867,-0.006414664443582296
1761476471523457800,5.416457763671875,-0.006676271092146635,-0.021040871739387512,0.003983913920819759
1761476471533490700,5.42649072265625,-0.01200219988822937,-0.016755037009716034,0.01671731472015381
1761476471543523800,5.43652392578125,-0.0124882273375988,-0.011639636009931564,0.02406151592731476
1761476471553556700,5.446556640625,-0.009835216216742992,-0.011757578700780869,0.021665574982762337
1761476471563589600,5.456589599609375,-0.009413371793925762,-0.009304274804890156,0.012854771688580513
1761476471573623600,5.46662353515625,-0.008839170448482037,-0.004136868752539158,0.0004101833328604698
1761476471583656700,5.47665673828125,-0.009839986450970173,-0.0021738531067967415,-0.006422689184546471
1761476471593689600,5.486689697265625,-0.009064087644219398,-0.004703526385128498,-0.008606817573308945
1761476471603722500,5.496722412109375,-0.012753630056977272,-0.004723500460386276,-0.007318379823118448
1761476471613756700,5.506756591796875,-0.014092350378632545,0.0016544009558856487,0.0050745802000164986
1761476471623789800,5.516789794921875,-0.016028467565774918,-0.007034694775938988,0.012680568732321262
1761476471633822700,5.52682275390625,-0.01569073088467121,-0.010712753050029278,0.012036069296300411
1761476471643859200,5.536859130859375,-0.012958593666553497,-0.005406671203672886,0.010509013198316097
1761476471653892000,5.54689208984375,-0.01683356612920761,0.001979225315153599,0.010649274103343487
1761476471663926000,5.556926025390625,-0.01767033338546753,-0.0003800690174102783,0.008412485010921955
1761476471673959000,5.566958984375,-0.018026994541287422,-0.0035837236791849136,0.002860444597899914
1761476471683992000,5.576991943359375,-0.01909252628684044,-0.0042883967980742455,0.0012340527027845383
1761476471694025000,5.58702490234375,-0.019873756915330887,-0.005316922441124916,-0.0037290453910827637
1761476471704059100,5.59705908203125,-0.021787239238619804,-0.007572886534035206,-0.0032177185639739037
1761476471714092000,5.607092041015625,-0.024146340787410736,-0.013401860371232033,0.0000863783061504364
1761476471724125200,5.617125244140625,-0.025149289518594742,-0.010910207405686378,-0.0006712917238473892
1761476471734158000,5.627157958984375,-0.022695641964673996,-0.012539415620267391,0.0023783817887306213
1761476471744191200,5.637191162109375,-0.02326422929763794,-0.012297066859900951,0.010360143147408962
1761476471754225000,5.647224853515625,-0.0204545296728611,-0.016750264912843704,0.01700807362794876
1761476471764258000,5.657258056640625,-0.016709325835108757,-0.018453355878591537,0.02271496132016182
1761476471774291000,5.667291015625,-0.016022533178329468,-0.014290094375610352,0.023370053619146347
1761476471784324000,5.677323974609375,-0.019211668521165848,-0.009173629805445671,0.023883510380983353
1761476471794357000,5.68735693359375,-0.025632083415985107,-0.0026740580797195435,0.019554929807782173
1761476471804391200,5.69739111328125,-0.02613062411546707,-0.005885031074285507,0.014501048251986504
1761476471814424000,5.707424072265625,-0.026190748438239098,-0.016700254753232002,0.010864915326237679
1761476471824457200,5.717457275390625,-0.02452307753264904,-0.021782631054520607,0.010102450847625732
1761476471834490000,5.727489990234375,-0.019064586609601974,-0.02326217107474804,0.014015523716807365
1761476471844524000,5.73752392578125,-0.01747814193367958,-0.024625709280371666,0.010459138080477715
1761476471854557000,5.747556884765625,-0.016185546293854713,-0.028005458414554596,0.008855189196765423
1761476471864590000,5.757590087890625,-0.018605826422572136,-0.02785072848200798,0.009277832694351673
1761476471874623000,5.767623046875,-0.02045881561934948,-0.023160718381404877,0.009569178335368633
1761476471884656000,5.77765625,-0.02275099791586399,-0.015306257642805576,0.010475718416273594
1761476471894690000,5.78768994140625,-0.023892579600214958,-0.010920010507106781,0.012561089359223843
1761476471904723200,5.79772314453125,-0.024011623114347458,-0.00536705506965518,0.015592032112181187
1761476471914756000,5.807756103515625,-0.022082682698965073,-0.001072040293365717,0.011671556159853935
1761476471924789200,5.817789306640625,-0.02543613687157631,0.0012065605260431767,0.007371349260210991
1761476471934822100,5.827822265625,-0.028063226491212845,0.004545509349554777,0.0017510829493403435
1761476471944856000,5.83785595703125,-0.03001558966934681,0.002694079652428627,0.003978284075856209
1761476471954889000,5.847888916015625,-0.028050497174263,-0.005137748084962368,0.0100780688226223
1761476471964922000,5.857922119140625,-0.027256611734628677,-0.0072293952107429504,0.022852985188364983
1761476471974955000,5.867955078125,-0.023197483271360397,-0.011086590588092804,0.03226844221353531
1761476471984989200,5.8779892578125,-0.01713612861931324,-0.005320847034454346,0.03382479399442673
1761476471995022000,5.88802197265625,-0.015506972558796406,-0.0025144778192043304,0.028498400002717972
1761476472005055200,5.89805517578125,-0.011146845296025276,0.0038307695649564266,0.018544834107160568
1761476472015088000,5.908088134765625,-0.012971432879567146,0.002307541435584426,0.006369184702634811
1761476472025121300,5.918121337890625,-0.01185263879597187,-0.0011231424286961555,0.0072096772491931915
1761476472035155000,5.928155029296875,-0.0076156496070325375,-0.00263175368309021,0.009153326041996479
1761476472045188000,5.93818798828125,-0.004500550217926502,-0.01084174681454897,0.0071026915684342384
1761476472055221000,5.948220947265625,-0.0039465478621423244,-0.01882815919816494,0.010287183336913586
1761476472065254100,5.958254150390625,-0.003451199736446142,-0.022948069497942924,0.011055772192776203
1761476472075287000,5.968287109375,-0.0049515231512486935,-0.027882713824510574,0.0057032760232687
1761476472085321200,5.9783212890625,-0.006449284963309765,-0.01689770445227623,0.006989050656557083
1761476472095354000,5.98835400390625,-0.01145119033753872,-0.002749363426119089,0.009935286827385426
1761476472105387300,5.99838720703125,-0.012886101379990578,0.008005279116332531,0.02123401314020157
1761476472115420200,6.008420166015625,-0.010512443259358406,0.0136043606325984,0.026236355304718018
1761476472125454000,6.0184541015625,-0.011244812048971653,0.008193882182240486,0.02618921548128128
1761476472135487000,6.028487060546875,-0.010277045890688896,0.005444617941975594,0.02465273253619671
1761476472145520000,6.03852001953125,-0.0087649030610919,0.005849685054272413,0.02954842336475849
1761476472155553000,6.048552978515625,-0.006964534521102905,0.0009469194337725639,0.02956821769475937
1761476472165586200,6.058586181640625,-0.00937283132225275,0.002419114811345935,0.027443546801805496
1761476472175620000,6.0686201171875,-0.010302101261913776,0.0014931783080101013,0.01769452542066574
1761476472185653200,6.0786533203125,-0.011954858899116516,0.0027315481565892696,0.012430787086486816
1761476472195686100,6.08868603515625,-0.01294154953211546,-0.006687917746603489,0.013209990225732327
1761476472205719300,6.09871923828125,-0.015840400010347366,-0.009659738279879093,0.015207096002995968
1761476472215752200,6.108752197265625,-0.011279481463134289,-0.007517094258219004,0.022732960060238838
1761476472225786000,6.1187861328125,-0.00839474517852068,-0.004538614768534899,0.02743264101445675
1761476472235819000,6.128819091796875,-0.011112280189990997,-0.003368719946593046,0.028937609866261482
1761476472245852200,6.13885205078125,-0.009444341994822025,0.0038532400503754616,0.024078937247395515
1761476472255885000,6.148885009765625,-0.00886963214725256,0.012946603819727898,0.017960593104362488
1761476472265918000,6.15891796875,-0.006764668971300125,0.01681511104106903,0.01424441859126091
1761476472275952000,6.1689521484375,-0.01114671491086483,0.010240563191473484,0.015056838281452656
1761476472285985300,6.1789853515625,-0.009136028587818146,0.007476468104869127,0.013182505033910275
1761476472296018200,6.18901806640625,-0.010612460784614086,-0.004721237812191248,0.014267909340560436
1761476472306051000,6.199051025390625,-0.007999899797141552,-0.010818811133503914,0.013380809687077999
1761476472316084200,6.209084228515625,-0.007845033891499043,-0.013023123145103455,0.015406113117933273
1761476472326118100,6.2191181640625,-0.0049451179802417755,-0.012112587690353394,0.009265130385756493
1761476472336151000,6.229151123046875,-0.0033130026422441006,-0.01519172266125679,0.0036237863823771477
1761476472346184000,6.239183837890625,-0.005306911654770374,-0.009570587426424026,0.005716498009860516
1761476472356217000,6.249217041015625,-0.00739320321008563,-0.011009412817656994,0.005964278243482113
1761476472366250000,6.25925,-0.006937270052731037,-0.0026228521019220352,0.01467254851013422
1761476472376284200,6.2692841796875,-0.006929599680006504,0.003138445084914565,0.022799178957939148
1761476472386317000,6.279317138671875,-0.003486664965748787,0.012091726064682007,0.03195246309041977
1761476472396350200,6.28935009765625,-0.0023520211689174175,0.012684514746069908,0.033628832548856735
1761476472406383000,6.299383056640625,-0.003623947035521269,0.01107569970190525,0.021169498562812805
1761476472416416300,6.309416259765625,-0.005576980300247669,0.0036087592598050833,0.0075432611629366875
1761476472426450000,6.319449951171875,-0.007937073707580566,0.0007349420338869095,0.0005146469920873642
1761476472436483000,6.329483154296875,-0.007181032560765743,-0.0011730254627764225,0.0012959148734807968
1761476472446516000,6.339515869140625,-0.007504872977733612,0.000548175536096096,0.014514780603349209
1761476472456549000,6.349549072265625,-0.007774668280035257,-0.00528727425262332,0.02968566119670868
1761476472466582000,6.35958203125,-0.010271914303302765,-0.013765981420874596,0.03457709029316902
1761476472476616200,6.3696162109375,-0.008452133275568485,-0.01719663105905056,0.03608042746782303
1761476472486649000,6.379649169921875,-0.004604664631187916,-0.008479040116071701,0.026293043047189713
1761476472496682200,6.38968212890625,-0.005936368368566036,-0.008876189589500427,0.012961046770215034
1761476472506715100,6.399715087890625,-0.009305267594754696,-0.012661606073379517,0.007263479754328728
1761476472516748300,6.409748291015625,-0.008004517294466496,-0.0062597221694886684,0.0015187785029411316
1761476472526782000,6.419781982421875,-0.005254004616290331,0.009718711487948895,0.00894154142588377
1761476472536815000,6.429815185546875,-0.0037243193946778774,0.009858202189207077,0.019428759813308716
1761476472546848000,6.439847900390625,-0.004984261002391577,0.007505832239985466,0.03330835700035095
1761476472556881200,6.449881103515625,-0.00816656555980444,0.009840619750320911,0.04052402451634407
1761476472566914000,6.4599140625,-0.01214426290243864,0.013367177918553352,0.042671333998441696
1761476472576947200,6.469947265625,-0.014689913019537926,0.010088980197906494,0.03519152104854584
1761476472586981000,6.479981201171875,-0.013237690553069115,0.009878324344754219,0.02610854245722294
1761476472597014300,6.49001416015625,-0.011933648958802223,0.013014059513807297,0.018880441784858704
1761476472607047200,6.500047119140625,-0.008349301293492317,0.011327479034662247,0.009907453320920467
1761476472617080300,6.510080322265625,-0.0015159533359110355,0.00914322305470705,0.01019927579909563
1761476472627113200,6.52011328125,0.0004960652440786362,0.010422606021165848,0.014309865422546864
1761476472637147100,6.530147216796875,-0.0015915208496153355,0.007004292216151953,0.018110550940036774
1761476472647177000,6.540177001953125,-0.006819572299718857,0.008688475005328655,0.023902658373117447
1761476472657209900,6.5502099609375,-0.007847153581678867,0.011793197132647038,0.02941889502108097
1761476472667242800,6.56024267578125,-0.008974469266831875,0.011219286359846592,0.030347539111971855
1761476472677276000,6.57027587890625,-0.005429368931800127,0.010317075997591019,0.026422914117574692
1761476472687310000,6.58031005859375,-0.0005496591329574585,0.0005073221400380135,0.015516201965510845
1761476472697343000,6.590343017578125,0.002539241686463356,-0.004015472251921892,0.00514267198741436
1761476472707375900,6.6003759765625,0.003220479004085064,-0.017119290307164192,-0.013745797798037529
1761476472717408800,6.61040869140625,0.004098821431398392,-0.01937039941549301,-0.02267453260719776
1761476472727441700,6.620441650390625,0.0058493176475167274,-0.014737830497324467,-0.021921657025814056
1761476472737474800,6.630474853515625,0.0023776544257998466,-0.011180038563907146,-0.010084602050483227
1761476472747508700,6.6405087890625,0.0023659365251660347,0.000006570015102624893,0.000981098972260952
1761476472757542000,6.6505419921875,0.0013523008674383163,0.010576299391686916,0.002231558784842491
1761476472767574800,6.66057470703125,0.0007245941087603569,0.015954285860061646,0.009976563043892384
1761476472777608000,6.67060791015625,0.0019279122352600098,0.015947574749588966,0.010496929287910461
1761476472787640800,6.680640869140625,0.0011444110423326492,0.02639196068048477,0.01475772075355053
1761476472797675000,6.690675048828125,0.0007532918825745583,0.028988473117351532,0.015391744673252106
1761476472807708000,6.7007080078125,0.0007221326231956482,0.01766258291900158,0.013807697221636772
1761476472817740800,6.71074072265625,0.002663377672433853,0.010026371106505394,0.005020211450755596
1761476472827773700,6.720773681640625,0.008484781719744205,0.0017263633199036121,-0.0024464931339025497
1761476472837806800,6.730806884765625,0.010067266412079334,-0.00431041419506073,-0.007800408639013767
1761476472847839700,6.74083984375,0.008783089928328991,-0.0047887172549963,-0.008096817880868912
1761476472857874000,6.7508740234375,0.009024138562381268,-0.000935861375182867,-0.004311889410018921
1761476472867906800,6.76090673828125,0.006527958437800407,0.003353425767272711,0.0005033724009990692
1761476472877940000,6.77093994140625,0.00952577032148838,0.008550877682864666,0.003951533697545528
1761476472887972900,6.780972900390625,0.011430196464061737,0.015963787212967873,0.006050904281437397
1761476472898006000,6.791006103515625,0.010565303266048431,0.01911025494337082,0.007264222949743271
1761476472908039000,6.801038818359375,0.011773580685257912,0.015731237828731537,0.007231466472148895
1761476472918072800,6.81107275390625,0.012501852586865425,0.00932985171675682,0.009811022318899632
1761476472928105700,6.821105712890625,0.01012711226940155,-0.0031824777834117413,0.011817446909844875
1761476472938139000,6.831138916015625,0.010867970995604992,-0.01083859521895647,0.007849291898310184
1761476472948171800,6.841171875,0.012936980463564396,-0.010676941834390163,0.0025605205446481705
1761476472958205000,6.851204833984375,0.008722645230591297,-0.010107848793268204,-0.004033341072499752
1761476472968238800,6.86123876953125,0.008045936934649944,-0.005974622908979654,-0.009812932461500168
1761476472978272000,6.87127197265625,0.006522621959447861,-0.00439481670036912,-0.0101502425968647
1761476472988305000,6.881304931640625,0.00017657503485679626,0.000003926921635866165,-0.0035211024805903435
1761476472998338000,6.891338134765625,0.004027567803859711,0.0018485570326447487,0.006604859605431557
1761476473008371000,6.901370849609375,0.0006243139505386353,-0.002226345706731081,0.018576035276055336
1761476473018403800,6.91140380859375,0.002302137203514576,-0.001906171441078186,0.030421819537878036
1761476473028437800,6.921437744140625,0.002671252004802227,0.002254485385492444,0.02725851908326149
1761476473038471000,6.931470947265625,0.005090305581688881,0.004473906941711903,0.015097440220415592
1761476473048503800,6.94150390625,0.0069214953109622,0.008977046236395836,0.004432813264429569
1761476473058536700,6.95153662109375,0.007911131717264652,0.014846132136881351,-0.003187498077750206
1761476473068569900,6.96156982421875,0.005637857131659985,0.010088660754263401,-0.0021802904084324837
1761476473078602800,6.971602783203125,0.005560043267905712,0.004172620363533497,0.0011828010901808739
1761476473088637000,6.981636962890625,0.0045807985588908195,-0.006191869731992483,0.0020904066041111946
1761476473098669800,6.991669921875,0.007528629153966904,-0.018758848309516907,-0.0010345382615923882
1761476473108703000,7.001702880859375,0.01369650848209858,-0.023630034178495407,-0.0027860989794135094
1761476473118736000,7.01173583984375,0.011493566446006298,-0.018306322395801544,-0.006085764616727829
1761476473128769000,7.02176904296875,0.008718552999198437,-0.01479681022465229,-0.007936395704746246
1761476473138802000,7.031802001953125,0.006167205050587654,-0.008486256003379822,-0.008981253951787949
1761476473148834800,7.041834716796875,0.011298849247395992,-0.006605796981602907,-0.006027276162058115
1761476473158868700,7.05186865234375,0.010620161890983582,0.0003421483561396599,-0.0045986175537109375
1761476473168902000,7.06190185546875,0.01259436272084713,0.010589193552732468,-0.00178498774766922
1761476473178934800,7.071934814453125,0.007907405495643616,0.007585847284644842,-0.0003002770245075226
1761476473188968000,7.081968017578125,0.00624559260904789,0.005392733961343765,0.004430029541254044
1761476473199000800,7.092000732421875,0.006549643352627754,0.012993479147553444,0.007283524610102177
1761476473209034000,7.102033935546875,0.011079147458076477,0.016412444412708282,0.006902691908180714
1761476473219068000,7.11206787109375,0.01006440632045269,0.018186233937740326,0.005582094192504883
1761476473229101000,7.12210107421875,0.004277091473340988,0.013632494024932384,0.007027657702565193
1761476473239134000,7.132134033203125,0.0037535522133111954,0.0035551644396036863,0.009275466203689575
1761476473249166800,7.142166748046875,0.006590617820620537,-0.0021147052757441998,0.01519833691418171
1761476473259199700,7.15219970703125,0.011383812874555588,0.004068959970027208,0.01768450066447258
1761476473269233000,7.16223291015625,0.014498379081487656,0.00713132880628109,0.012925163842737675
1761476473279266800,7.172266845703125,0.009524781256914139,0.007180584594607353,0.007675725035369396
1761476473289300000,7.182300048828125,0.007043248042464256,0.0013645072467625141,0.000340314581990242
1761476473299332900,7.192332763671875,0.0038659973070025444,-0.0023856880143284798,-0.003996836952865124
1761476473309366000,7.202365966796875,0.007453541271388531,-0.008038247935473919,-0.005697531159967184
1761476473319399000,7.21239892578125,0.007011169567704201,-0.0077090938575565815,-0.00417697336524725
1761476473329431800,7.222431884765625,0.008022105321288109,-0.004823558498173952,0.0006843600422143936
1761476473339465000,7.23246484375,0.009359308518469334,0.00030943844467401505,0.003102407790720463
1761476473349499000,7.242498779296875,0.009320958517491817,-0.0021989927627146244,0.0050811367109417915
1761476473359531800,7.25253173828125,0.0031549036502838135,0.00037940824404358864,0.000025822781026363373
1761476473369564700,7.262564697265625,-0.0005937619134783745,-0.00007759034633636475,-0.00749973813071847
1761476473379597800,7.272597900390625,0.000653623603284359,-0.004552304279059172,-0.007356560323387384
1761476473389630700,7.282630615234375,-0.0010188417509198189,-0.011285575106739998,-0.015322341583669186
1761476473399663900,7.292663818359375,0.0018335795029997826,-0.009801275096833706,-0.011297494173049927
1761476473409697800,7.30269775390625,-0.004535636864602566,0.0007365867495536804,-0.007902762852609158
1761476473419731000,7.31273095703125,-0.005822279956191778,0.008110478520393372,-0.0005864063277840614
1761476473429763800,7.322763916015625,-0.006758380681276321,0.009534470736980438,-0.00019838381558656693
1761476473439797000,7.332796875,-0.00941750593483448,0.012162014842033386,-0.0008006906136870384
1761476473449830000,7.342829833984375,-0.009924039244651794,0.01014174148440361,-0.001750107854604721
1761476473459863000,7.352863037109375,-0.010248228907585144,0.0062339468859136105,-0.007358658593147993
1761476473469896000,7.36289599609375,-0.01275612786412239,0.010171430185437202,-0.001173999160528183
1761476473479929000,7.37292919921875,-0.008609769865870476,0.008177127689123154,0.01788138598203659
1761476473489962800,7.382962646484375,-0.009975172579288483,0.01874854601919651,0.024541418999433517
1761476473499996000,7.392995849609375,-0.017550168558955193,0.016601763665676117,0.019880488514900208
1761476473510028800,7.40302880859375,-0.01874006912112236,0.002826295793056488,0.016752071678638458
1761476473520062000,7.41306201171875,-0.019384555518627167,-0.001636688131839037,0.014941446483135223
1761476473530094800,7.4230947265625,-0.01365103479474783,-0.0054729715920984745,0.016715912148356438
1761476473540128000,7.4331279296875,-0.011332696303725243,-0.006947167217731476,0.01163629163056612
1761476473550162000,7.443161865234375,-0.010687945410609245,-0.004480548202991486,0.014591335318982601
1761476473560195000,7.453195068359375,-0.014424405992031097,0.002805203665047884,0.010321714915335178
1761476473570228000,7.46322802734375,-0.019401321187615395,-0.0012824824079871178,0.009821572341024876
1761476473580261000,7.47326123046875,-0.019664648920297623,-0.002633108291774988,0.007658912800252438
1761476473590293800,7.483293701171875,-0.017214540392160416,0.002482024719938636,0.008324704132974148
1761476473600326700,7.49332666015625,-0.015349844470620155,-0.0012348047457635403,0.00435948371887207
1761476473610359800,7.50335986328125,-0.016235344111919403,-0.0017493278719484806,-0.0006600422784686089
1761476473620392700,7.513392822265625,-0.015211340971291065,-0.003514946438372135,-0.0013785697519779205
1761476473630427000,7.523427001953125,-0.015065666288137436,-0.0030853785574436188,0.0018864655867218971
1761476473640459800,7.533459716796875,-0.015381472185254097,0.0007347855716943741,0.0060357097536325455
1761476473650492200,7.5434921875,-0.014639249071478844,0.007952218875288963,0.013668596744537354
1761476473660525300,7.553525390625,-0.012760123237967491,0.011105667799711227,0.010547105222940445
1761476473670558200,7.56355810546875,-0.008729428052902222,0.016199495643377304,0.004060709848999977
1761476473680591400,7.57359130859375,-0.0031091212294995785,0.023633111268281937,-0.004006316885352135
1761476473690624300,7.583624267578125,-0.006241797469556332,0.01721622422337532,-0.009746494702994823
1761476473700658400,7.593658447265625,-0.012685820460319519,0.004520735237747431,-0.0091858534142375
1761476473710691300,7.60369140625,-0.013616329059004784,-0.007456831634044647,-0.006374886725097895
1761476473720724200,7.61372412109375,-0.011952736414968967,-0.019714700058102608,-0.007571909576654434
1761476473730757000,7.623757080078125,-0.005854098126292229,-0.027517227455973625,-0.0018655546009540558
1761476473740790300,7.633790283203125,-0.00528945354744792,-0.03358271345496178,-0.003927011974155903
1761476473750823200,7.6438232421875,-0.005906774662435055,-0.033080972731113434,-0.010538576170802116
1761476473760856000,7.65385595703125,-0.007100947201251984,-0.024098459631204605,-0.014304015785455704
1761476473770889200,7.66388916015625,-0.012486923485994339,-0.008650528267025948,-0.01633414253592491
1761476473780923400,7.67392333984375,-0.01583969220519066,0.008944508619606495,-0.00574113242328167
1761476473790956300,7.683956298828125,-0.018507644534111023,0.01857742853462696,-0.0005056243389844894
1761476473800989200,7.6939892578125,-0.02162124589085579,0.025079336017370224,0.0074676889926195145
1761476473811022300,7.704022216796875,-0.022269193083047867,0.023474514484405518,0.011744724586606026
1761476473821055200,7.71405517578125,-0.019319571554660797,0.02245485782623291,0.010206555016338825
1761476473831088400,7.72408837890625,-0.01705721765756607,0.025126541033387184,0.0046557290479540825
1761476473841121300,7.734121337890625,-0.016689015552401543,0.03187292814254761,0.004947099834680557
1761476473851155200,7.7441552734375,-0.020782295614480972,0.035475119948387146,-0.00024366751313209534
1761476473861188000,7.75418798828125,-0.020734664052724838,0.0312831737101078,-0.0011920612305402756
1761476473871221200,7.76422119140625,-0.017280010506510735,0.03035639226436615,0.0021970774978399277
1761476473881254100,7.774254150390625,-0.01466680783778429,0.029768096283078194,0.0060995956882834435
1761476473891287300,7.784287353515625,-0.007090114522725344,0.01963210478425026,0.010750007815659046
1761476473901320200,7.7943203125,-0.005332605913281441,0.005868624895811081,0.010612730868160725
1761476473911353300,7.804353271484375,-0.0027655847370624542,-0.002616738900542259,0.005788947455585003
1761476473921386200,7.81438623046875,-0.003022515680640936,-0.003495517186820507,-0.00011220481246709824
1761476473931419400,7.82441943359375,-0.00041528139263391495,0.004163467325270176,-0.0037016132846474648
1761476473941453300,7.834453369140625,-0.007340610027313232,0.007202068343758583,-0.004383214749395847
1761476473951486500,7.844486572265625,-0.0019644866697490215,0.0013503041118383408,-0.0027419086545705795
1761476473961519400,7.854519287109375,-0.003152256365865469,-0.005602410063147545,-0.000692339614033699
1761476473971552300,7.86455224609375,0.001332240179181099,-0.008530023507773876,0.0011050272732973099
1761476473981585200,7.874585205078125,-0.00035841576755046844,-0.011263690888881683,0.006429609842598438
1761476473991618000,7.8846181640625,-0.00014536269009113312,-0.008227953687310219,0.004893765784800053
1761476474001651200,7.894651123046875,0.001431983895599842,-0.009446150623261929,0.002989772707223892
1761476474011684000,7.90468408203125,-0.0010607345029711723,-0.008020826615393162,0.0015846891328692436
1761476474021718300,7.91471826171875,-0.0005613202229142189,-0.007504573091864586,0.002487112767994404
1761476474031751200,7.924751220703125,0.0010232608765363693,-0.0017263125628232956,0.0025947047397494316
1761476474041784300,7.934784423828125,-0.0013135774061083794,0.000648165587335825,0.0088088009506464
1761476474051817200,7.944817138671875,0.00160258449614048,-0.0014474759809672832,0.017005478963255882
1761476474061850400,7.954850341796875,0.007549785077571869,-0.006850563455373049,0.0204872228205204
1761476474071883300,7.96488330078125,0.009054206311702728,-0.009515056386590004,0.019659511744976044
1761476474081916400,7.97491650390625,0.01293876487761736,-0.009435029700398445,0.02359713986515999
1761476474091949300,7.98494921875,0.010789859108626842,-0.00719131575897336,0.022184599190950394
1761476474101983200,7.994983154296875,0.00048167910426855087,0.00003643520176410675,0.02506212145090103
1761476474112016100,8.00501611328125,-0.0021825474686920643,0.0007826527580618858,0.02253717929124832
1761476474122049300,8.01504931640625,-0.0011657467111945152,-0.0026647397316992283,0.021168846637010574
1761476474132078000,8.025078125,-0.0020621665753424168,-0.0034844600595533848,0.02486744523048401
1761476474142112300,8.0351123046875,-0.008195862174034119,-0.008103778585791588,0.02462822198867798
1761476474152145200,8.045145263671875,-0.00823740754276514,-0.007645981851965189,0.026540637016296387
1761476474162178300,8.05517822265625,-0.006876410450786352,-0.004131672903895378,0.018532220274209976
1761476474172211200,8.065211181640626,-0.005596495233476162,0.0009291316382586956,0.005957840010523796
1761476474182244400,8.075244384765625,-0.0075605763122439384,0.0020071794278919697,-0.00894973799586296
1761476474192277200,8.08527734375,-0.004692351911216974,-0.004268026910722256,-0.017947759479284286
1761476474202310400,8.095310302734376,-0.009861310943961143,-0.007172342389822006,-0.02007940039038658
1761476474212343300,8.10534326171875,-0.008055954240262508,0.001085587777197361,-0.010706938803195953
1761476474222376400,8.11537646484375,-0.009882534854114056,0.004141572862863541,-0.004704028833657503
1761476474232410000,8.12541015625,-0.009211950935423374,0.0034209215082228184,-0.0075432248413562775
1761476474242443300,8.135443359375,-0.013316077180206776,0.0025209058076143265,-0.013955173082649708
1761476474252476200,8.14547607421875,-0.014741932973265648,0.0011232788674533367,-0.02006366476416588
1761476474262509300,8.15550927734375,-0.013096801936626434,-0.0017021349631249905,-0.020116735249757767
1761476474272542200,8.165542236328125,-0.011100230738520622,-0.001928770449012518,-0.018662115558981895
1761476474282575400,8.175575439453125,-0.01560048945248127,-0.0008833496831357479,-0.015032858587801456
1761476474292608300,8.185608154296874,-0.012345041148364544,-0.0003895997069776058,-0.01153133437037468
1761476474302641200,8.19564111328125,-0.012547850608825684,-0.0037911804392933846,-0.003252387046813965
1761476474312674300,8.20567431640625,-0.013689814135432243,-0.002819392830133438,0.0035527879372239113
1761476474322708500,8.21570849609375,-0.016486596316099167,-0.0013053263537585735,0.011085417121648788
1761476474332741400,8.225741455078126,-0.027772538363933563,0.001571420580148697,0.016130242496728897
1761476474342774300,8.235774169921875,-0.03282445669174194,0.004062208347022533,0.023107919842004776
1761476474352807200,8.24580712890625,-0.03526151925325394,0.007380240596830845,0.024414464831352234
1761476474362840000,8.255840087890626,-0.03208676353096962,0.00691258953884244,0.02288927137851715
1761476474372873200,8.265873291015625,-0.023568641394376755,0.009880682453513145,0.02222934365272522
1761476474382906000,8.275906005859374,-0.010990727692842484,0.0057638343423604965,0.012612279504537582
1761476474392939300,8.285939208984376,-0.006431662477552891,-0.0030475007370114326,0.000038963742554187775
1761476474402972200,8.29597216796875,0.000917334109544754,-0.003045296762138605,-0.016475562006235123
1761476474413005300,8.30600537109375,-0.001164725050330162,0.006139945704489946,-0.025874122977256775
1761476474423039200,8.316039306640626,-0.00933043658733368,0.004190376959741116,-0.03603526949882507
1761476474433072400,8.326072265625,-0.013377642259001732,0.002720045857131481,-0.03889204561710358
1761476474443105300,8.336105224609375,-0.004330956842750311,0.00987423025071621,-0.03531050309538841
1761476474453138400,8.346138427734376,0.005192507058382034,0.01012350246310234,-0.033278509974479675
1761476474463171300,8.35617138671875,0.012602726928889751,0.016541916877031326,-0.024558041244745255
1761476474473204200,8.366204345703125,0.008526493795216084,0.02108607068657875,-0.013538145460188389
1761476474483237400,8.3762373046875,0.005600019358098507,0.021862586960196495,0.0010270969942212105
1761476474493270300,8.386270263671875,0.008033882826566696,0.023675933480262756,0.010189701803028584
1761476474503303200,8.39630322265625,0.00830014981329441,0.0190738532692194,0.021047046408057213
1761476474513337000,8.406337158203126,0.011403264477849007,0.017418166622519493,0.027439432218670845
1761476474523370200,8.416370361328125,0.012752179987728596,0.01704307086765766,0.023317178711295128
1761476474533403100,8.426403076171875,0.013954597525298595,0.014841968193650246,0.01651626266539097
1761476474543436300,8.436436279296874,0.014166027307510376,0.014939295127987862,0.010411178693175316
1761476474553469200,8.44646923828125,0.01149035058915615,0.01600669138133526,0.003920789808034897
1761476474563502300,8.45650244140625,0.010500308126211166,0.011215399950742722,-0.0023049060255289078
1761476474573535200,8.46653515625,0.0063835931941866875,0.004689323715865612,-0.008106069639325142
1761476474583568400,8.476568359375,0.009155846200883389,0.0022448746021836996,-0.008931045420467854
1761476474593601300,8.486601318359375,0.009679424576461315,-0.004039652645587921,-0.018188992515206337
1761476474603634400,8.496634521484374,0.017068075016140938,-0.01069975458085537,-0.01741619035601616
1761476474613668000,8.506668212890625,0.01786435954272747,-0.013437751680612564,-0.01851447857916355
1761476474623701200,8.516701171875,0.015859410166740417,-0.007902106270194054,-0.014469380490481853
1761476474633734100,8.526734130859374,0.017178472131490707,0.0018463949672877789,-0.01014440692961216
1761476474643767300,8.536767333984375,0.015855463221669197,0.012768230400979519,-0.00459933839738369
1761476474653800400,8.546800537109375,0.013936389237642288,0.018367793411016464,-0.004990556742995977
1761476474663833300,8.556833251953124,0.011638155207037926,0.024692855775356293,-0.003929676488041878
1761476474673866200,8.5668662109375,0.011419510468840599,0.027298226952552795,0.0007758624851703644
1761476474683899400,8.5768994140625,0.012186906300485134,0.019922561943531036,-0.00268621277064085
1761476474693932300,8.586932373046874,0.01664876565337181,0.016407456248998642,-0.0038388296961784363
1761476474703965400,8.59696533203125,0.021364368498325348,0.016839705407619476,-0.006768657825887203
1761476474713998300,8.606998291015625,0.020325999706983566,0.014555246569216251,-0.008489592932164669
1761476474724032500,8.617032470703125,0.01929721236228943,0.012526411563158035,-0.00560838682577014
1761476474734065400,8.6270654296875,0.023261062800884247,0.012442521750926971,-0.0035649435594677925
1761476474744098300,8.637098388671875,0.02533774822950363,0.007043551187962294,-0.0038787638768553734
1761476474754131200,8.647131103515624,0.027335382997989655,-0.0015302295796573162,-0.0025905929505825043
1761476474764164400,8.657164306640626,0.024522792547941208,-0.009204505011439323,0.0029394207522273064
1761476474774197200,8.667197265625,0.025932136923074722,-0.0035026767291128635,0.010023163631558418
1761476474784230400,8.67723046875,0.019140101969242096,0.00514035951346159,0.015079907141625881
1761476474794263300,8.68726318359375,0.015066265128552914,0.010791320353746414,0.017228547483682632
1761476474804296400,8.69729638671875,0.014139145612716675,0.014809101819992065,0.01756102964282036
1761476474814329300,8.707329345703124,0.009522821754217148,0.015569433569908142,0.015809737145900726
1761476474824362200,8.7173623046875,0.008482376113533974,0.013866669498383999,0.00841929204761982
1761476474834396400,8.727396484375,0.010270955041050911,0.008951539173722267,0.0027148015797138214
1761476474844429600,8.7374296875,0.009199134074151516,0.004119355697184801,-0.0028797797858715057
1761476474854462500,8.74746240234375,0.006638503633439541,-0.00017712218686938286,-0.012427478097379208
1761476474864495400,8.757495361328125,0.0033707544207572937,-0.004564473871141672,-0.014897122979164124
1761476474874528500,8.767528564453125,0.002192305400967598,-0.005790859926491976,-0.01301107183098793
1761476474884561400,8.7775615234375,-0.0006300155073404312,-0.0043999566696584225,-0.005758823361247778
1761476474894594300,8.78759423828125,-0.002363733481615782,-0.0011690100654959679,0.0005129212513566017
1761476474904627200,8.797627197265625,-0.002653638832271099,0.003911853302270174,0.002411740832030773
1761476474914660400,8.807660400390626,0.0016777263954281807,0.005615477450191975,0.0017723152413964272
1761476474924693200,8.817693359375,0.00999107863754034,0.0037885387428104877,-0.001467376947402954
1761476474934726400,8.827726318359375,0.016256965696811676,0.009399286471307278,-0.007552167866379023
1761476474944759300,8.83775927734375,0.014912458136677742,0.014926336705684662,-0.008963671512901783
1761476474954793500,8.84779345703125,0.008441776037216187,0.010325992479920387,-0.012159997597336769
1761476474964826400,8.857826416015625,0.008305886760354042,0.010309804230928421,-0.004684388171881437
1761476474974859500,8.867859619140624,0.00961269810795784,0.009368376806378365,0.0017825663089752197
1761476474984892400,8.877892333984375,0.008458049967885017,0.003224664833396673,0.0030570831149816513
1761476474994925300,8.88792529296875,0.009163787588477135,-0.012490915134549141,0.0013702372089028358
1761476475004958500,8.89795849609375,0.012888086959719658,-0.02168452739715576,-0.009405145421624184
1761476475014991400,8.907991455078125,0.017616797238588333,-0.01895984634757042,-0.019815973937511444
1761476475025024500,8.9180244140625,0.017542380839586258,-0.013540351763367653,-0.02439652383327484
1761476475035057400,8.928057373046874,0.01189861074090004,-0.003669611643999815,-0.020083799958229065
1761476475045090600,8.938090576171875,0.005091261118650436,0.00809529423713684,-0.0067686280235648155
1761476475055123500,8.94812353515625,-0.00001668184995651245,0.013908974826335907,0.007339733652770519
1761476475065156400,8.95815625,-0.002256362698972225,0.017037564888596535,0.011798698455095291
1761476475075190300,8.968190185546876,0.002521081827580929,0.01917927898466587,0.009697997942566872
1761476475085223400,8.978223388671875,-0.0009840689599514008,0.014630721881985664,0.0028184419497847557
1761476475095256300,8.98825634765625,-0.001491401344537735,0.01346372440457344,-0.008051516488194466
1761476475105289500,8.99828955078125,-0.0037622381933033466,0.017344169318675995,-0.012861877679824829
1761476475115322400,9.008322265625,-0.008501066826283932,0.017929531633853912,-0.009672475978732109
1761476475125355500,9.01835546875,-0.0040649957954883575,0.015083552338182926,-0.005135681014508009
1761476475135388400,9.028388427734376,-0.004174718167632818,0.013868885114789009,-0.0009771548211574554
1761476475145421300,9.03842138671875,0.0020888233557343483,0.009069662541151047,-0.00011153426021337509
1761476475155454500,9.048454345703124,0.004122412763535976,0.00653326790779829,-0.00351132545620203
1761476475165487400,9.0584873046875,0.01129997055977583,0.011497797444462776,-0.00545502221211791
1761476475175520500,9.0685205078125,0.01003922987729311,0.012343617156147957,-0.006028400734066963
1761476475185553400,9.078553466796874,0.005622168071568012,0.012053361162543297,-0.005528363864868879
1761476475195586600,9.088586669921876,0.0038128159940242767,0.009860780090093613,-0.003477463498711586
1761476475205620200,9.0986201171875,0.009250342845916748,0.0003455658443272114,-0.010466109961271286
1761476475215653400,9.1086533203125,0.009365923702716827,-0.009956607595086098,-0.018711522221565247
1761476475225686300,9.118686279296876,0.012902098707854748,-0.018618283793330193,-0.026014935225248337
1761476475235719400,9.128719482421875,0.01399958785623312,-0.021414069458842278,-0.03260279446840286
1761476475245752300,9.13875244140625,0.013796601444482803,-0.019332868978381157,-0.03070858120918274
1761476475255785500,9.148785400390626,0.01479821652173996,-0.009078899398446083,-0.025763623416423798
1761476475265818400,9.158818359375,0.011403591372072697,0.0033016931265592575,-0.02479238063097
1761476475275851500,9.1688515625,0.012751416303217411,0.012755915522575378,-0.019626380875706673
1761476475285884400,9.178884521484376,0.013208191841840744,0.024098755791783333,-0.019426878541707993
1761476475295917300,9.188917236328125,0.01125369779765606,0.019951414316892624,-0.018588248640298843
1761476475305950500,9.198950439453125,0.005939158610999584,0.016338251531124115,-0.017906593158841133
1761476475315983400,9.2089833984375,0.009328297339379787,0.016220007091760635,-0.010995157063007355
1761476475326016500,9.2190166015625,0.00627170130610466,0.012706214562058449,-0.005609650164842606
1761476475336049400,9.22904931640625,0.0031877607107162476,0.00789894163608551,-0.003119061700999737
1761476475346083300,9.239083251953126,0.005030189640820026,-0.0015592449344694614,-0.0016208700835704803
1761476475356116200,9.2491162109375,0.004989443346858025,-0.0019003963097929955,0.0004476066678762436
1761476475366149400,9.2591494140625,0.004740980453789234,-0.0009103156626224518,0.004738479852676392
1761476475376182300,9.269182373046876,0.005299446173012257,-0.002528719138354063,-0.0010408451780676842
1761476475386215400,9.27921533203125,0.003216288983821869,0.0028886955697089434,-0.0016504833474755287
1761476475396248300,9.289248291015625,0.0019720597192645073,0.01044248603284359,-0.0015657953917980194
1761476475406281500,9.299281494140626,-0.005940108560025692,0.011161025613546371,0.0005225967615842819
1761476475416314400,9.309314453125,-0.00983498152345419,0.019110828638076782,-0.0038314051926136017
1761476475426347500,9.319347412109375,-0.006122255697846413,0.020193852484226227,-0.0066754077561199665
1761476475436380400,9.32938037109375,-0.012587612494826317,0.004735799506306648,-0.009880788624286652
1761476475446413300,9.339413330078125,-0.012549541890621185,-0.008173523470759392,-0.0069185420870780945
1761476475456446500,9.349446533203125,-0.010355363599956036,-0.00878977868705988,-0.008376356214284897
1761476475466479400,9.359479248046876,-0.011655899696052074,-0.0036336109042167664,-0.008724750019609928
1761476475476512500,9.369512451171875,-0.012935815379023552,0.002993399277329445,-0.013022292405366898
1761476475486546200,9.379546142578125,-0.018366970121860504,0.001370641402900219,-0.015427661128342152
1761476475496579300,9.389579345703124,-0.02562674880027771,0.003700640983879566,-0.014415127225220203
1761476475506612200,9.3996123046875,-0.023501798510551453,-0.00007340824231505394,-0.00933569110929966
1761476475516645400,9.409645263671875,-0.01789744198322296,0.005212966352701187,0.0029260357841849327
1761476475526678300,9.41967822265625,-0.007730074226856232,0.007531346287578344,0.010615885257720947
1761476475536711400,9.42971142578125,0.000005343928933143616,0.005562204867601395,0.010620146989822388
1761476475546744300,9.439744384765625,-0.0016601178795099258,0.00667170062661171,0.003473229706287384
1761476475556777500,9.449777587890624,-0.010797157883644104,0.003754473989829421,-0.006973551586270332
1761476475566810400,9.459810302734375,-0.012451153248548508,-0.0006137075833976269,-0.00797710195183754
1761476475576843300,9.46984326171875,-0.014677555300295353,-0.004269162192940712,-0.0014116112142801285
1761476475586876400,9.47987646484375,-0.011871583759784698,-0.00750322500243783,0.0073462072759866714
1761476475596909300,9.489909423828125,-0.008173785172402859,-0.006037421058863401,0.013059219345450401
1761476475606942500,9.4999423828125,-0.004172794986516237,-0.0071792216040194035,0.008722306229174137
1761476475616975400,9.509975341796874,0.0011295592412352562,-0.018439864739775658,-0.00029302574694156647
1761476475627008500,9.520008544921875,0.0020396970212459564,-0.023526690900325775,-0.007324537727981806
1761476475637041400,9.53004150390625,0.004787812940776348,-0.02337648719549179,-0.01440428476780653
1761476475647074600,9.540074462890624,0.006431576795876026,-0.015905171632766724,-0.014855409041047096
1761476475657111600,9.550111572265624,0.0071932412683963776,-0.006066124886274338,-0.014676711522042751
1761476475667144400,9.56014453125,0.0065083932131528854,0.006855539046227932,-0.014360880479216576
1761476475677177600,9.570177490234375,0.011582246981561184,0.016702577471733093,-0.01219493243843317
1761476475687210500,9.58021044921875,0.015168317593634129,0.020232226699590683,-0.013644712045788765
1761476475697243600,9.59024365234375,0.018067169934511185,0.02352549135684967,-0.0056107547134160995
1761476475707276500,9.600276611328125,0.02582872472703457,0.01613003760576248,0.004658498801290989
1761476475717309700,9.610309814453124,0.0323990061879158,-0.001355478074401617,0.020126137882471085
1761476475727342600,9.620342529296876,0.03525138646364212,-0.004126949235796928,0.030979085713624954
1761476475737375700,9.630375732421875,0.04307655245065689,-0.00017348723486065865,0.03276047483086586
1761476475747408600,9.64040869140625,0.05186203494668007,0.005070578306913376,0.023182563483715057
1761476475757441500,9.650441650390626,0.06038973852992058,0.014088841155171394,0.007297605276107788
1761476475767474700,9.660474609375,0.06581138074398041,0.021069180220365524,-0.009918716736137867
1761476475777507600,9.670507568359374,0.06768118590116501,0.018615344539284706,-0.018186500295996666
1761476475787540700,9.680540771484376,0.07604660093784332,0.013876242563128471,-0.017750520259141922
1761476475797573600,9.69057373046875,0.08306482434272766,0.004839603789150715,-0.007529841735959053
1761476475807606800,9.700606689453124,0.0879843533039093,0.002426592167466879,-0.0011494085192680359
1761476475817639700,9.7106396484375,0.09453919529914856,-0.003295209724456072,0.0015627546235918999
1761476475827673600,9.720673583984375,0.10452543199062347,-0.01244223304092884,-0.004581832326948643
1761476475837706500,9.73070654296875,0.11004003882408142,-0.014596464112401009,-0.016251005232334137
1761476475847739600,9.74073974609375,0.11417761445045471,-0.009792203083634377,-0.01745394431054592
1761476475857772500,9.7507724609375,0.11250541359186172,-0.0015894011594355106,-0.017067253589630127
1761476475867805700,9.7608056640625,0.11242800951004028,0.008114027790725231,-0.006593911908566952
1761476475877838600,9.770838623046876,0.11335292458534241,0.016848929226398468,-0.00218904297798872
1761476475887871700,9.780871826171875,0.11389069259166718,0.018188469111919403,0.00032691843807697296
1761476475897904600,9.790904541015625,0.11156122386455536,0.015901612117886543,-0.0032374560832977295
1761476475907937500,9.8009375,0.11287608742713928,0.017828093841671944,-0.008644047193229198
1761476475917970700,9.810970703125,0.11032450944185257,0.011602422222495079,-0.01560475118458271
1761476475928003600,9.821003662109375,0.1087331771850586,0.015887513756752014,-0.016666749492287636
1761476475938036700,9.83103662109375,0.11254415661096573,0.022508930414915085,-0.012934595346450806
1761476475948069600,9.841069580078125,0.10989803820848465,0.02419082261621952,-0.008831528946757317
1761476475958102800,9.851102783203125,0.10899362713098526,0.021135112270712852,-0.006142269354313612
1761476475968135700,9.8611357421875,0.10918610543012619,0.020274143666028976,-0.008156759664416313
1761476475978168800,9.8711689453125,0.11028439551591873,0.0172828808426857,-0.013096657581627369
1761476475988201700,9.88120166015625,0.10647103190422058,0.012788602150976658,-0.012206841260194778
1761476475998234600,9.891234619140626,0.10450082272291183,0.003576461458578706,-0.01462099701166153
1761476476008267500,9.901267578125,0.10685427486896515,0.003518956247717142,-0.011227414011955261
1761476476018301700,9.9113017578125,0.10456714779138565,0.008821575902402401,-0.016059719026088715
1761476476028334600,9.92133447265625,0.10340390354394913,0.01486691739410162,-0.015663055703043938
1761476476038367500,9.931367431640625,0.09591110050678253,0.01711702160537243,-0.01465211994946003
1761476476048400600,9.941400634765625,0.08872678875923157,0.021509574726223946,-0.006921832915395498
1761476476058433500,9.95143359375,0.08781944960355759,0.022427033632993698,-0.0023342715576291084
1761476476068466700,9.961466796875,0.08246689289808273,0.029313087463378906,-0.0036680176854133606
1761476476078499600,9.97149951171875,0.07665321230888367,0.029894456267356873,-0.010175717994570732
1761476476088532700,9.98153271484375,0.07497785985469818,0.026528634130954742,-0.02114730328321457
1761476476098565600,9.991565673828125,0.07414855062961578,0.022142674773931503,-0.028986051678657532
1761476476108598800,10.001598876953125,0.0730828270316124,0.020162371918559074,-0.025537580251693726
1761476476118631700,10.011631591796874,0.07187987864017487,0.027521219104528427,-0.016975516453385353
1761476476128664800,10.021664794921875,0.07052459567785263,0.035028934478759766,-0.008060850203037262
1761476476138697700,10.03169775390625,0.0746394470334053,0.027557438239455223,-0.001677253283560276
1761476476148730600,10.041730712890624,0.08087965101003647,0.03897690400481224,0.0062565188854932785
1761476476158763500,10.051763427734375,0.07825803011655807,0.05286022648215294,-0.002431245520710945
1761476476168796400,10.06179638671875,0.0661734864115715,0.03643973171710968,-0.006830843165516853
1761476476178829600,10.07182958984375,0.06133611872792244,0.026183899492025375,-0.005785019602626562
1761476476188862500,10.081862548828125,0.06222458928823471,0.02893056347966194,-0.0018964316695928574
1761476476198895600,10.0918955078125,0.059477537870407104,0.022744838148355484,-0.00112970732152462
1761476476208928500,10.101928466796876,0.057746656239032745,0.018871232867240906,0.004755222238600254
1761476476218961700,10.111961669921875,0.05349278450012207,0.013349700719118118,-0.0000014500692486763
1761476476228994600,10.12199462890625,0.04657800495624542,0.006618510000407696,-0.005906103178858757
1761476476239027700,10.13202783203125,0.05133041739463806,-0.002963010687381029,-0.014882820658385754
1761476476249061600,10.1420615234375,0.05212502181529999,-0.0018464159220457077,-0.026550129055976868
1761476476259094800,10.1520947265625,0.05272742733359337,0.007743626832962036,-0.027489159256219864
1761476476269127700,10.162127685546874,0.04464125633239746,0.01632276177406311,-0.02164364606142044
1761476476279160800,10.172160888671876,0.04191844165325165,0.026046495884656906,-0.015117304399609566
1761476476289193700,10.18219384765625,0.0346628837287426,0.027900872752070427,-0.008474882692098618
1761476476299226600,10.1922265625,0.03105829656124115,0.03316114842891693,-0.001141069456934929
1761476476309259800,10.202259765625,0.02434328943490982,0.034908439964056015,0.0013117194175720215
1761476476319292700,10.212292724609375,0.02126334235072136,0.026379134505987167,-0.00025954563170671463
1761476476329325600,10.22232568359375,0.015917297452688217,0.02242826111614704,0.0008038002997636795
1761476476339358500,10.2323583984375,0.012298326008021832,0.0143588837236166,0.003389463759958744
1761476476349391600,10.2423916015625,0.0073272110894322395,0.014870953746140003,0.0024402234703302383
1761476476359424500,10.252424560546874,0.008643080480396748,0.020875316113233566,0.007444835267961025
1761476476369457700,10.262457763671875,0.009599568322300911,0.02193301171064377,0.0035569770261645317
1761476476379490600,10.272490478515625,0.007952669635415077,0.017459169030189514,-0.002880682237446308
1761476476389523700,10.282523681640624,0.0030518444254994392,0.012753501534461975,-0.004802826326340437
1761476476399556600,10.292556640625,0.005079574882984161,0.007047146558761597,-0.0028355494141578674
1761476476409589500,10.302589599609375,0.0004128590226173401,0.005479021929204464,0.003664073534309864
1761476476419622700,10.31262255859375,-0.0030974536202847958,0.0030598065350204706,0.006382628343999386
1761476476429655600,10.322655517578125,-0.007541718892753124,-0.0026126522570848465,0.005995192565023899
1761476476439688700,10.332688720703125,-0.007831204682588577,-0.005755182355642319,-0.00010797381401062012
1761476476449721600,10.3427216796875,-0.008881797082722187,-0.0039160968735814095,-0.012648286297917366
1761476476459754800,10.352754638671875,-0.013716766610741615,-0.004654324613511562,-0.022868167608976364
1761476476469787600,10.36278759765625,-0.01686474308371544,-0.006713856477290392,-0.02916858159005642
1761476476479820800,10.37282080078125,-0.01746927946805954,-0.0044182115234434605,-0.02971319854259491
1761476476489853700,10.382853759765625,-0.016333475708961487,-0.0002811388112604618,-0.01735251024365425
1761476476499886600,10.392886474609375,-0.021422777324914932,0.006767183542251587,-0.011069049127399921
1761476476509919700,10.402919677734374,-0.026240069419145584,0.006105958018451929,-0.0018410738557577133
1761476476519952600,10.41295263671875,-0.030978631228208542,0.005628985818475485,-0.0028296392410993576
1761476476529986600,10.422986572265625,-0.0328608974814415,0.006400825455784798,0.00020432285964488983
1761476476540019500,10.43301953125,-0.0367102287709713,0.0023120741825550795,-0.002797326073050499
1761476476550052600,10.443052490234376,-0.042686574161052704,-0.0032334732823073864,-0.00854826346039772
1761476476560085500,10.45308544921875,-0.0448213629424572,-0.006159487646073103,-0.012554722838103771
1761476476570118700,10.46311865234375,-0.046083834022283554,-0.005621079355478287,-0.013607239350676537
1761476476580151600,10.473151611328126,-0.049521975219249725,-0.007679169997572899,-0.010895875282585621
1761476476590184700,10.483184814453125,-0.05992560833692551,-0.006368489470332861,-0.005016477778553963
1761476476600217600,10.493217529296874,-0.06539414077997208,-0.007762387860566378,0.004247860051691532
1761476476610250800,10.503250732421876,-0.07371843606233597,-0.007812676951289177,0.011407872661948204
1761476476620283600,10.51328369140625,-0.07787109911441803,-0.011494496837258339,0.014318974688649178
1761476476630316800,10.52331689453125,-0.08145003765821457,-0.014393677935004234,0.01105146948248148
1761476476640349700,10.533349609375,-0.08685571700334549,-0.009704915806651115,0.010134010575711727
1761476476650379000,10.54337890625,-0.09039409458637238,-0.0037213610485196114,0.009056378155946732
1761476476660412000,10.553411865234375,-0.09596356749534607,-0.0063280630856752396,0.004888530820608139
1761476476670445000,10.563445068359375,-0.095819853246212,-0.009440943598747253,-0.0015675639733672142
1761476476680478000,10.57347802734375,-0.09307626634836197,-0.013202657923102379,-0.00990379136055708
1761476476690511000,10.583510986328125,-0.09702684730291367,-0.013200773857533932,-0.024067312479019165
1761476476700544000,10.5935439453125,-0.09428299218416214,-0.018187809735536575,-0.027274824678897858
1761476476710577000,10.603576904296874,-0.10250180214643478,-0.018238989636301994,-0.022222992032766342
1761476476720609800,10.61360986328125,-0.10378304868936539,-0.013363806530833244,-0.01161455549299717
1761476476730643000,10.623642822265625,-0.10478688776493073,-0.011645839549601078,0.001426289789378643
1761476476740675800,10.63367578125,-0.10090267658233643,-0.015274395234882832,0.00887355301529169
1761476476750708700,10.643708740234375,-0.0978425070643425,-0.02151617407798767,0.005123947747051716
1761476476760742000,10.653741943359375,-0.0935705304145813,-0.0260763056576252,-0.0038216104730963707
1761476476770774800,10.66377490234375,-0.10064312070608139,-0.018428385257720947,-0.008118994534015656
1761476476780808000,10.673807861328125,-0.10505411773920059,-0.015541784465312958,-0.0071027325466275215
1761476476790840800,10.6838408203125,-0.11029554903507233,-0.02111194096505642,0.001322699710726738
1761476476800874000,10.6938740234375,-0.10643822699785233,-0.02784734219312668,0.003138442523777485
1761476476810907000,10.703906982421875,-0.10453429818153381,-0.03296329453587532,0.0034881485626101494
1761476476820940000,10.71393994140625,-0.10770239681005478,-0.0384744368493557,0.004726252518594265
1761476476830973000,10.723972900390624,-0.11073362082242966,-0.0429622083902359,0.000355415977537632
1761476476841005800,10.734005859375,-0.10779482126235962,-0.041945941746234894,-0.005444149952381849
1761476476851039000,10.7440390625,-0.10113339126110077,-0.03450048714876175,-0.010055591352283955
1761476476861072000,10.75407177734375,-0.10328469425439835,-0.024011364206671715,-0.00806993804872036
1761476476871105000,10.76410498046875,-0.10420778393745422,-0.015708573162555695,0.00005605723708868027
1761476476881138700,10.774138671875,-0.10789945721626282,-0.00966852530837059,0.007612776011228561
1761476476891171800,10.784171875,-0.10913707315921783,-0.011704493314027786,0.006212451495230198
1761476476901204700,10.794204833984375,-0.10503207892179489,-0.019041500985622406,0.0017114439979195595
1761476476911238000,10.80423779296875,-0.10329391807317734,-0.01279714796692133,0.004976682364940643
1761476476921270800,10.814270751953124,-0.10639916360378265,0.03222758322954178,0.0825689435005188
1761476476931304000,10.824303955078125,-0.11064201593399048,0.0047050826251506805,0.11632844060659409
1761476476941336800,10.8343369140625,-0.09661328047513962,-0.04051566123962402,0.09546416997909546
1761476476951370000,10.844369873046874,-0.07869701087474823,-0.04820862412452698,0.04093797877430916
1761476476961403000,10.85440283203125,-0.07116799056529999,-0.0260282214730978,-0.014500509947538376
1761476476971436000,10.86443603515625,-0.06067970395088196,-0.02712249383330345,-0.04732746630907059
1761476476981469000,10.874468994140624,-0.04889867827296257,-0.027784287929534912,-0.08315736800432205
1761476476991501800,10.884501708984375,-0.05253667011857033,-0.01059173047542572,-0.0973978042602539
1761476477001535000,10.894534912109375,-0.07018730044364929,-0.007614582311362028,-0.08735103160142899
1761476477011567900,10.90456787109375,-0.07575254887342453,-0.019887207075953484,-0.05291905254125595
1761476477021601000,10.91460107421875,-0.060564011335372925,-0.029896430671215057,-0.00941099040210247
