time,seconds_elapsed,z,y,x
1761476506296870000,0.109869873046875,0.20505729316473006,0.2751570854323916,0.04335004303529858
1761476506306903000,0.119903076171875,0.2102005012720823,0.21581912660514935,-0.010000365814939141
1761476506316936000,0.12993603515625,0.25285306356251236,0.21515911006014793,0.006201192727684974
1761476506326969000,0.139968994140625,0.30838673473596573,0.22237609223425386,0.03478168278485536
1761476506337003000,0.1500029296875,0.3998842842161655,0.19125137932067734,0.020378625031560658
1761476506347036200,0.1600361328125,0.5134890360862017,0.11257274194117635,-0.010469444631412625
1761476506357069000,0.170069091796875,0.6129220547407865,0.029139037255384026,-0.03999247623570263
1761476506367102200,0.180102294921875,0.5191846173793078,-0.06875766607685946,-0.08618029998019337
1761476506377135000,0.190135009765625,0.44453415780365463,-0.1507891849476844,-0.21736074829027055
1761476506387168300,0.200168212890625,0.3226742032855749,-0.13116037363642827,-0.3138009418044239
1761476506397201200,0.210201171875,0.165476393404603,-0.11060818213624879,-0.2938986290477216
1761476506407234300,0.220234375,-0.05352408491671085,-0.10266452965540811,-0.256232696063444
1761476506417267200,0.23026708984375,-0.09362930081188678,-0.12054306323323398,-0.16601766067445278
1761476506427300000,0.240300048828125,-0.17243337293565272,-0.1518427673875354,-0.04147117048613727
1761476506437333000,0.2503330078125,-0.26382863108515736,-0.17039454231811688,0.02476787296645343
1761476506447366000,0.260365966796875,-0.09875029708743095,-0.1848144964072853,-0.023606866363063455
1761476506457399000,0.27039892578125,0.0008639233529567718,-0.21097700206991285,-0.11275704899951815
1761476506467432000,0.280431884765625,0.02786123587191105,-0.3042749337692745,-0.20115363678969442
1761476506477465000,0.290465087890625,0.06993102983832358,-0.41607181423343714,-0.2530197253663093
1761476506487498000,0.300498046875,0.1166249764740467,-0.49649581570923323,-0.22761662323623894
1761476506497532200,0.3105322265625,-0.055223874571919435,-0.5543356449332087,-0.0817120685249567
1761476506507565000,0.32056494140625,-0.2998001081764698,-0.5725862814927474,0.028420257994160054
1761476506517598200,0.33059814453125,-0.3651362114399671,-0.6032163610234856,0.03746427293233573
1761476506527631000,0.340631103515625,-0.3302121975749731,-0.6073121424371376,-0.03842829565890133
1761476506537664300,0.350664306640625,-0.3094721918851137,-0.5871613348120823,-0.062036623326689
1761476506547697200,0.360697265625,-0.3101508217990398,-0.5268261451084166,-0.00440137676410377
1761476506557730300,0.370730224609375,-0.23754735788106918,-0.4872494465993717,0.0013349018655717372
1761476506567763200,0.38076318359375,-0.18614801003336906,-0.5304091912269592,-0.06832059896700084
1761476506577796000,0.390796142578125,-0.1697761364251375,-0.6011231516038998,-0.0754553462177515
1761476506587829000,0.4008291015625,-0.16158406214118004,-0.6065842300213873,-0.026883549946174024
1761476506597862000,0.41086181640625,-0.31322657598257064,-0.5826316920258104,0.015714140351861715
1761476506607895000,0.42089501953125,-0.286951732519269,-0.5374821983531117,0.044917730743438
1761476506617928000,0.430927978515625,-0.1627186191290617,-0.4743848869923502,0.05769347955584526
1761476506627961000,0.440961181640625,-0.11544131964743137,-0.4219524697698652,0.04968173027485609
1761476506637995000,0.4509951171875,-0.07157236730456353,-0.420008459562622,0.06526859098523854
1761476506648028200,0.461028076171875,-0.0052495910912752144,-0.4133959826203063,0.06954378408640623
1761476506658061000,0.47106103515625,0.0656213499456644,-0.3739090447539463,0.03675846275053918
1761476506668094200,0.48109423828125,0.02184533658325672,-0.3357892670549452,0.018636676735058425
1761476506678130400,0.49113037109375,-0.008609422913193701,-0.3608633564263582,0.047893458618596195
1761476506688163300,0.501163330078125,-0.028409517404437062,-0.3633771658781916,0.10746091535277665
1761476506698196500,0.511196533203125,-0.0017927286356687546,-0.32400727852024136,0.15742475050464272
1761476506708229400,0.5212294921875,0.05448153177201748,-0.24085805333163587,0.19355390237569808
1761476506718262500,0.531262451171875,0.16405600521266459,-0.16468840309837832,0.18914850702360272
1761476506728295400,0.54129541015625,0.21047405751645565,-0.1028976625578478,0.18126754451543092
1761476506738328300,0.551328369140625,0.139133160880208,-0.04957384945359081,0.20144348658174274
1761476506748361500,0.561361572265625,0.0011719663888216018,-0.031183676559198646,0.20444332598485052
1761476506758394400,0.571394287109375,-0.0638221915692091,-0.02623800031794235,0.20013722628876565
1761476506768427300,0.58142724609375,-0.15020342094898223,0.010883322661928832,0.21430435639433562
1761476506778461200,0.591461181640625,-0.27124562934339047,0.037547475970070805,0.2341587383560836
1761476506788494300,0.601494384765625,-0.21666472885012625,0.028913083012402054,0.21089454795084892
1761476506798527200,0.61152734375,-0.20835575018823146,0.02740711716255173,0.1658485146526247
1761476506808560400,0.621560302734375,-0.20967033991813658,0.0343410994105041,0.14836056956127286
1761476506818593300,0.63159326171875,-0.33906361255049705,0.049281551976129406,0.15536781797483562
1761476506828626400,0.64162646484375,-0.28606968898773194,0.05010841298801824,0.17285021010823548
1761476506838659300,0.651659423828125,-0.2027408329159021,0.07403669332517311,0.17933474982194603
1761476506848692500,0.6616923828125,-0.23389234250485896,0.08321339473230764,0.1425222187966108
1761476506858725400,0.671725341796875,-0.23207564847171305,0.05554612879622727,0.07764050823710858
1761476506868758500,0.681758544921875,-0.17981646892428396,0.05388904577158391,0.0410102749761194
1761476506878791400,0.69179150390625,-0.23404081106483934,0.08938150717429816,0.034187735479697584
1761476506888824300,0.70182421875,-0.2487906364291906,0.12331621774099767,0.033029505355283616
1761476506898857500,0.711857421875,-0.22590601992607115,0.13123754879217595,0.024455592146888375
1761476506908891400,0.721891357421875,-0.22684067042768,0.14047860240610316,0.05681830415651202
1761476506918924300,0.73192431640625,-0.12305939343571662,0.16176089827911927,0.03401077147759497
1761476506928957200,0.741957275390625,-0.006810264536738395,0.17972360300906,-0.02681676832027733
1761476506938990300,0.751990234375,0.08961188186407089,0.21134305890332905,-0.08735277782566844
1761476506949023200,0.762023193359375,0.07112696162462234,0.24760953688584267,-0.13414675076976418
1761476506959056400,0.772056396484375,0.1207774199783802,0.2579750462187454,-0.15048282241225241
1761476506969089300,0.78208935546875,0.13891688778102398,0.24059512807913122,-0.11418204030133783
1761476506979122400,0.792122314453125,0.027016017219424246,0.22328769065383822,-0.06437441862449049
1761476506989155300,0.8021552734375,-0.011378303104639052,0.21893420815207063,0.003900806830823421
1761476506999188500,0.8121884765625,0.03957680810689926,0.25103476209416986,0.00922609350681305
1761476507009221400,0.822221435546875,0.04850070379674434,0.30286632734667507,-0.019313772279024123
1761476507019254500,0.832254638671875,-0.023373276802897452,0.33041097155008464,-0.0379008377186954
1761476507029288200,0.8422880859375,0.005489829587936401,0.3311777546714991,-0.05234444667808711
1761476507039321300,0.8523212890625,0.05348375290632248,0.35559864083118736,-0.08392696809545158
1761476507049354200,0.862354248046875,0.0487900421321392,0.39049744718968865,-0.10020210333094
1761476507059387400,0.872387451171875,0.08208850062191486,0.4185800707273185,-0.09076470516100525
1761476507069420300,0.882420166015625,0.0048895256072282785,0.41756285650879144,-0.04117613306231797
1761476507079453200,0.892453125,-0.052148704910278315,0.4098067259566858,-0.0003389496307820081
1761476507089486300,0.902486328125,-0.08467150285243988,0.4144153887959197,0.03984999902509152
1761476507099519200,0.912519287109375,-0.09592062661945819,0.43015806112252175,0.06491605122052133
1761476507109552400,0.922552490234375,-0.08602700911462306,0.43117918433118607,0.08132058498933911
1761476507119585300,0.932585205078125,-0.06727963854670524,0.4407106905253604,0.10001337582580745
1761476507129618400,0.942618408203125,-0.004095744881033897,0.47259654227085407,0.10593655532971023
1761476507139652400,0.95265234375,0.0354226110368967,0.48722672331091016,0.08016089356020092
1761476507149685500,0.962685546875,0.08300736903250217,0.48093657365813847,0.05329407555311918
1761476507159718400,0.972718505859375,0.1034755720436573,0.47260304507687684,0.04185827010758221
1761476507169751300,0.982751220703125,0.10801146190762519,0.4534172830916941,0.046651349603012204
1761476507179784200,0.9927841796875,0.1086865846902132,0.45166685922779143,0.06108356038555503
1761476507189817300,1.0028173828125,0.09977554848194121,0.4391036206549033,0.06816738116666675
1761476507199850200,1.012850341796875,0.08549626323878765,0.45029805509261783,0.08762143869921564
1761476507209883100,1.022883056640625,0.04959551329612732,0.46909605986922975,0.10140512244515121
1761476507219916300,1.032916259765625,-0.031525603598356246,0.4616423828624189,0.11794226961769162
1761476507229949200,1.04294921875,-0.012827332869172096,0.4604531730778515,0.10873027770146727
1761476507239982300,1.052982421875,-0.00218026664853096,0.47630591818280515,0.10813048517741262
1761476507250016300,1.063016357421875,-0.03450315810441971,0.4930553563991561,0.0840087280947715
1761476507260049400,1.07304931640625,0.049693128451704975,0.47112939232774076,0.07076207383498549
1761476507270082300,1.083082275390625,0.11741115841567516,0.4410611844634637,0.07824833793714642
1761476507280115500,1.093115478515625,0.13446926072239876,0.40832123663928355,0.08197751452811061
1761476507290148400,1.1031484375,0.1589051983207464,0.3707661801509559,0.06906016528792679
1761476507300181500,1.113181396484375,0.1392512343019247,0.3481529644677415,0.03625686990395188
1761476507310214400,1.12321435546875,0.03971709336042404,0.3301607596486807,0.038749052045866844
1761476507320247300,1.133247314453125,-0.04119710278511047,0.31300745333917435,0.07499547362104057
1761476507330280200,1.1432802734375,0.013079261803627014,0.3144407010126859,0.11262626222670077
1761476507340313300,1.153313232421875,0.03215396462976932,0.3356906289860606,0.1450024182397872
1761476507350346200,1.16334619140625,0.04033259491026401,0.35876137917842715,0.1607400125324726
1761476507360380400,1.17338037109375,0.03601882336437702,0.341920390221104,0.15490677633434533
1761476507370413300,1.183413330078125,0.01675531996786594,0.3284081438276917,0.15966471145115793
1761476507380446500,1.193446533203125,0.0410737686663866,0.31446572585608806,0.16553776820302007
1761476507390479400,1.203479248046875,0.09468494734466075,0.3034096404431388,0.1726149400476366
1761476507400512300,1.21351220703125,0.08938567189276218,0.26181009433697905,0.20147548915520308
1761476507410545400,1.22354541015625,0.017796937975287436,0.22293878588462246,0.20040997881554065
1761476507420578300,1.233578369140625,0.0016840075641870497,0.20266795034278182,0.1754765400238335
1761476507430611500,1.243611572265625,-0.011042203018069267,0.20501549984961748,0.1932867028068751
1761476507440644400,1.253644287109375,-0.11641279502809047,0.232322389774397,0.11569112969003617
1761476507450677500,1.263677490234375,-0.0891664761841297,0.27040654817074533,0.08769041228219866
1761476507460710400,1.27371044921875,-0.08548691088855266,0.25949230064759027,0.09206855430118739
1761476507470744300,1.283744384765625,-0.13915537271201608,0.22147348083872348,0.1606616135340184
1761476507480777200,1.293777099609375,-0.21117957543730734,0.1696176031288691,0.2303984359744936
1761476507490810400,1.303810302734375,-0.09830898306071757,0.15761935976129024,0.17564890091605484
1761476507500843300,1.31384326171875,-0.02612403681576252,0.16144805120397357,0.11042290696352719
1761476507510876400,1.32387646484375,0.06323708515763282,0.12203503709034993,0.10305807728394865
1761476507520909300,1.333909423828125,0.1507581322222948,0.08155549885691143,0.11185739674605429
1761476507530942500,1.3439423828125,0.15453355910778044,0.05951938894190825,0.1307208679743111
1761476507540975400,1.353975341796875,0.07358896782398223,0.04163703770549036,0.1391810186099261
1761476507551008300,1.36400830078125,0.04663374088108539,0.021726523376023394,0.14700235988534985
1761476507561041400,1.37404150390625,0.05902852755188941,-0.007841607745317742,0.15217223680391906
1761476507571074300,1.38407421875,-0.024549919366836547,-0.012746358321141451,0.1467048382434994
1761476507581107500,1.394107421875,-0.01011748938858509,-0.0065637241634540254,0.1444082517389208
1761476507591141000,1.40414111328125,-0.03167874833345413,0.0024206604088190943,0.18350114878639578
1761476507601174300,1.41417431640625,-0.05742284592092037,-0.01836132125924341,0.16505962929725645
1761476507611207200,1.424207275390625,0.03450082001686096,-0.07538182432381436,0.13890658558271823
1761476507621240300,1.434240234375,0.09032967474460601,-0.12360213114344515,0.13227109309099613
1761476507631273200,1.444273193359375,0.07201075872182845,-0.17656513897813855,0.15333404712490736
1761476507641306400,1.454306396484375,0.09308569545447826,-0.2458233841214329,0.1863503276724368
1761476507651339300,1.46433935546875,0.07680442273914813,-0.3044877362697385,0.21434870699271558
1761476507661372400,1.474372314453125,-0.03211187905371189,-0.30901969887726005,0.19328845637254416
1761476507671405300,1.4844052734375,-0.003858428993821144,-0.3317337445864454,0.14390176352150738
1761476507681435000,1.494434814453125,0.05062953251898288,-0.3439151807675138,0.1261315674226731
1761476507691469000,1.504468994140625,0.03753507314622402,-0.36254341846778987,0.1528495515435934
1761476507701502000,1.514501953125,0.05510054045319557,-0.38480442317985,0.16388364432044325
1761476507711535000,1.52453515625,0.02272328846156597,-0.4281712346868589,0.170685360224545
1761476507721567700,1.534567626953125,0.032035306686162945,-0.46381680429205296,0.16387195388264952
1761476507731601000,1.544600830078125,0.025094693768024444,-0.4799391966512426,0.14990633769854902
1761476507741633800,1.5546337890625,0.010419687205553054,-0.45790560748688874,0.1114888556946069
1761476507751667000,1.5646669921875,0.0103349315315485,-0.4864542411010712,0.07731463728360831
1761476507761699800,1.574699951171875,-0.004405541482567787,-0.5372286985160782,0.05026530231647193
1761476507771733000,1.58473291015625,-0.05464695146679878,-0.5689608210045844,0.01509761588871479
1761476507781766000,1.594765869140625,-0.08004384305179119,-0.570366742279753,-0.005635886995121836
1761476507791799000,1.604799072265625,-0.0640875645071268,-0.5526016607474535,0.009571692074090242
1761476507801832000,1.61483203125,-0.0881605140119791,-0.5334607242846862,0.049900487592071295
1761476507811866000,1.6248662109375,-0.11212591148912907,-0.5009586403369903,0.06641520373709499
1761476507821899000,1.63489892578125,-0.025433131942152975,-0.46507524338793005,0.06845248171836138
1761476507831932200,1.64493212890625,-0.01068038396835327,-0.47734344453699884,0.07496398250423371
1761476507841965000,1.654965087890625,-0.03499415649175644,-0.5207559218166395,0.08093085501939058
1761476507851998000,1.664998046875,-0.002946574845910072,-0.5375704246258363,0.0636541415259242
1761476507862031000,1.675031005859375,0.0462806896597147,-0.5308307776398956,0.03682422146312892
1761476507872064000,1.68506396484375,-0.021355507239699364,-0.5252140702692791,0.04542392669990659
1761476507882097000,1.695096923828125,0.020703765332698822,-0.5333692831415683,0.06177512284629046
1761476507892129800,1.7051298828125,0.06938683995902538,-0.5372388911165297,0.05563048261143267
1761476507902163000,1.715162841796875,0.056686932861804956,-0.5352469135817141,0.04753405072167515
1761476507912195800,1.72519580078125,0.01713233658671379,-0.5248284319525585,0.04531337899751961
1761476507922229000,1.73522900390625,0.04684650684893131,-0.5116930195149034,0.06858202638216317
1761476507932263000,1.745262939453125,0.07431260592341422,-0.5127006621874869,0.05750657868161797
1761476507942296000,1.755296142578125,0.07136369298994541,-0.5381242225836962,0.027635537357255813
1761476507952329000,1.765328857421875,0.11010872644782066,-0.5518733464729041,0.031585297896340486
1761476507962362000,1.775362060546875,0.045721302211284634,-0.5086564282979816,0.09025098348520695
1761476507972395000,1.78539501953125,0.013009119176864623,-0.48834224680475885,0.10975647894404827
1761476507982428000,1.795427978515625,0.01790565904676914,-0.45133828486055133,0.14934388151019812
1761476507992461000,1.8054609375,-0.04728022209107875,-0.43522414887305344,0.1304089524809271
1761476508002494000,1.815493896484375,-0.005697919380664825,-0.43466852428428826,0.09702661509998142
1761476508012527000,1.825527099609375,0.06937047334611415,-0.44008353507034476,0.051345937160030004
1761476508022560000,1.83556005859375,0.06907996596693992,-0.4414109477492049,0.05018076583817601
1761476508032593000,1.845593017578125,0.012709843969345092,-0.4469829026626423,0.060008478499948975
1761476508042625800,1.855625732421875,-0.03785129948854446,-0.45082149444483216,0.022927944188192485
1761476508052660000,1.865659912109375,0.015318565163016318,-0.4556964070048183,0.03673858900628984
1761476508062692900,1.87569287109375,-0.0375619611531496,-0.4576622637176886,0.04860007251799106
1761476508072726000,1.88572607421875,-0.08002806096076964,-0.45998358280472457,0.05123728915378451
1761476508082759000,1.895759033203125,-0.07397592131495476,-0.4813153438426554,0.058638797581940884
1761476508092792000,1.9057919921875,-0.05458382310271263,-0.45537345866076645,0.0668277300607413
1761476508102825000,1.915824951171875,-0.08220598952174187,-0.40711357788257296,0.03818666892275214
1761476508112858000,1.925858154296875,-0.08995674977898598,-0.39085206931363786,-0.013355740657448769
1761476508122891000,1.93589111328125,-0.037706338059902186,-0.38663236925937233,-0.014981515228375791
1761476508132924000,1.945923828125,-0.1333949094891548,-0.364223297846131,-0.014746537428721784
1761476508142957000,1.95595703125,-0.10187573563158511,-0.33668409700281915,0.0047145343665033574
1761476508152990000,1.965989990234375,-0.000030979660153388974,-0.3039099546480924,0.038550460733845826
1761476508163024000,1.97602392578125,0.012360299879312515,-0.2597497277410701,0.031877193515002726
1761476508173056800,1.986056884765625,0.03535129936635494,-0.21801729423655195,0.03131327602192759
1761476508183090000,1.99608984375,0.03694061438441276,-0.18699045220687985,0.048409372251480814
1761476508193122800,2.006122802734375,-0.0027039982616901396,-0.16003476860625668,0.02924794098995626
1761476508203156000,2.016156005859375,-0.02612228325009346,-0.11971032046983018,0.033352380634099246
1761476508213188900,2.02618896484375,-0.07234685880839824,-0.07859371730871498,0.05756773428432643
1761476508223222000,2.036221923828125,-0.0521364299505949,-0.03281783536598086,0.07487842311263083
1761476508233255000,2.0462548828125,-0.023876550149917602,0.02019062817879021,0.07403466576486825
1761476508243288000,2.0562880859375,0.041027591437101364,0.05849545272164978,0.0716876642473042
1761476508253321000,2.066321044921875,0.0826443809390068,0.053263990942109374,0.06175429925397038
1761476508263354000,2.07635400390625,0.12762334035038947,0.04431219346518628,0.05944244211502373
1761476508273387000,2.086386962890625,0.15740122349858282,0.034408182430500166,0.06626914632990956
1761476508283420000,2.096419921875,0.23145313265919684,0.04229411337473429,0.06615545682236552
1761476508293453800,2.106453857421875,0.2510562432736158,0.037299492558371276,0.08240326565951109
1761476508303487000,2.116487060546875,0.20208090770244597,0.011352693739347159,0.07689385458827018
1761476508313519900,2.126519775390625,0.19887538965940474,0.0018170228267088532,0.06020034781023859
1761476508323552800,2.136552734375,0.13223054188489913,0.03499471361418254,0.033198797507584095
1761476508333586000,2.1465859375,0.030827099940180777,0.06538624428184703,0.02972038080729544
1761476508343618800,2.156618896484375,-0.01952010850608349,0.08553914339928888,0.023639891849830744
1761476508353652000,2.16665185546875,0.021235680252313614,0.08629887572540901,0.008386062486097216
1761476508363684900,2.176684814453125,0.03657645724713802,0.10353964112265966,0.028999884513020515
1761476508373718000,2.186718017578125,0.004655716851353645,0.11008657854809425,0.060150882645323867
1761476508383751000,2.1967509765625,-0.0021381810724735257,0.07319785874770023,0.08369805471040308
1761476508393784000,2.2067841796875,0.035920039165019985,0.04346550437482074,0.09323328723162412
1761476508403817000,2.21681689453125,0.02847673742175102,0.030627960638888178,0.09323496773205697
1761476508413851100,2.22685107421875,0.008656184664368629,0.030107489561894907,0.114731417812407
1761476508423884000,2.236884033203125,-0.07993103032708168,0.02098036291752942,0.1280129972551018
1761476508433917000,2.2469169921875,-0.20983926674425601,0.03524514471129514,0.10802183717116713
1761476508443949800,2.25694970703125,-0.20091537105441093,0.07692494384627789,0.09657492580972611
1761476508453983000,2.26698291015625,-0.10265782591998576,0.13705731358737683,0.12099646955654024
1761476508464016000,2.277015869140625,-0.13050970944166182,0.178166107901372,0.14159969712421297
1761476508474048800,2.287048828125,-0.12857085033357143,0.17052816036883742,0.15768676244169472
1761476508484082000,2.29708203125,-0.023983517655730247,0.16765748203704134,0.1664249263010919
1761476508494114800,2.30711474609375,0.03485562480390072,0.1783881896868348,0.1446020938105881
1761476508504148000,2.31714794921875,0.08309972349107266,0.18612698551164938,0.12061039284840225
1761476508514180900,2.327180908203125,0.09361234967708587,0.1615737234102562,0.1198303483866155
1761476508524214000,2.337214111328125,0.07828793929517269,0.14215776026523672,0.11040661341585219
1761476508534247000,2.347246826171875,0.028217209702730176,0.14990665735895745,0.08668262347914278
1761476508544281000,2.357281005859375,0.015181787040829658,0.18172884188424795,0.0700438425630331
1761476508554314000,2.36731396484375,0.0172930801063776,0.22149174714777617,0.07444828806705772
1761476508564347100,2.37734716796875,-0.047988662621378894,0.2768195570182055,0.07792933511584997
1761476508574380000,2.387380126953125,-0.10571136827170849,0.31084570872802286,0.07175510346032679
1761476508584413000,2.397412841796875,-0.07938859401345252,0.3247550281476229,0.060207362072914834
1761476508594445800,2.40744580078125,-0.023352234014868734,0.3505402249304578,0.03220357592515647
1761476508604478700,2.417478759765625,0.05044716168940067,0.3706847489451989,0.027254721346125006
1761476508614511900,2.427511962890625,0.08679740896522999,0.3688938469404354,0.01652311864718795
1761476508624544800,2.437544677734375,0.10784019699394702,0.3499391172321513,-0.012229147780314087
1761476508634578000,2.447577880859375,0.11091010595858096,0.3366115432232618,0.002836465534940362
1761476508644610800,2.45761083984375,0.0057172086030244824,0.35309133418537675,0.007836684975028037
1761476508654644000,2.46764404296875,-0.08905892415642738,0.37936460674609984,-0.0016435294233262537
1761476508664676900,2.4776767578125,-0.14066343918740748,0.38552619811575856,0.009834653859212995
1761476508674711000,2.4877109375,-0.1730745934486389,0.4082590946558863,-0.008624182090908289
1761476508684743000,2.497742919921875,-0.16290858874320982,0.4226947029719129,-0.05350706071667373
1761476508694776000,2.507776123046875,-0.062303603699803346,0.44152989795375613,-0.0897814662773162
1761476508704809000,2.51780908203125,0.01397825646996498,0.46386042423807083,-0.12180785900466143
1761476508714841900,2.527841796875,0.09378595267832279,0.4480255435833707,-0.08948920533247291
1761476508724875000,2.537875,0.09673135848045349,0.4232124067030847,-0.05723959830850362
1761476508734908000,2.547907958984375,0.06167232005894184,0.42789994346480814,-0.06082914723306894
1761476508744941000,2.557941162109375,-0.03131459119617939,0.46766080290172246,-0.0800331755273044
1761476508754974000,2.567973876953125,-0.0708060591071844,0.5059473154697567,-0.06389204193502664
1761476508765007000,2.578007080078125,-0.12498831567168235,0.5409069121047854,-0.07246142509877682
1761476508775040000,2.5880400390625,-0.1673188064008951,0.5522827675240114,-0.08807758496887981
1761476508785073200,2.5980732421875,-0.19043606261610985,0.5487941582232714,-0.09743051972575485
1761476508795106000,2.60810595703125,-0.2022457428753376,0.5490614308573305,-0.10860782036557792
1761476508805139000,2.618138916015625,-0.21703356216251848,0.533260708200559,-0.11444880147874355
1761476508815172900,2.6281728515625,-0.2261480119884014,0.48369431140106167,-0.10636172193922101
1761476508825206000,2.6382060546875,-0.24678046565055844,0.4564770359884947,-0.1019930784009397
1761476508835239000,2.648239013671875,-0.24233809928894043,0.44825189968515183,-0.046101825961470604
1761476508845272000,2.65827197265625,-0.26811142297089097,0.47467499251272527,-0.037200215168669816
1761476508855305000,2.668304931640625,-0.21135551652610302,0.4990162375649437,-0.07434044377841055
1761476508865337900,2.678337890625,-0.13201719139516352,0.5080647460151464,-0.060322512885183095
1761476508875371000,2.68837109375,-0.08011632376611233,0.4977590040454641,-0.042749300663173194
1761476508885404000,2.69840380859375,-0.03863455882072449,0.43926648306641725,-0.03149922704808414
1761476508895437000,2.70843701171875,0.018581950873136518,0.37181072076782584,-0.0145960961073637
1761476508905470000,2.718469970703125,0.062083238947391504,0.33054121033363043,-0.018269085531681776
1761476508915503000,2.728503173828125,0.12001403439044951,0.26545667067840695,-0.03840506091378629
1761476508925536000,2.738535888671875,0.1579869144320488,0.17667621640348805,0.004790595277398824
1761476508935569200,2.748569091796875,0.12069792500138282,0.09639219878711737,0.05874072358645498
1761476508945602000,2.75860205078125,0.15721651458144187,0.04217928222287446,0.07651186953336
1761476508955636000,2.768635986328125,0.20124387235641478,-0.005099679492879658,0.06034925476163625
1761476508965668900,2.7786689453125,0.21058803928494452,-0.07898634248864836,0.05366254353933036
1761476508975702000,2.788701904296875,0.19387597393691539,-0.16094388280780986,0.03876271524503827
1761476508985735000,2.79873486328125,0.1896796912908554,-0.2384328172123991,0.04356288206838071
1761476508995768000,2.80876806640625,0.1501835472047329,-0.3017029461231083,0.04983392516188323
1761476509005801000,2.818801025390625,0.10807692835927009,-0.371723115549609,0.031288360776379705
1761476509015833900,2.828833740234375,0.09393500576019287,-0.4305054497880861,0.014893252423033118
1761476509025867000,2.838866943359375,0.060437225306034084,-0.482475181402266,0.013916589410603046
1761476509035900000,2.84889990234375,0.016853519645333288,-0.539081048384495,0.04855871759429574
1761476509045933000,2.85893310546875,-0.0019008651852607725,-0.5824771590512245,0.0590622106257826
1761476509055966000,2.868966064453125,-0.007179682371020317,-0.6104466410705819,0.041123891418427226
1761476509065999000,2.8789990234375,-0.018589549657702445,-0.6141491123177111,0.04941401924937963
1761476509076032000,2.889031982421875,-0.028113749328255652,-0.6387884635336697,0.04132482081800699
1761476509086066000,2.89906591796875,-0.020085341173410414,-0.670381652475521,0.005469371321797371
1761476509096098800,2.909098876953125,0.06058803195357322,-0.6686610392279922,-0.019348843592405317
1761476509106132000,2.919132080078125,0.09130524177849292,-0.6487843723692,-0.015086363842338323
1761476509116164900,2.929164794921875,0.0793371560871601,-0.6349510042626411,0.017558306913822888
1761476509126198000,2.939197998046875,0.06468728396594524,-0.6036969841472805,0.037438042512536046
1761476509136231000,2.94923095703125,0.120742348664999,-0.584997544374317,0.04941021985709667
1761476509146263800,2.959263916015625,0.15806407132148742,-0.5565793322067707,0.10380465786755085
1761476509156297000,2.969296875,0.16662147178649903,-0.5593958874648437,0.14699147316515446
1761476509166329900,2.979329833984375,0.2314244910866022,-0.5864177864357829,0.1944100808136165
1761476509176363000,2.989363037109375,0.22737726152241228,-0.6231803408395499,0.22483064577952025
1761476509186396000,2.99939599609375,0.20471768594682216,-0.6275730959057808,0.25499066011309623
1761476509196429000,3.009428955078125,0.19152736498415468,-0.595402326271683,0.28450550841093064
1761476509206462000,3.0194619140625,0.139416653996706,-0.5552736564356834,0.31886955030560493
1761476509216495000,3.0294951171875,0.0865261908084154,-0.5125016690166667,0.3469720475874841
1761476509226528000,3.039528076171875,-0.014693126741051672,-0.4800346563823521,0.3668750179313123
1761476509236562000,3.04956201171875,-0.05051379718482494,-0.44369215402156115,0.37499504989236593
1761476509246594800,3.0595947265625,-0.09052081340253353,-0.3997073932792991,0.33923853072598575
1761476509256628000,3.0696279296875,-0.09227963976860046,-0.359325552399829,0.33665012166798114
1761476509266660900,3.079660888671875,-0.15385434467196463,-0.317111089265719,0.3649557403065264
1761476509276694000,3.089694091796875,-0.20386779111921785,-0.27215989464409646,0.3581973520874977
1761476509286727000,3.099726806640625,-0.147712188655138,-0.1864324529979378,0.3087006229907274
1761476509296759800,3.109759765625,-0.19320260471999645,-0.14958464972982183,0.2737858153454959
1761476509306793000,3.11979296875,-0.22541969771385192,-0.11967999839680268,0.27832039003521203
1761476509316825900,3.129825927734375,-0.26356033553779123,-0.05940197310731746,0.262512580050528
1761476509326859000,3.13985888671875,-0.24081249715685843,0.024322942210547625,0.21616525489538907
1761476509336892000,3.149891845703125,-0.16185001960098744,0.1159228195540607,0.1506993877723813
1761476509346925000,3.159925048828125,-0.1207598843216896,0.1647283880488947,0.10046879144310951
1761476509356959000,3.169958984375,-0.05954992107748985,0.1598926749881357,0.08791106929555535
1761476509366992000,3.179991943359375,0.030239070919156074,0.12714367620781994,0.06876900032162665
1761476509377024800,3.190024658203125,0.13206804479956627,0.10016025521690025,0.030294308237731455
1761476509387058000,3.200057861328125,0.21919337054491042,0.07373222591930534,0.009849632232636213
1761476509397090800,3.2100908203125,0.23972177931070326,0.0656051659958437,0.027710721485316753
1761476509407124000,3.2201240234375,0.24349428358674047,0.0647597738134209,0.039826252823323006
1761476509417156900,3.230156982421875,0.18104279584884642,0.05789372853541281,0.03943973772376776
1761476509427190000,3.24018994140625,0.2262789448916912,0.051352764193038455,0.06276347629651427
1761476509437223000,3.250222900390625,0.2798363475561142,0.06322709805315825,0.09083265583068131
1761476509447255800,3.260255859375,0.2744365343391895,0.06106681474673096,0.12513970684111117
1761476509457289000,3.2702890625,0.2920435027003288,0.03205031245904975,0.14582169873341916
1761476509467321900,3.28032177734375,0.34931495745182034,-0.009139186974917538,0.1265703241661191
1761476509477355000,3.29035498046875,0.3865957635760307,-0.03370143610036466,0.10052709750160574
1761476509487389000,3.300388916015625,0.30185528714060783,-0.04970044410848058,0.1224490064524114
1761476509497422000,3.310422119140625,0.2706090850055218,-0.08564012868888676,0.14435659461691974
1761476509507455000,3.320455078125,0.2778706004410982,-0.13332996362731792,0.16502879576757548
1761476509517488000,3.330488037109375,0.16685235793292522,-0.14208559007816948,0.15442235381826758
1761476509527520800,3.340520751953125,0.11992226445376872,-0.16255360129307955,0.13830401657968758
1761476509537554000,3.350553955078125,0.17055062792897224,-0.19390465204212814,0.08818784041032195
1761476509547586800,3.3605869140625,0.1583043098181486,-0.2339600739788264,0.0014041677094995975
1761476509557620000,3.370619873046875,0.1912082160323858,-0.29732283134274184,-0.06810600636824965
1761476509567652900,3.38065283203125,0.1840887394160032,-0.3524749193200841,-0.11007482417821883
1761476509577686000,3.39068603515625,0.10596972694694995,-0.4167404342100024,-0.12790785638019442
1761476509587719000,3.400718994140625,0.05539864661693573,-0.45353805992715057,-0.09621420273855329
1761476509597751800,3.410751708984375,-0.03207271608710289,-0.4626327090740204,-0.08070829830989242
1761476509607786000,3.420785888671875,-0.025673370438814163,-0.4581754374042153,-0.07380334122702478
1761476509617819100,3.430819091796875,-0.0018190321207046509,-0.4846677960757166,-0.06384206531345844
1761476509627852000,3.44085205078125,-0.021468319964408872,-0.5268971645180136,-0.07021554586812853
1761476509637885000,3.450885009765625,0.0018909283131361007,-0.5559242292989045,-0.0674454966329038
1761476509647918000,3.46091796875,-0.060519642892479894,-0.5541226597696542,-0.054510027214139695
1761476509657951000,3.470950927734375,-0.05583236185908317,-0.524641859871894,-0.027324060255289075
1761476509667984100,3.480984130859375,-0.05678337897360324,-0.49705191522203385,0.01770049186348915
1761476509678017300,3.491017333984375,-0.1334820032507181,-0.45900940401032564,0.04992343007624149
1761476509688050200,3.50105029296875,-0.203069334217906,-0.43872057615406806,0.0583222789786756
1761476509698083300,3.511083251953125,-0.11452654289007186,-0.41789661850780246,0.06560586011558771
1761476509708116200,3.5211162109375,-0.044379824474453926,-0.4048500899299979,0.06855433465763926
1761476509718150400,3.531150390625,-0.009594926819205284,-0.40232356712706385,0.07581424265801906
1761476509728183300,3.541183349609375,0.05041267489790916,-0.39617618694584816,0.0951909241054207
1761476509738216400,3.551216552734375,0.051449032208323475,-0.3718980337250978,0.11971855857521295
1761476509748249300,3.561249267578125,-0.026252631631493568,-0.3348345236133784,0.15215389742963015
1761476509758282500,3.571282470703125,-0.019315525844693184,-0.27539014526959504,0.1852187663592398
1761476509768315400,3.5813154296875,-0.020717209336161613,-0.19500260334666816,0.18717969116866587
1761476509778348500,3.5913486328125,-0.05583645351231098,-0.13651457587964833,0.2065588568340987
1761476509788381400,3.60138134765625,-0.1167553248554468,-0.09764623570251278,0.2242935432281345
1761476509798414300,3.611414306640625,-0.08724749082028865,-0.03829255414975341,0.19866656921431422
1761476509808447500,3.621447509765625,-0.05289221675395965,0.03565394014131743,0.16233751085698603
1761476509818480000,3.631480224609375,-0.06825520558059216,0.07939467669436708,0.13835728113688528
1761476509828513300,3.64151318359375,-0.06849310598969459,0.08780486897472292,0.12367394513748585
1761476509838547200,3.651547119140625,0.005977905365824699,0.09131113266316242,0.09980433618500828
1761476509848580400,3.661580322265625,0.02971124765276909,0.09635488985087722,0.07407485164478421
1761476509858613200,3.67161328125,0.012728548669815062,0.09803365498436614,0.06254486510977149
1761476509868646400,3.681646484375,0.05572831696271896,0.1279647924655117,0.04123370846845209
1761476509878679300,3.69167919921875,0.08903788136839866,0.16997304723672568,-0.011621025819331407
1761476509888712400,3.70171240234375,0.034982466053962706,0.20229988421536982,-0.04026720152385533
1761476509898745300,3.711745361328125,-0.017029460734128952,0.19106577535439281,-0.049611295387148854
1761476509908778500,3.721778564453125,-0.09331307446956634,0.18230278758099303,-0.05103351020999253
1761476509918811400,3.731811279296875,-0.16845803956389427,0.19266552043491975,-0.08775821682140231
1761476509928844300,3.74184423828125,-0.1793617108941078,0.20318406490506602,-0.12350713720321654
1761476509938877400,3.75187744140625,-0.2502823362916708,0.1956508015897125,-0.15818645559214053
1761476509948910300,3.761910400390625,-0.2988853314191103,0.15860910145100204,-0.1611133758895099
1761476509958944300,3.7719443359375,-0.2630225753992796,0.13415891613159328,-0.19262356272302567
1761476509968977200,3.78197705078125,-0.22153554975688455,0.1200741944793146,-0.22240108054503796
1761476509979010300,3.79201025390625,-0.1966027685523033,0.10130234705726615,-0.2387391249489039
1761476509989043200,3.802043212890625,-0.16288637691140173,0.09208150511430575,-0.226435523692891
1761476509999076400,3.812076416015625,-0.15406360350847242,0.08456359463171102,-0.22500885189063846
1761476510009109200,3.822109130859375,-0.16000526851713656,0.08590730999140068,-0.21331227661706506
1761476510019142400,3.832142333984375,-0.14021978707313537,0.10590761236301623,-0.21549875381067393
1761476510029175300,3.84217529296875,-0.14545827224850655,0.11746528148939832,-0.21493242516480385
1761476510039208400,3.85220849609375,-0.1603828696578741,0.14952928454708306,-0.19021737836413086
1761476510049241300,3.862241455078125,-0.09013970513045787,0.17498123078756034,-0.1607610553205013
1761476510059274500,3.8722744140625,-0.038567923325300214,0.20491498035090042,-0.12573109686300157
1761476510069307400,3.882307373046875,-0.025049685582518577,0.23214780039247124,-0.10462861453630029
1761476510079341300,3.89234130859375,0.02731120077371597,0.2695124854078516,-0.08641717747598886
1761476510089374200,3.902374267578125,0.12044950319826603,0.31582791758738454,-0.07716638791933655
1761476510099407400,3.912407470703125,0.21681261288821696,0.3646741103535518,-0.06138130122311413
1761476510109440300,3.922440185546875,0.2423568039894104,0.3991468733197078,-0.027159152017161247
1761476510119473200,3.93247314453125,0.24446225183606146,0.38505690010357646,0.0576917259901762
1761476510129506300,3.94250634765625,0.1912964788377285,0.35312691695541143,0.10856617318093777
1761476510139539200,3.952539306640625,0.11608195563852787,0.35742271445319057,0.1665714220996946
1761476510149572400,3.962572265625,0.08588204768598079,0.4076814408984035,0.2500111912000924
1761476510159605200,3.972605224609375,0.1389028592556715,0.40846082777306436,0.3283602130327374
1761476510169638400,3.982638427734375,0.10008359151780605,0.37135515902005134,0.34466157868802544
1761476510179671300,3.99267138671875,0.09086801940500736,0.35214616228975354,0.33086269737295804
1761476510189704400,4.002704345703125,0.11972528057694434,0.35249870205447076,0.3382417747735977
1761476510199734300,4.012734375,0.09623919104933738,0.36482667056676,0.3643354895163327
1761476510209767400,4.022767333984375,0.05538754070103168,0.36896830041613426,0.3844578016992658
1761476510219800300,4.03280029296875,0.018626959058642385,0.3494571058688685,0.41153300176002083
1761476510229833500,4.04283349609375,-0.008351648759841918,0.3378772523101419,0.3975961002137512
1761476510239866400,4.052866455078125,-0.056873979866504665,0.35258185029327865,0.363389440837875
1761476510249899300,4.062899169921875,-0.07687222727835177,0.34115773528553545,0.3441992218732834
1761476510259933200,4.07293310546875,-0.04754208789765835,0.34893224174454807,0.33162769039608536
1761476510269966300,4.08296630859375,-0.03917465704679489,0.3441056253056973,0.3204533854309469
1761476510279999200,4.092999267578125,-0.04967500827312469,0.3364716963611543,0.30903847664296624
1761476510290032400,4.103032470703125,-0.06546703616678715,0.30462456919085235,0.3043109366644174
1761476510300065300,4.113065185546875,-0.06886135478019714,0.2829615851708688,0.2952209636926651
1761476510310098400,4.123098388671875,-0.04512392084002494,0.2686745732789859,0.25715514467060563
1761476510320131300,4.13313134765625,-0.034439445218443866,0.2768193560888059,0.23973631929270922
1761476510330164500,4.14316455078125,-0.09743862996697425,0.26051738764531907,0.24113676067516207
1761476510340197400,4.153197265625,-0.1012315925091505,0.24387871632706373,0.2506807610247284
1761476510350230300,4.163230224609375,-0.03404372389912605,0.24081257022209465,0.2063693256113678
1761476510360263400,4.173263427734375,-0.015140870508551597,0.24525384060516953,0.164895890102908
1761476510370296300,4.18329638671875,-0.028531682479381558,0.22747383549837394,0.12420710216611623
1761476510380330200,4.193330322265625,-0.003837386205792427,0.21251816709730773,0.08615918412692844
1761476510390363100,4.203363037109375,0.0348082785308361,0.20327161532435564,0.07372318866290152
1761476510400396300,4.213396240234375,0.05264671756029129,0.18132427967134862,0.053197264115139836
1761476510410429200,4.22342919921875,0.08881284044086933,0.15474899195674807,0.044082375897839664
1761476510420462300,4.23346240234375,0.08029460294246674,0.09881339805205352,0.02595730194672942
1761476510430495200,4.2434951171875,0.10837386547923088,0.0858915826993063,-0.0013945230983197687
1761476510440528400,4.2535283203125,0.1453419523924589,0.07761846080208197,-0.009784750302881002
1761476510450561300,4.263561279296875,0.13036533253490923,0.0727981462398544,-0.04780621872656047
1761476510460594400,4.273594482421875,0.055609074497222896,0.03295028437292203,-0.07682911878898739
1761476510470627300,4.28362744140625,0.012334580916166306,-0.00789542942494154,-0.05302760663665831
1761476510480660500,4.293660400390625,-0.0457359152585268,-0.030202848828304558,-0.03999517964944243
1761476510490693400,4.303693359375,-0.02436813305914402,-0.04170037613213062,-0.05824081124030053
1761476510500726300,4.313726318359375,-0.03416121279895305,-0.06575310483286156,-0.06487959166765213
1761476510510760200,4.32376025390625,-0.06139759477078914,-0.09863196793738752,-0.043678398206830026
1761476510520793300,4.33379345703125,-0.08668225815296172,-0.14450447865501045,-0.024921017701551317
1761476510530826200,4.343826171875,-0.09100713561475277,-0.16297107778647912,-0.03649820437915623
1761476510540859100,4.353859130859375,-0.15099661715328694,-0.16912861403552815,-0.056359308342635625
1761476510550892300,4.363892333984375,-0.20639409472644327,-0.17714626333434133,-0.07928542589992284
1761476510560925200,4.37392529296875,-0.2350193007081747,-0.19571555565530432,-0.08250219598934054
1761476510570958300,4.383958251953125,-0.23505320297777652,-0.18812097234046085,-0.08393668577186762
1761476510580991200,4.3939912109375,-0.17868366550207138,-0.17815544037688522,-0.09652736034095287
1761476510591024400,4.4040244140625,-0.09858546191453933,-0.18388781001642346,-0.10087532641738653
1761476510601057300,4.414057373046875,-0.055906011617183685,-0.19709141058577223,-0.08248948263823985
1761476510611090400,4.42409033203125,0.02254033311009407,-0.21147167198536918,-0.10074329753555357
1761476510621123300,4.434123291015625,0.08404197277724743,-0.233085884960182,-0.0841194219276309
1761476510631156500,4.444156494140625,0.07191197452247142,-0.21294057549415155,-0.05147577408477664
1761476510641190400,4.4541904296875,0.07610533455908298,-0.17336946647567675,-0.059761810262501235
1761476510651223300,4.464223388671875,0.11491408090293406,-0.15767762928716839,-0.06719802467785775
1761476510661256200,4.474256103515625,0.04844809682667255,-0.1641316277321428,-0.032153233977407214
1761476510671289300,4.484289306640625,0.04895020112991333,-0.17025425706459207,0.03508607255890965
1761476510681322200,4.494322265625,0.06455868915021419,-0.14953982420740647,0.06018420039303601
1761476510691357700,4.504357666015625,0.03386369115710258,-0.11819533106330782,0.056256724750995635
1761476510701390600,4.514390625,0.06887713687121867,-0.14231688721654936,0.045649479084089395
1761476510711423700,4.524423828125,0.1499643514961004,-0.16848527463069185,0.0680293609354645
1761476510721456600,4.53445654296875,0.1358306122034788,-0.18644965986106543,0.052996042454615234
1761476510731489500,4.544489501953125,0.1043383263528347,-0.2282025516317226,0.09555113571994006
1761476510741522400,4.5545224609375,-0.008113163828849792,-0.2697781140740961,0.17207045790739356
1761476510751555600,4.5645556640625,0.03968669822216034,-0.2747880329242907,0.19787571109756827
1761476510761588500,4.57458837890625,0.07847966247498989,-0.2423685857587494,0.2133929406378418
1761476510771621400,4.584621337890625,0.09529694176316261,-0.19703531475067138,0.21069632196500895
1761476510781655600,4.594655517578125,0.1915747112572193,-0.22301095607168972,0.17938962181434034
1761476510791689700,4.604689697265625,0.16049392881691454,-0.31711452333182094,0.06986534419097006
1761476510801722600,4.61472265625,0.18816694864034653,-0.4030261624384671,-0.039742666193097825
1761476510811755800,4.624755859375,0.3384457729130983,-0.4058103132642805,-0.02536956518664956
1761476510821788700,4.63478857421875,0.25416239259541035,-0.3230456304138526,-0.0006258768133819103
1761476510831821600,4.644821533203125,0.15676351011693476,-0.2726292657215148,0.07150237080827355
1761476510841854500,4.6548544921875,0.11668985840380192,-0.31676340833920985,0.078495298435539
1761476510851887400,4.664887451171875,0.13295710259377955,-0.3681116835867986,-0.026563889537751673
1761476510861920500,4.67492041015625,0.15946575481295586,-0.3517285579321906,-0.04685775889530778
1761476510871953400,4.684953369140625,0.016480010157823563,-0.2725031185911968,-0.08111965558975935
1761476510881986600,4.694986572265625,0.010299275696277617,-0.2172259429294616,-0.14086656054407357
1761476510892020500,4.7050205078125,-0.049586745467782016,-0.19853253103848545,-0.19596490904018282
1761476510902053600,4.7150537109375,-0.15514379996061325,-0.2039126166416332,-0.24514088174998758
1761476510912086500,4.72508642578125,-0.1955143887937069,-0.18903280822206286,-0.20914573152214289
1761476510922119700,4.73511962890625,-0.09847849440872669,-0.15585830490551889,-0.12004048400595783
1761476510932152600,4.745152587890625,-0.16248948654830456,-0.11137439900208264,-0.025143355215340852
1761476510942185700,4.755185791015625,-0.269041981819272,-0.11019465116560459,0.036455899607390166
1761476510952218600,4.765218505859375,-0.2185883903890848,-0.06692472416181117,0.05917670385092497
1761476510962251800,4.775251708984375,-0.024141338565945625,-0.045374972991645335,0.05566694216430187
1761476510972284700,4.78528466796875,0.06179974583089351,-0.08088811185620724,0.009493366140872239
1761476510982317600,4.795317626953125,0.2106026523321867,-0.13545808909665794,-0.020675269890576598
1761476510992350500,4.8053505859375,0.23923721066415307,-0.1588140494385734,-0.04541632791534066
1761476511002383400,4.81538330078125,-0.14629004689753056,-0.13608736344352365,0.023102789298444986
1761476511012416500,4.82541650390625,-0.05911152966022491,-0.0927653409263119,0.11913228311985731
1761476511022449400,4.835449462890625,0.20448270814716815,0.010193221505917609,0.16025617453828453
1761476511032482600,4.845482666015625,0.1474029765754938,0.0778897702904418,0.17691548678576946
1761476511042516500,4.8555166015625,0.12371113534271716,0.036254385685920716,0.2139398339308798
1761476511052549600,4.865549560546875,0.1195446633130312,-0.022390585908479987,0.23620588014423846
1761476511062582500,4.87558251953125,0.008923895689845085,-0.057643283738568425,0.20293153318241236
1761476511072615700,4.88561572265625,-0.03030453737080097,-0.062161199554428455,0.08050137756094336
1761476511082648600,4.895648681640625,0.10323357998132705,-0.07751556668318807,0.053854924306273456
1761476511092681700,4.905681640625,0.09257774593234061,-0.12422613566014915,0.057715106865763664
1761476511102714600,4.915714599609375,-0.007657236754894256,-0.18099574183672665,0.09361264193803072
1761476511112747800,4.925747802734375,-0.07917290543615818,-0.20549849759358912,0.22088819176405666
1761476511122780700,4.93578076171875,-0.20204116021394727,-0.20265231438223272,0.36492110738456246
1761476511132813600,4.9458134765625,-0.195674547791481,-0.19221417820453643,0.32555838041976093
1761476511142846500,4.955846435546875,-0.1786643762797117,-0.18403967610988764,0.19531155969798564
1761476511152879400,4.96587939453125,-0.23937808043956754,-0.1999944568172097,0.14617796482518314
1761476511162912500,4.97591259765625,-0.13976736713051796,-0.23234752421565352,0.18770751443505285
1761476511172945400,4.9859453125,0.04888824180960655,-0.1925319754494354,0.21677564187869428
1761476511182979600,4.9959794921875,0.11866320430338383,-0.13384214180000126,0.22819719960317014
1761476511193012500,5.006012451171875,0.13965689249336719,-0.15949744685916228,0.19530089217349886
1761476511203045600,5.016045654296875,0.11191723717451095,-0.23807985732257364,0.1857236471414566
1761476511213078500,5.02607861328125,0.01225333237349987,-0.31741551557239145,0.12630056731402872
1761476511223111700,5.036111572265625,0.02008475665152073,-0.3470483276940882,0.08188581765666604
1761476511233144600,5.04614453125,0.06378887382149696,-0.33207382672838864,0.1407303669437766
1761476511243177700,5.056177734375,0.07713000143170357,-0.306176748802606,0.21520663899630307
1761476511253210600,5.066210693359375,0.13658698352873325,-0.3260130653847009,0.21851035671681165
1761476511263243800,5.076243896484375,0.21146599116325376,-0.4079587965350598,0.22244068190306424
1761476511273276700,5.086276611328125,0.2368313185662031,-0.45935755986087023,0.19624577180817723
1761476511283309800,5.096309814453125,0.1646177307486534,-0.4277207509730011,0.1842114890128374
1761476511293342500,5.106342529296875,0.13077800498902797,-0.35479119690582156,0.1875309888243675
1761476511303375400,5.116375244140625,0.13546119436919687,-0.34123679187111555,0.1308490243986249
1761476511313408500,5.126408447265625,0.07312485744357108,-0.3536845508381724,0.054430239976197475
1761476511323441400,5.13644140625,0.023460370564460754,-0.33717619136869903,-0.007354746676981449
1761476511333475600,5.1464755859375,0.03772796536982059,-0.28103984159436074,0.005939180790632963
1761476511343508500,5.156508544921875,-0.06831950298845768,-0.2610555131100118,0.04210340397506952
1761476511353541600,5.166541748046875,-0.2865028197079897,-0.27640993503769856,0.052102235420048236
1761476511363574500,5.176574462890625,-0.38052141209840773,-0.30494435746343806,0.04275529201254248
1761476511373607700,5.186607666015625,-0.32377135087251663,-0.3145009432999417,0.005476677845418453
1761476511383640600,5.196640625,-0.2624842307388782,-0.268353341967985,-0.031685178074240684
1761476511393673700,5.206673828125,-0.15233166514933108,-0.23922299947571007,-0.08490399643406271
1761476511403706600,5.21670654296875,-0.04796060557067394,-0.24329441363308577,-0.16042963140904903
1761476511413739800,5.22673974609375,0.0661877516567707,-0.2919383800917305,-0.17732669793516395
1761476511423772700,5.236772705078125,0.16092589049339293,-0.3535460922155529,-0.14288374558538197
1761476511433805600,5.2468056640625,0.19156068273186683,-0.4173254675563425,-0.10902736095190048
1761476511443838700,5.256838623046875,0.23143910413384436,-0.3968257734283805,-0.056581134399771686
1761476511453871600,5.26687158203125,0.31278584647774693,-0.33360604126434773,0.018941139574348925
1761476511463904500,5.276904541015625,0.2827607105702162,-0.3077466467341408,0.10256196433007717
1761476511473937400,5.2869375,0.10705927574932575,-0.323377784977667,0.15789733645245432
1761476511483971600,5.2969716796875,0.12131868724822997,-0.3290842895235866,0.19794789955094455
1761476511494004500,5.30700439453125,0.16655074463784694,-0.27486924493433906,0.2229554995574057
1761476511504037600,5.31703759765625,0.09606558804810046,-0.1805860102583654,0.18399170878231524
1761476511514070500,5.327070556640625,0.10095686722099781,-0.12530558319361879,0.1439260942451656
1761476511524103700,5.337103759765625,0.11760872681438922,-0.0912382409568876,0.1311765027873218
1761476511534136600,5.347136474609375,0.00756079064309597,-0.03788695532381534,0.13183292086943985
1761476511544169700,5.357169677734375,-0.0564455253213644,0.027513518412783742,0.12635288202315567
1761476511554202600,5.36720263671875,-0.03615150983333587,0.08461719711562618,0.1213479133427143
1761476511564235800,5.37723583984375,-0.15368074167072773,0.18222367619648575,0.08481368780210613
1761476511574268700,5.3872685546875,-0.3258715380221605,0.2509974257584661,0.055331134338676924
1761476511584301600,5.397301513671875,-0.30601182229816914,0.2769527184111997,0.036122429869323965
1761476511594334700,5.407334716796875,-0.29504268451631066,0.2953750217432156,0.000527677135914564
1761476511604367600,5.41736767578125,-0.3121183224797249,0.30926256772242483,-0.04238843146152794
1761476511614400500,5.427400390625,-0.19475275677144527,0.31536132298894226,-0.00793992615379393
1761476511624433400,5.437433349609375,-0.04317746294736862,0.3410973103351891,0.04489361921548843
1761476511634466600,5.447466552734375,0.05553425569534302,0.347267304207012,-0.021286241395771503
1761476511644500500,5.45750048828125,0.13748948532640934,0.319716595588997,-0.050558220848441124
1761476511654533600,5.46753369140625,0.16255027682483195,0.3466096440158784,-0.055089653733000156
1761476511664566500,5.47756640625,0.13887889385819435,0.4094550629748031,-0.1415620685275644
1761476511674599700,5.487599609375,0.2384861000359058,0.3775062289956957,-0.22668431082218884
1761476511684630800,5.497630859375,0.18903788625597953,0.2983433700295165,-0.2515360626798123
1761476511694663700,5.50766357421875,0.11277473078668117,0.23610698634702712,-0.2207418420959264
1761476511704696800,5.51769677734375,0.08506956225931644,0.27577693436378614,-0.16655943940095602
1761476511714729700,5.527729736328125,0.1253308454990387,0.3487827868038788,-0.12790142663940787
1761476511724763000,5.537762939453125,0.11250585071742535,0.36326365903373803,-0.1276592884466052
1761476511734795800,5.547795654296875,0.16087269900143145,0.3236733703907579,-0.14224559381231663
1761476511744829000,5.557828857421875,0.11873977667093276,0.34049810233302413,-0.17856544594988225
1761476511754861800,5.56786181640625,-0.059086395218968385,0.3986777945032343,-0.16834128131642936
1761476511764894700,5.577894775390625,-0.13759820639789103,0.43974502383098,-0.09902071152664721
1761476511774928000,5.587927978515625,-0.2010772836178541,0.4351136742359027,-0.051499885612726205
1761476511784960800,5.597960693359375,-0.16861527595221995,0.4325583271972835,-0.08595145966038108
1761476511794994000,5.607993896484375,-0.34449265186190603,0.45138216053489594,-0.10402794522941113
1761476511805026800,5.61802685546875,-0.2859405096501112,0.4474328749198466,-0.10091061692647635
1761476511815060700,5.628060791015625,-0.06012450609505176,0.46259537273831663,-0.10233502370640635
1761476511825093600,5.63809375,-0.081642510420084,0.45658937378916886,-0.12054748368002474
1761476511835126800,5.648126708984375,-0.1928951462060213,0.3861023175032809,-0.09454261626452207
1761476511845159700,5.65815966796875,-0.17426994071304797,0.32986433398537335,-0.07260229487419129
1761476511855192800,5.66819287109375,-0.16316811646223067,0.3221078015744686,-0.09321838192343711
1761476511865225700,5.678225830078125,-0.11991115853786467,0.3800159833269194,-0.03965418419204652
1761476511875259000,5.6882587890625,-0.061222822725772855,0.43685657238047565,0.03642090135924518
1761476511885291800,5.698291748046875,0.013859014004468918,0.4301462976194918,0.043664588877186175
1761476511895325000,5.708324951171875,0.11556699185371398,0.3276848710544407,0.003693155429512262
1761476511905357800,5.71835791015625,0.17830957149267196,0.24126952020935713,-0.022724895896762607
1761476511915390700,5.728390625,0.2551321144104004,0.2041259671313688,0.011628113147243857
1761476511925423900,5.738423828125,0.33277649510502816,0.20656729586888103,-0.00831730809882283
1761476511935456800,5.748456787109375,0.28027824610471724,0.22363928057048468,0.03416932304017246
1761476511945490000,5.758489990234375,0.23141338517069815,0.209255292843841,0.10948876791857182
1761476511955522800,5.768522705078125,0.22040216181278227,0.2571926636693999,0.1714016918003559
1761476511965556000,5.778555908203125,0.12330197001993655,0.3467034963117912,0.15297040144428609
1761476511975588900,5.7885888671875,0.13056523902118206,0.40407468511071054,0.09264160494878887
1761476511985622800,5.798622802734375,0.051209378233551976,0.4510437954260036,0.0991333781208843
1761476511995655700,5.80865576171875,0.032170915764570235,0.4607988447103649,0.0929630919881165
1761476512005688800,5.818688720703125,0.09779635736346244,0.4597526235930621,0.09085333329252898
1761476512015721700,5.8287216796875,0.13829320292472838,0.4716529047451913,0.10484181889556347
1761476512025755000,5.8387548828125,0.12345336118936538,0.46884084299914536,0.07645166377872228
1761476512035787800,5.848787841796875,0.14063538213670254,0.450635324222967,0.023724939784780144
1761476512045820700,5.858820556640625,0.16268647042512893,0.4195309417113662,-0.01306830201819539
1761476512055853800,5.868853759765625,0.10347907917499542,0.40971641732472924,-0.03210837192237377
1761476512065886700,5.87888671875,-0.037970541954040524,0.3869109670050442,0.0019005729243159292
1761476512075920000,5.888919921875,-0.04467793063819408,0.40674138356931505,0.03143018039986491
1761476512085952800,5.898952880859375,0.040025720918178555,0.46726701781116425,-0.02157572586163878
1761476512095986000,5.90898583984375,0.024644027391076087,0.44763877275548875,-0.04649016769193112
1761476512106018800,5.919018798828125,-0.023304303219914436,0.3947209831688553,-0.007110781853273511
1761476512116052000,5.929052001953125,-0.020886136162281035,0.3455758439887315,-0.008122077787667513
1761476512126084900,5.9390849609375,0.05461830989420414,0.32187596557997167,-0.048760889102891086
1761476512136118000,5.949117919921875,0.06497779134511947,0.27812937924144787,-0.0753648914553225
1761476512146151000,5.95915087890625,0.06640460927784443,0.24635095165949314,-0.04648775653913617
1761476512156183800,5.969183837890625,0.00706102442741394,0.23456651543937623,-0.029191753823310136
1761476512166217700,5.9792177734375,-0.16779285365343094,0.2188658190909773,-0.011128858388215302
1761476512176251000,5.9892509765625,-0.13518354647159575,0.23803126894049345,0.03826053787656128
1761476512186283800,5.99928369140625,-0.13406126444339753,0.26198932336140424,0.02251914419159293
1761476512196316700,6.009316650390625,-0.20281097554266453,0.21629381317850202,0.02382328559271991
1761476512206349800,6.019349853515625,-0.20071195743679998,0.1419975373353809,0.026840952913463115
1761476512216382700,6.0293828125,-0.17665946619808673,0.08230638115629553,0.016673267707601188
1761476512226415900,6.039415771484375,-0.19041911148130894,0.05194551048837602,0.012808482038229704
1761476512236448800,6.04944873046875,-0.1484714825898409,0.04807159166447818,0.00336626156270504
1761476512246482000,6.05948193359375,-0.18828326849639415,0.043870559778064484,-0.016727847439050675
1761476512256514800,6.069514892578125,-0.1981108350276947,0.008576470491662621,-0.059212213555723425
1761476512266548000,6.0795478515625,-0.12271569456458091,-0.029588315392844376,-0.04659275128357112
1761476512276580900,6.089580810546875,-0.10714344690144062,-0.036218839448504146,0.005274433271586895
1761476512286614000,6.099614013671875,-0.09354220705032348,-0.05198909390177577,0.05564407274536788
1761476512296647000,6.10964697265625,-0.07375906369388104,-0.11624565830025821,0.07106704813092947
1761476512306679800,6.1196796875,-0.08680734583735465,-0.14457688630409538,0.11046133927777409
1761476512316713000,6.129712890625,-0.06457505576312542,-0.13569938703924417,0.11551095081754029
1761476512326745900,6.139745849609375,-0.021546645897626875,-0.1443252496305853,0.11436653002277015
1761476512336778800,6.14977880859375,-0.005289338579773903,-0.17959979396630077,0.11531857005059719
1761476512346811600,6.159811767578125,0.06420622245073318,-0.22489998468868433,0.11843465624451636
1761476512356845800,6.169845703125,0.1343406659066677,-0.2954946295348927,0.11303820402845739
1761476512366878700,6.179878662109375,0.18457915328145025,-0.34512601786199953,0.11487192226164042
1761476512376912000,6.189911865234375,0.18617782064974306,-0.37000367134585976,0.14303411384150386
1761476512386944800,6.19994482421875,0.13809505000412464,-0.38426436148639764,0.1817845541268587
1761476512396978000,6.20997802734375,0.2130120515614748,-0.3910162834320217,0.22919169053323565
1761476512407010800,6.2200107421875,0.12479542344808578,-0.39841417513098565,0.28025026211924847
1761476512417044000,6.2300439453125,0.10079904631078243,-0.4001804541511461,0.33041298084408044
1761476512427076900,6.240076904296875,0.13069208027124404,-0.4404322023775428,0.29073833838589486
1761476512437110000,6.250110107421875,0.16598901910185812,-0.5066914849005639,0.24143252875134347
1761476512447143000,6.260142822265625,0.2954237927883863,-0.5509966001709923,0.2353636571664363
1761476512457175800,6.27017578125,0.35275779138207436,-0.5969798412540928,0.2363310408938676
1761476512467209000,6.280208984375,0.3378279332756996,-0.6855048411969095,0.2710442615523934
1761476512477241900,6.290241943359375,0.2778384517371654,-0.7232939621694385,0.3567725069161504
1761476512487275000,6.30027490234375,0.2016962922990322,-0.7246164429448545,0.4112924710024148
1761476512497308000,6.310307861328125,0.08883505227267742,-0.7466794408667832,0.4276679978724569
1761476512507340800,6.3203408203125,0.021741291686892508,-0.7633138378687202,0.4638339015573263
1761476512517373700,6.330373779296875,0.0045113399446010585,-0.7692307337623089,0.45405010110251603
1761476512527406800,6.34040673828125,-0.05386486117839813,-0.764440796072036,0.4086454636249691
1761476512537439700,6.350439697265625,-0.18225450972616672,-0.7530446650497615,0.3709851566638797
1761476512547474000,6.360473876953125,-0.1733575020432472,-0.7345599640060215,0.34300613963119686
1761476512557506800,6.3705068359375,-0.14489420862495897,-0.6980414474911988,0.2913743712671101
1761476512567540000,6.3805400390625,-0.18398177191019058,-0.6749754100065678,0.24947825336717067
1761476512577572900,6.39057275390625,-0.2513023269891739,-0.6952425374876707,0.2298138410195708
1761476512587605800,6.400605712890625,-0.16853227384388444,-0.6844321704640984,0.17701821650788188
1761476512597639000,6.410638916015625,-0.11137480086088179,-0.6452504991546273,0.07769917962178588
1761476512607671800,6.420671875,-0.1710439644038677,-0.639411052411422,0.02036635007187724
1761476512617705000,6.430705078125,-0.08211188149750233,-0.641194136435911,-0.014901654925197362
1761476512627737900,6.44073779296875,-0.02192424703836441,-0.606395940907672,-0.02632759656384587
1761476512637771000,6.45077099609375,-0.0577221211284399,-0.5618187672302126,-0.01173668808825314
1761476512647804000,6.460803955078125,-0.06693652419745921,-0.5411088644176721,0.0068387599788606165
1761476512657836800,6.4708369140625,-0.07885434100627899,-0.5226812273234128,0.030825273309275505
1761476512667869700,6.48086962890625,-0.09629004445374012,-0.4837843643046915,0.06673705610260366
1761476512677902800,6.49090283203125,-0.04913491004705429,-0.4094541496593505,0.07183737491630017
1761476512687936300,6.500936279296875,-0.039430093112587924,-0.34834479724541306,0.047627574224025006
1761476512697969400,6.510969482421875,-0.12602233489453793,-0.32182102052234113,0.04899506318494677
1761476512708002300,6.521002197265625,-0.07074468430876732,-0.3066637103356421,0.06105389589965343
1761476512718035500,6.531035400390625,-0.02628770294487476,-0.26248839545734226,0.07615121952742337
1761476512728068400,6.541068359375,-0.01692366227209568,-0.2336441764300689,0.07548698346503079
1761476512738101500,6.5511015625,0.0068096800148487084,-0.21351945309434084,0.07902940531224012
1761476512748134400,6.561134521484375,0.0837076262563467,-0.16866057639867066,0.08141374316550791
1761476512758168600,6.57116845703125,0.07958207075893879,-0.11714797743484377,0.06106697457693517
1761476512768201500,6.581201416015625,0.039144846430420877,-0.10212046764027327,0.07208214345760643
1761476512778234400,6.591234375,-0.0046925417304039,-0.09110833096690475,0.11096548940762876
1761476512788267300,6.601267333984375,-0.039647535255551335,-0.06599076777994632,0.10019282404594122
1761476512798300200,6.611300048828125,-0.0983124901920557,-0.043914545050263404,0.10935184366591275
1761476512808333300,6.621333251953125,-0.02439560558795929,-0.04065700455904007,0.07934051708802581
1761476512818366200,6.6313662109375,0.10899930390119551,-0.0453929835723713,0.026470950557291505
1761476512828399400,6.6413994140625,0.1346019471913576,-0.047030229385383426,0.037248657420277595
1761476512838432300,6.651432373046875,0.15157061764895916,-0.07066259551588445,0.06102182026095688
1761476512848465400,6.66146533203125,0.19463643691539764,-0.12355057448614389,0.07228460722714662
1761476512858498300,6.671498291015625,0.11814239529967308,-0.1355598689706996,0.1144357228014618
1761476512868531500,6.681531494140625,-0.0024245967984199523,-0.14186660443209112,0.14728198054432867
1761476512878564400,6.691564453125,-0.10019523519873619,-0.1387341150926426,0.1262079205945134
1761476512888597500,6.701597412109375,-0.08807049764096736,-0.12191387666240334,0.11398081864081322
1761476512898630400,6.71163037109375,-0.08552841194272041,-0.10689184676054865,0.09711253981776535
1761476512908663300,6.721663330078125,-0.028809330376982686,-0.1358670352237299,0.01931355308331549
1761476512918696400,6.731696533203125,0.041510991039872165,-0.1696923305992037,-0.011089037834480404
1761476512928729300,6.741729248046875,-0.018411855003237724,-0.15747505591977387,0.014685601021721959
1761476512938762500,6.751762451171875,-0.025934651723504065,-0.11493139736391603,0.040056700578331945
1761476512948795400,6.76179541015625,-0.04335749568939209,-0.09145371033847331,0.06181289757341146
1761476512958828500,6.77182861328125,-0.0811281311571598,-0.08791636652518063,0.08149988707900047
1761476512968861400,6.781861328125,-0.05951543428599834,-0.08070354906953871,0.03551160449460149
1761476512978894600,6.79189453125,-0.029565701702237126,-0.0736508175464347,-0.016936375623196363
1761476512988928300,6.80192822265625,0.0827665460139513,-0.06531571806259454,-0.06820318313241004
1761476512998961400,6.81196142578125,0.15619301675260067,-0.0530356803452596,-0.11963402209691702
1761476513008994300,6.821994384765625,0.10447451995313167,-0.08608820124994963,-0.07909202221967279
1761476513019027500,6.83202734375,-0.008954290828108787,-0.10622549180630594,-0.010620616605132818
1761476513029060400,6.842060302734375,0.014704232656955718,-0.07908906307760626,-0.01669043803811073
1761476513039093200,6.85209326171875,0.06550093843638896,-0.0433325804438442,-0.038258857376128434
1761476513049126400,6.86212646484375,0.04462532366812229,-0.0668783277368173,-0.02080386470630765
1761476513059159300,6.8721591796875,0.01625263114273548,-0.08249225911721586,0.014206658398360014
1761476513069192400,6.8821923828125,0.04647825805842876,-0.03607588731385767,0.0011329495526850224
1761476513079225300,6.892225341796875,0.029933950492739676,0.022979126386158167,-0.023839725270867345
1761476513089258500,6.902258544921875,-0.014230769926309585,0.023566351689584552,-0.005591024940088391
1761476513099291400,6.91229150390625,-0.003968903630971909,0.015073431295529007,0.004209872779995203
1761476513109324500,6.922324462890625,0.05162789590656757,0.04819686201196163,-0.0338300811484456
1761476513119357400,6.932357421875,0.027139351338148116,0.04489051394294947,-0.03220167622901499
1761476513129390600,6.942390625,0.020351883155107497,0.024009565412439406,0.016732669744640587
1761476513139423500,6.952423583984375,0.037191374275088306,0.04529704891722649,0.06363061451986432
1761476513149456400,6.962456298828125,0.03772679632604122,0.0749928798051551,0.06311937706209719
1761476513159489300,6.9724892578125,0.03188274647295475,0.12721205613575876,0.004544949953258037
1761476513169522200,6.982522216796875,-0.014742226579785345,0.1585736282788217,-0.03269756998717785
1761476513179555300,6.992555419921875,0.01925298200249672,0.1806187617504969,-0.05717303587831556
1761476513189588200,7.002588134765625,0.017182605469226835,0.2157294572940096,-0.043106735798716544
1761476513199621400,7.012621337890625,-0.08469546824991703,0.25053247512783855,-0.00880275352820754
1761476513209655300,7.0226552734375,-0.10339841515421867,0.26917086889594793,-0.02552029876895249
1761476513219688400,7.0326884765625,-0.10313654934763908,0.26510234081540257,-0.03409888815246522
1761476513229721300,7.042721435546875,-0.1295697982430458,0.28012382272798564,-0.01926832570210099
1761476513239754500,7.05275439453125,-0.16083821220993993,0.2936559793982655,-0.03351093219667673
1761476513249787400,7.062787353515625,-0.15696809277832507,0.30653778240103274,-0.0576262595385313
1761476513259820500,7.072820556640625,-0.15607085167765616,0.3547821733491495,-0.09229819833859801
1761476513269853400,7.082853515625,-0.11532499979138373,0.3853023262320086,-0.12700995769239962
1761476513279886600,7.092886474609375,-0.10987959386706352,0.37327198895942415,-0.14845781939066946
1761476513289919500,7.10291943359375,-0.11711129868626594,0.37526064202599224,-0.12051518884561956
1761476513299952400,7.112952392578125,-0.145990771690011,0.3722811512911692,-0.10053104302436112
1761476513309985300,7.1229853515625,-0.21302374199926852,0.3865621170347556,-0.07306238666661083
1761476513320018200,7.13301806640625,-0.23301497514843938,0.38738998269364233,-0.04347008921839297
1761476513330051300,7.14305126953125,-0.19373802677094934,0.4281661566529423,-0.01802183277234435
1761476513340084200,7.153084228515625,-0.11307575955986976,0.47831210690606385,-0.024623349929228423
1761476513350117400,7.163117431640625,-0.09483166233897208,0.48082156897634265,-0.0380189842056483
1761476513360150300,7.173150390625,-0.051914311632514,0.4769937908491119,-0.006694675333052873
1761476513370183400,7.183183349609375,-0.055254854232072825,0.49459619263298804,0.03041837300881743
1761476513380216300,7.19321630859375,-0.06803016465306282,0.4985052923681214,0.03784779235720634
1761476513390249200,7.203249267578125,0.04009703258872032,0.5264645817870274,0.033117841225862504
1761476513400282400,7.213282470703125,0.04047112659811973,0.5592874586543068,0.019980930950865148
1761476513410315300,7.223315185546875,-0.04111351615488529,0.5174051135513931,0.057685880771279334
1761476513420348400,7.233348388671875,-0.008261632388830185,0.4788662701901048,0.10170300941318274
1761476513430381300,7.24338134765625,0.06994447384178638,0.4780656578643247,0.07161854453384876
1761476513440414500,7.25341455078125,0.12062661333084106,0.45183271731399,0.004896101478487253
1761476513450447400,7.263447265625,0.184590843719244,0.39956422194894403,-0.02976385462284088
1761476513460481300,7.273481201171875,0.2219827090024948,0.37232714585736393,-0.05536518273875117
1761476513470514200,7.28351416015625,0.2396890460848808,0.3497080118900165,-0.05102160057649016
1761476513480547300,7.29354736328125,0.27310557799637314,0.35331027416568245,-0.04108772412650287
1761476513490580200,7.303580322265625,0.3011187895596027,0.3402566947925836,-0.052676966568082566
1761476513500613400,7.31361328125,0.286903217202425,0.30507092471886427,-0.0862291075579822
1761476513510646300,7.323646240234375,0.2977040126800537,0.2778853230861947,-0.05695983151905238
1761476513520679400,7.333679443359375,0.26052666693031784,0.2740756651375443,0.004367328364029526
1761476513530712300,7.34371240234375,0.22497487655580042,0.24669929017312822,0.0017149872243404387
1761476513540745200,7.3537451171875,0.15320377180874348,0.19797226680722085,-0.01773782819919288
1761476513550778400,7.3637783203125,0.12178864284753799,0.16626589981447903,-0.034083982844278216
1761476513560811300,7.373811279296875,0.06133621997237205,0.14486008715964854,-0.0337125922486186
1761476513570844400,7.383844482421875,0.07831015112698078,0.11721183645129203,-0.035743367423862214
1761476513580877300,7.393877197265625,0.06297054317593574,0.10269753687586634,-0.015475947681814432
1761476513590910500,7.403910400390625,0.05695873554050922,0.10275850981548428,-0.009577245032042265
1761476513600943400,7.413943359375,0.058498366197943685,0.07050188852883875,0.01658200922757387
1761476513610976500,7.4239765625,0.05927285770177841,0.02809657899774611,0.06191248549036681
1761476513621009400,7.434009521484375,0.04454349060356617,0.0060698579655960195,0.09604936756566167
1761476513631042600,7.44404248046875,0.028631635722517965,-0.02584112822115421,0.09990012470968067
1761476513641075500,7.454075439453125,0.0644756870418787,-0.05741148427668959,0.10138744065798819
1761476513651108400,7.4641083984375,0.06005670155584812,-0.10126721181180327,0.0869811680343002
1761476513661141500,7.4741416015625,0.060925301083922384,-0.1456767373047769,0.0879646991789341
1761476513671174400,7.48417431640625,0.057387774607539174,-0.20672062326706944,0.13991364373341203
1761476513681207300,7.494207275390625,0.012451485294103622,-0.26552699596825985,0.19062471705600617
1761476513691240000,7.504239990234375,-0.03590484159588814,-0.29076467840354886,0.2081481718521565
1761476513701272800,7.51427294921875,0.007490648016333579,-0.2957700124101713,0.22613084165789185
1761476513711306000,7.524305908203125,0.02315583465993404,-0.28045879030339416,0.23718268928714095
1761476513721340000,7.53433984375,0.009036123892664909,-0.2903327167270705,0.23873532555662094
1761476513731372800,7.544372802734375,0.014283961418271063,-0.33482995703611523,0.2545495652820915
1761476513741405700,7.55440576171875,0.06284370192587375,-0.3665382237249985,0.25553616516664623
1761476513751438800,7.56443896484375,0.027520459610223768,-0.39261111487541345,0.27868527782484886
1761476513761471700,7.5744716796875,-0.01066343283355236,-0.4265715444052592,0.30231523280255496
1761476513771505000,7.5845048828125,-0.0026046295404434203,-0.4443269813263789,0.33856289648674426
1761476513781537800,7.594537841796875,-0.01647007328569889,-0.41983953273650254,0.3521522997695952
1761476513791571000,7.604571044921875,-0.02637888835966587,-0.40733408876545724,0.31396102773696183
1761476513801603800,7.614603759765625,-0.01617196712195873,-0.4149337866468355,0.2863778781540692
1761476513811637000,7.624636962890625,-0.033227146819233895,-0.42182336349748073,0.3024541298165917
1761476513821670000,7.634669921875,-0.12967092052996157,-0.38752920850124206,0.2991786883424967
1761476513831703000,7.644703125,-0.15603578036427496,-0.36053891024496404,0.2728541605185717
1761476513841736000,7.65473583984375,-0.17653262494802474,-0.3315895138101652,0.25148170214407145
1761476513851768800,7.664768798828125,-0.21379005019664762,-0.2856800320830196,0.22133308598734436
1761476513861802000,7.674802001953125,-0.15767185713350773,-0.27394648579992353,0.2184129607569426
1761476513871835000,7.6848349609375,-0.1307020171433687,-0.27647775784321127,0.23285277032405136
1761476513881867800,7.69486767578125,-0.11792553767859935,-0.2833257240418345,0.2286830103587359
1761476513891900700,7.704900634765625,-0.03267652719914913,-0.28246695178803055,0.18111454591080545
1761476513901933800,7.714933837890625,0.0409562797665596,-0.261228860382922,0.09813589151613414
1761476513911966700,7.724966796875,0.09695055418908595,-0.24271102425456045,0.053055152230709786
1761476513922000000,7.734999755859375,0.1362795250147581,-0.22236505938358603,0.04364997582994401
1761476513932032800,7.74503271484375,0.0777075090587139,-0.20070242242347447,0.05507759796902537
1761476513942065700,7.755065673828125,0.05277765046358108,-0.1668927264759317,0.07671243360675871
1761476513952098800,7.765098876953125,0.056952305799722665,-0.12884915581829845,0.059348114895075556
1761476513962131700,7.775131591796875,0.04339490509033203,-0.10629534217212348,0.02282974451072514
1761476513972164900,7.785164794921875,0.04389700939357281,-0.09991261886507272,-0.001761968171223998
1761476513982198800,7.79519873046875,0.043831542941927905,-0.08281601117886603,0.006688757048919796
1761476513992232000,7.80523193359375,-0.017622165930271147,-0.08035700065419077,0.005435907443612813
1761476514002264800,7.815264892578125,-0.07508826647102833,-0.08286189614720642,0.0013715806141495705
1761476514012298000,7.825298095703125,-0.07114215919375419,-0.08852430582307279,-0.003463219131156802
1761476514022331000,7.835330810546875,-0.04777005143463611,-0.09013064504116773,-0.06554689646996557
1761476514032363800,7.84536376953125,-0.0736123486995697,-0.09155439423397183,-0.09814392869211733
1761476514042396700,7.855396728515625,-0.03676818042695522,-0.08222169854752719,-0.11736388520784675
1761476514052429800,7.865429931640625,-0.00009469254612922667,-0.06322459100224077,-0.12329656319245695
1761476514062462700,7.875462646484375,-0.004113865059614181,-0.06603464345429093,-0.13017492452934384
1761476514072495900,7.885495849609375,0.05510930828154087,-0.07622739003617315,-0.12994754551425575
1761476514082528800,7.89552880859375,0.05485737934708595,-0.08322298454456031,-0.13725918370187282
1761476514092561700,7.905561767578125,0.08448445584774017,-0.09355305723790079,-0.1403739547215402
1761476514102594800,7.9155947265625,0.17112170581519603,-0.09523607842139899,-0.13081702182516455
1761476514112627700,7.925627685546875,0.2226712757885456,-0.08468030721340328,-0.1251696635879576
1761476514122660900,7.935660888671875,0.2527431734472513,-0.09127857296727597,-0.14014007290042935
1761476514132693800,7.94569384765625,0.24369945077002048,-0.139287036267668,-0.12440372071675955
1761476514142727000,7.955726806640625,0.17769523898661135,-0.1742783432152122,-0.07906856827884912
1761476514152759800,7.965759765625,0.09984861371815204,-0.1570606664326042,-0.05809738418161869
1761476514162793000,7.97579296875,0.06502806022763252,-0.13162052022777496,-0.06011844168044626
1761476514172825900,7.985825927734375,0.027969372421503064,-0.130070660437271,-0.05713730697780847
1761476514182859000,7.99585888671875,-0.008629296657443046,-0.1237316301414743,-0.0712711193356663
1761476514192892000,8.005891845703125,-0.031010639813542365,-0.11622351953368633,-0.05194792164117098
1761476514202923800,8.015923828125,0.020229133558273313,-0.12680241588894278,-0.04247194502651691
1761476514212957000,8.02595703125,0.07083586972355842,-0.14556765090711413,-0.04292494949102402
1761476514222989800,8.03598974609375,0.04362462219297886,-0.19320348150283098,-0.03441394545100629
1761476514233023000,8.04602294921875,0.017872341299057005,-0.22627967554405332,0.013417407716810702
1761476514243055900,8.056055908203126,-0.022436288213729855,-0.20497498517613857,0.07046360234506428
1761476514253088800,8.0660888671875,-0.04645955335795879,-0.16513419237080962,0.07803074966371058
1761476514263122000,8.076121826171875,-0.06721008044183253,-0.134958359413594,0.034513533367961646
1761476514273154800,8.08615478515625,-0.13519582143127917,-0.13463530147168784,0.017649784589558837
1761476514283188000,8.09618798828125,-0.1536982773274183,-0.13338354784492404,0.021739318925514815
1761476514293220900,8.106220947265625,-0.1274520754367113,-0.09107855688314884,0.013654942799732088
1761476514303254000,8.11625390625,-0.09510872571468353,-0.05449135904628783,-0.027152576145902274
1761476514313286700,8.12628662109375,-0.009958499434590339,-0.09490301054213196,-0.0746276632219553
1761476514323320800,8.13632080078125,0.02371931376159191,-0.14287947126906364,-0.09638276423849165
1761476514333353700,8.146353759765624,0.03811725694835186,-0.1636988623380661,-0.08177541608475149
1761476514343387000,8.156386962890625,0.09957213486433028,-0.17712627999223768,-0.041218730095028876
1761476514353419800,8.166419677734375,0.08467325641810894,-0.19397278537489474,-0.0393347429793328
1761476514363453000,8.176452880859374,0.0934364085882902,-0.21462361494395882,-0.04957746618278324
1761476514373485800,8.18648583984375,0.06383972722589969,-0.2032174374517053,-0.05226823963671923
1761476514383519000,8.19651904296875,0.019933950003981588,-0.1704186721123755,-0.05031695943847298
1761476514393552000,8.2065517578125,-0.007747837647795677,-0.15580562487021088,-0.055414720968902105
1761476514403584800,8.216584716796875,-0.055688569474220274,-0.12015446577444672,-0.05957783199772238
1761476514413618000,8.226617919921875,-0.050019876188039776,-0.09508245876226573,-0.07772614069394766
1761476514423650800,8.23665087890625,-0.04600479532778263,-0.055316594356670974,-0.06787197841666638
1761476514433684000,8.24668408203125,-0.08080956672728061,-0.056894072806462644,-0.007652560579776763
1761476514443716900,8.256716796875,-0.08601882580816746,-0.07781641279328615,0.0408489469345659
1761476514453750000,8.26675,-0.063682490837574,-0.0678167776307091,0.027490064471960066
1761476514463783000,8.276782958984375,-0.04421615834534168,-0.06761263336073607,0.0074347531106323
1761476514473815800,8.28681591796875,-0.048560909551382064,-0.07226385670006275,-0.014517697108909487
1761476514483848700,8.2968486328125,-0.01918576198518276,-0.08046531986687332,-0.01534793738797307
1761476514493881900,8.3068818359375,-0.033688919112086296,-0.06963617507759481,-0.025740882717072963
1761476514503914800,8.316914794921875,-0.06150163966715336,-0.03316273981351405,-0.015647504856437445
1761476514513947600,8.32694775390625,-0.17008417946100235,0.011289419244788587,0.04954867847971618
1761476514523980800,8.336980712890625,-0.24856910263299942,0.06173460817281157,0.09786123929321765
1761476514534013700,8.347013671875,-0.13897124831676483,0.0802971602257341,0.10764511281326412
1761476514544046800,8.357046875,-0.06246960791647434,0.08416410131957382,0.07053294125422835
1761476514554079700,8.367079833984375,-0.0015215104788541792,0.04122680380363017,0.048859381041303274
1761476514564113000,8.37711279296875,0.07381400875151158,-0.02273070458304137,0.05058350142017007
1761476514574145800,8.387145751953126,0.1813882482856512,-0.06378945834338665,0.035193478456139564
1761476514584179000,8.397178955078125,0.19885785400271414,-0.058996634576283395,0.015006503539159893
1761476514594211800,8.4072119140625,0.16464286518990992,-0.06883848536126315,-0.00040361236482858653
1761476514604245000,8.417244873046876,0.17690204278230667,-0.07501344766914844,0.04388656106479466
1761476514614278000,8.42727783203125,0.13413316063582897,-0.07022014897800982,0.059582727368548506
1761476514624310800,8.437310791015625,0.07336977211534977,-0.04315397247392684,0.04850961775556206
1761476514634344000,8.447343994140626,0.0237415255934,0.007713752715103328,0.04386683345101774
1761476514644376800,8.457376953125,0.016426818665862084,0.02629957604575902,0.04034216645620763
1761476514654410000,8.467409912109375,0.012746668848395346,0.03301302914451808,0.029200667782127855
1761476514664443000,8.47744287109375,0.013682488393783568,-0.00045110476836562153,0.033827523865178226
1761476514674476800,8.487476806640625,0.0790104083508253,-0.03995499376952648,0.03394698552638292
1761476514684509700,8.497509765625,0.18972879112958907,-0.06520433010999113,0.03161298962086439
1761476514694546200,8.507546142578125,0.2065291192829609,-0.0909149272866547,0.09221424638219178
1761476514704579300,8.517579345703124,0.18388591032028198,-0.07956453510224819,0.1538332288186997
1761476514714612200,8.5276123046875,0.13102175061702728,-0.06853468010909855,0.16939890061058102
1761476514724645000,8.53764501953125,0.12448387328088283,-0.04872936145346612,0.17853022850602865
1761476514734678300,8.54767822265625,0.06865969472825527,-0.03948781464919448,0.17089498438723386
1761476514744711200,8.557711181640625,0.06625555619597434,-0.029451573803275823,0.14987681934311986
1761476514754744300,8.567744384765625,0.09636895490884781,-0.012701551065035163,0.15177710000649094
1761476514764777200,8.577777099609374,0.06987608478069306,-0.013455620835348963,0.1538304523397237
1761476514774810400,8.587810302734376,0.10599603043198585,-0.03061195935215801,0.17546448425985872
1761476514784843300,8.59784326171875,0.07205868951678275,-0.04145078528523445,0.17566475607231258
1761476514794879200,8.607879150390625,0.07931494425535202,-0.045853221495263274,0.17472908265739678
1761476514804912400,8.617912353515624,0.058738020172715184,-0.045145694280415774,0.18944727077446877
1761476514814945300,8.6279453125,0.014694295784831047,-0.04764963992536068,0.17304098343998192
1761476514824978400,8.637978515625,-0.010849310794472693,-0.030573380907438694,0.14688457872457802
1761476514835011300,8.64801123046875,-0.038198505491018296,-0.014686477804556487,0.12992745257429777
1761476514845044200,8.658044189453125,-0.040457682594656943,-0.017051745631173253,0.10805040567852556
1761476514855077400,8.668077392578125,-0.07897241442799567,0.002059124486893415,0.08825995579846203
1761476514865110300,8.6781103515625,-0.14303133736252785,0.010043803097866476,0.09721030110381543
1761476514875143200,8.68814306640625,-0.09349193816781043,0.03885280468128621,0.08801277610436081
1761476514885176000,8.698176025390625,-0.14057634542584418,0.031984453281760215,0.07586940691135824
1761476514895209200,8.708209228515624,-0.1290776308119297,0.009857157951965928,0.0707122433438897
1761476514905242000,8.7182421875,-0.060895490467548365,-0.013459456760250031,0.027097484957799314
1761476514915275300,8.728275146484375,-0.009046645286679268,-0.036540326487831766,-0.016869374801591036
1761476514925308200,8.73830810546875,0.04706336447000503,-0.046214127229526634,-0.04053125928752124
1761476514935341300,8.74834130859375,0.04484861102998256,-0.04962883104383945,-0.07010171023011207
1761476514945374200,8.758374267578125,-0.007341010412573814,-0.031050350769422946,-0.05999306173510849
1761476514955407000,8.768406982421874,-0.06329962899982929,-0.013772906623594462,-0.07516147783771157
1761476514965440300,8.778440185546875,-0.09976853421926497,0.02186429701205343,-0.10173632716089487
1761476514975473200,8.78847314453125,-0.1138280392318964,0.06501837908383458,-0.131294064752385
1761476514985506300,8.79850634765625,-0.08532324475944042,0.08298077328652143,-0.1711897295501083
1761476514995539200,8.808539306640625,-0.046482349711656566,0.0629378464827314,-0.18225224470384419
1761476515005572400,8.818572265625,0.002841360905766487,0.030962635953351855,-0.1530426629628986
1761476515015605200,8.828605224609374,0.04671382037997245,0.001403765850700438,-0.12445377040356397
1761476515025638400,8.838638427734375,0.08269698790907859,-0.011414835722744465,-0.08525032565370201
1761476515035671300,8.84867138671875,0.09713058693110942,-0.017882278171181678,-0.0719922001518309
1761476515045704400,8.858704345703124,0.12094225515127181,-0.024519487695954738,-0.08696976985745132
1761476515055737300,8.8687373046875,0.11892916176319121,-0.0056587929466739295,-0.08576236682906746
1761476515065770200,8.878770263671875,0.04440963509082794,-0.007459229964762925,-0.06240363000817597
1761476515075803400,8.888803466796874,0.017167407900094984,-0.0006332564022392034,-0.04369403416737914
1761476515085836300,8.898836181640625,0.023384382718801496,0.01394928610380739,-0.05072860897928476
1761476515095869200,8.908869140625,-0.04822130233347416,-0.0026635201208293434,-0.038774771009013054
1761476515105902000,8.918902099609374,-0.06247662217915058,-0.034631424126587804,-0.0352653015833348
1761476515115935200,8.928935302734375,0.0036269583255052564,-0.04549041606485844,-0.02003434163853526
1761476515125968100,8.938968017578125,0.005054945302009582,-0.05481715693455189,-0.020930413695424793
1761476515136001300,8.949001220703124,0.0402022465288639,-0.07524521059840918,-0.021276596784591675
1761476515146034200,8.9590341796875,0.0628419483602047,-0.10875040717404336,0.01375095052011311
1761476515156067000,8.969067138671875,0.060714873203635215,-0.11981672172006219,0.041551469180732964
1761476515166100200,8.979100341796874,0.04774842412471771,-0.11164861283358186,0.053690089133381844
1761476515176133000,8.989133056640625,0.03372574399113655,-0.11667371098659932,0.05642411720715463
1761476515186166300,8.999166259765625,-0.02373334228694439,-0.12788579067885875,0.04240596711821854
1761476515196199200,9.00919921875,-0.05718436098992824,-0.13282010527588425,0.03238850403800606
1761476515206232300,9.019232421875,-0.1008393783211708,-0.13007504435144365,0.02272942594140768
1761476515216265200,9.02926513671875,-0.11443828008472919,-0.1199267944984138,0.04852532678134739
1761476515226298400,9.03929833984375,-0.1046954692274332,-0.06633030193261802,0.06969795173481107
1761476515236331300,9.049331298828125,-0.12400982602834701,-0.04654956972897052,0.07330065240189433
1761476515246364400,9.059364501953125,-0.09574760814011096,-0.04655161555558443,0.0661162207905203
1761476515256397300,9.069397216796874,-0.06869535056352614,-0.05558284407742321,0.0678342767547816
1761476515266430200,9.07943017578125,-0.0939554640263319,-0.05463511489853263,0.04790639116540551
1761476515276463400,9.08946337890625,-0.0447772993594408,-0.061616059827059505,0.03598214461579918
1761476515286496300,9.099496337890624,-0.02277764899730682,-0.07658011246398091,0.022280001673474905
1761476515296529400,9.109529296875,0.01144727668762207,-0.07306399410180747,0.009364113738015293
1761476515306562300,9.119562255859375,0.015174772778153418,-0.07281703360341489,0.04367145700938999
1761476515316595200,9.12959521484375,0.039196284356713296,-0.06930171895883977,0.07358736038878559
1761476515326628000,9.139628173828125,0.03657704176902771,-0.060164180518314236,0.07527231780104339
1761476515336661200,9.1496611328125,0.033600071784853934,-0.05058284383304417,0.046993514104187485
1761476515346694100,9.159694091796876,0.04821604163646698,-0.024488471503183243,0.038030747708678245
1761476515356727300,9.169727294921875,0.0433393755108118,-0.011542553755640983,0.006020940789952874
1761476515366760200,9.17976025390625,0.04794833061099052,-0.024355273577570915,0.03400134606212377
1761476515376793000,9.18979296875,0.058688335812091826,-0.07194529227018356,0.04753960367962718
1761476515386826200,9.199826171875,0.06952887877821921,-0.0985136387873441,0.04272423928715288
1761476515396859100,9.209859130859375,0.0930056159555912,-0.10381306036971509,0.011680939313024281
1761476515406892300,9.219892333984374,0.07224632104337216,-0.13153423018381,0.03799545719958842
1761476515416925200,9.22992529296875,0.013503624695539474,-0.1316612906295806,0.06775916569195688
1761476515426958300,9.239958251953125,-0.028029578176140782,-0.12580986118763685,0.0867732243720442
1761476515436991200,9.2499912109375,-0.04747019170522689,-0.10656966560147701,0.08853416962996125
1761476515447024400,9.2600244140625,-0.02465337974131107,-0.08192549207992851,0.0814751910291612
1761476515457057300,9.270057373046875,-0.05203706122934818,-0.05642440946809947,0.07895144470520317
1761476515467090200,9.280090087890626,-0.11198387266993522,-0.05947765955887734,0.08300298511832951
1761476515477123300,9.290123291015625,-0.09083061000406742,-0.06257416426949203,0.06813691296316683
1761476515487156200,9.30015625,-0.0735597417294979,-0.07058971294276416,0.019267083593085408
1761476515497189400,9.310189453125,-0.016340893948078153,-0.08247764606997371,0.012747399500757456
1761476515507222300,9.32022216796875,0.06611059476733207,-0.09959171634763479,-0.005496989981085062
1761476515517255400,9.33025537109375,0.0904348886847496,-0.14235701829753816,-0.03586787058636546
1761476515527288300,9.340288330078126,0.09331190542578696,-0.1765945112030953,-0.017554580586776135
1761476515537321200,9.3503212890625,0.14864099393785,-0.14960333616398275,0.021960341265052554
1761476515547354000,9.36035400390625,0.11658405994176864,-0.10545571301020681,0.007189180851727724
1761476515557387300,9.37038720703125,0.027506431084871292,-0.051721273278445,-0.002583221426233649
1761476515567420200,9.380420166015625,-0.0014876082092523575,-0.06158164610080421,0.012369944490492344
1761476515577453000,9.390453125,-0.02324877364039421,-0.06807816851325332,0.020188070895522832
1761476515587486200,9.400486328125,-0.003221300134062767,-0.054934243975579736,0.031029929035902022
1761476515597519000,9.41051904296875,0.050637715825438495,-0.06805244955010711,0.007466682618856429
1761476515607552300,9.42055224609375,0.07291442956328392,-0.10967822607606649,-0.018239786371961234
1761476515617585200,9.430585205078126,0.014991817426681518,-0.13712956597283482,-0.0426473746586591
1761476515627618300,9.440618408203125,-0.014069441884756088,-0.10655760983750223,-0.058401481694728134
1761476515637651200,9.450651123046875,-0.038352819269895554,-0.07539835533350706,-0.02776383991204202
1761476515647684400,9.460684326171876,-0.06444353833794593,-0.045602790398150676,0.0032912235651165246
1761476515657717200,9.47071728515625,-0.09968670115470886,-0.025280571728944778,0.005436272769793867
1761476515667750400,9.48075048828125,-0.1353600720822811,-0.03274842339158058,0.00042881987132132053
1761476515677783300,9.490783203125,-0.14483926356732846,-0.05846154131889343,0.004284107059985399
1761476515687813000,9.500813232421875,-0.10664426520764828,-0.04306530780978501,-0.04714249412082135
1761476515697846000,9.510845947265626,-0.04627309087514877,-0.029563144418969747,-0.0758023330245167
1761476515707879200,9.520879150390625,-0.07660802338421344,-0.04415850987397134,-0.04910086164698004
1761476515717912000,9.530912109375,-0.06769581813216209,-0.054728930661827324,-0.014203297397494315
1761476515727945000,9.540945068359376,-0.062134676873683924,-0.04106624294705689,0.00020334055237472055
1761476515737977000,9.55097705078125,-0.046370121508836744,-0.029355566082894802,0.010573416462540626
1761476515748010000,9.561010009765624,-0.024451135167479515,-0.017982158349081873,0.012817834388464688
1761476515758043100,9.571043212890626,0.01259703124463558,-0.003138590286672115,-0.029107144279778
1761476515768076000,9.581075927734375,0.08205635191798209,-0.006227788473665714,-0.06372187299989164
1761476515778109200,9.591109130859374,0.08777531408667563,-0.0574662466712296,-0.04076645628288388
1761476515788142000,9.60114208984375,0.08601531867682934,-0.08265943237766624,0.008934197888150811
1761476515798175000,9.611175048828125,0.051071431067585944,-0.09509813125543295,0.03434570252038538
1761476515808208000,9.621207763671874,0.03148702515363693,-0.07302475806996225,0.04107201510071754
1761476515818240800,9.63124072265625,-0.01586217052042484,-0.06183313664384186,0.04321479928307235
1761476515828274000,9.64127392578125,-0.0623754998922348,-0.07734868568368256,0.04911795891225338
1761476515838306800,9.651306884765624,0.015405074402689933,-0.0647539194613695,0.05195807770900428
1761476515848340000,9.661340087890625,0.05544248575866222,-0.049741570703312754,0.03971585125140845
1761476515858372900,9.671372802734375,0.12020341948270798,-0.04747640225030481,0.030499256225302813
1761476515868406000,9.681406005859374,0.17885902206897736,-0.0738357821919024,0.0379939958948642
1761476515878439000,9.69143896484375,0.13974164816737175,-0.09428213869743049,0.054197965590283274
1761476515888471800,9.701471923828125,0.0051303486257791514,-0.11992336043231189,0.1028768024329096
1761476515898505000,9.7115048828125,-0.08894552690982818,-0.08420505438446999,0.13917619630433617
1761476515908537900,9.721537841796875,-0.04400748403072357,-0.02650930980630219,0.12061959906816482
1761476515918571000,9.731571044921875,-0.03533610179722309,-0.018260025442391633,0.07563654800355434
1761476515928604000,9.74160400390625,-0.04898234983384609,-0.0790022981096059,0.07366152160353959
1761476515938637000,9.751636962890625,-0.049779053169488906,-0.13517412105612456,0.06107048170827329
1761476515948670000,9.761669921875,-0.0528115527331829,-0.12718188019320367,0.04850589142851531
1761476515958703000,9.771703125,-0.07277531335353851,-0.09912629079297185,0.05657945389933884
1761476515968736000,9.781736083984375,-0.11101181276738643,-0.05912256251089275,0.0893358414016664
1761476515978769200,9.79176904296875,-0.1495855813115835,-0.037947745600342746,0.09756905141361057
1761476515988802000,9.801802001953124,-0.10262626173794269,-0.05159852368161082,0.07796499095112085
1761476515998835000,9.8118349609375,-0.04071019605100155,-0.08509476976580917,0.08115743031688034
1761476516008867000,9.8218671875,0.032546763339638705,-0.10825367316566407,0.1017662839077413
1761476516018900000,9.83189990234375,0.08116787864565848,-0.12267404737994074,0.0823203366164118
1761476516028933000,9.84193310546875,0.12407236987054347,-0.12944726784192026,0.05864193938709795
1761476516038966000,9.851966064453125,0.09450316103696822,-0.10948146139495074,0.04878565821796656
1761476516048999200,9.861999267578126,0.035737668335437775,-0.06802716897837817,0.06689012777246535
1761476516059032000,9.872031982421875,-0.006654197192192077,-0.029612463453412053,0.06854863556921481
1761476516069065000,9.88206494140625,-0.06287409706413745,-0.015318492097780108,0.06085888478420674
1761476516079098000,9.89209814453125,-0.054663318079710005,0.004903773328289389,0.04927219962589442
1761476516089130800,9.902130859375,-0.017703998994827268,0.009728855397179723,0.025610534335672855
1761476516099164000,9.912163818359375,0.0025870938837528226,-0.023068229441717266,0.022522066801041362
1761476516109196800,9.92219677734375,0.08252396942973136,-0.06427768025174736,0.037117213060334324
1761476516119230000,9.93222998046875,0.11465806031525135,-0.08449293141514062,-0.004813610826805234
1761476516129262800,9.942262939453125,0.15578502047359943,-0.1070082762144506,-0.021269655587151645
1761476516139296000,9.9522958984375,0.11847031207978724,-0.13459537132009863,0.004761880639567971
1761476516149329000,9.962328857421875,0.0614648147881031,-0.1109016303911805,0.059021074897795914
1761476516159361800,9.97236181640625,0.09342997884750366,-0.04899016781412065,0.06758863143064081
1761476516169395000,9.98239501953125,-0.001135141509771347,-0.037349998902902005,0.08149908336140214
1761476516179427800,9.992427734375,-0.056069677746295926,-0.05993007950149476,0.06116013275310397
1761476516189461000,10.0024609375,-0.050294016954302787,-0.06535780363865196,0.03597754150591791
1761476516199494000,10.012493896484376,-0.009369885891675948,-0.04605294531844556,0.022278248107805848
1761476516209526000,10.022526123046875,-0.038646249258518214,-0.03219583101011812,0.010172069120034575
1761476516219559000,10.032558837890624,-0.03103577425479889,-0.056094592991843814,0.05068367385901511
1761476516229591800,10.042591796875,-0.028036592438817023,-0.05522482441999018,0.07921652538217604
1761476516239625000,10.052625,-0.04517243615686893,-0.04220934856757522,0.0789138161085546
1761476516249657900,10.062657958984374,-0.034544659158587454,-0.039149303409829736,0.07028634608201682
1761476516259691000,10.07269091796875,-0.10513619873225688,-0.04886420334689319,0.07559329338371754
1761476516269724000,10.082723876953125,-0.09331365899145602,-0.036848625252023336,0.08192578434087336
1761476516279757000,10.092757080078124,-0.046110009267926216,-0.011921835396811365,0.0824829798322171
1761476516289790000,10.1027900390625,0.0033551556468009946,-0.0011827069785445927,0.08171813293956219
1761476516299823000,10.112822998046875,0.04698094688355922,0.005982581540942192,0.07901924924440681
1761476516309856000,10.12285595703125,0.011048048236966132,0.0017255816835910081,0.08191898927390574
1761476516319889200,10.13288916015625,0.04796002104878425,0.02351253914311528,0.07840747402161359
1761476516329922000,10.142922119140625,0.03639817807078361,0.054826691947877405,0.08128259106650948
1761476516339955000,10.152954833984374,0.002189034476876259,0.04653985205255449,0.10045775859244167
1761476516349988000,10.162988037109375,-0.07253098320364952,0.0609665829423815,0.07428959037400781
1761476516360021000,10.17302099609375,-0.06981529450416564,0.08488331897221506,0.030969650216028093
1761476516370054000,10.183053955078124,0.025232640933990476,0.08676767141409218,0.02962992604486644
1761476516380086000,10.1930859375,0.05483750560283661,0.05204838634096086,0.002582856100052595
1761476516390119000,10.203118896484375,0.12760288208425044,0.0038193390924483534,-0.03468041436746716
1761476516400152000,10.213152099609376,0.18769582399725912,-0.022662425119802355,-0.036838542249426245
1761476516410185000,10.22318505859375,0.14398527708649633,-0.03761551797129214,0.0026123744554817675
1761476516420218000,10.233218017578125,0.06189969907402992,-0.05624715320505202,0.030002193423360586
1761476516430251000,10.2432509765625,0.014537059396505354,-0.051489510349184274,0.005396671411767601
1761476516440284000,10.253283935546875,-0.05811550436019897,-0.016108546496927736,-0.020211086444929242
1761476516450316800,10.26331689453125,-0.13222060501277447,-0.010520151905342936,-0.01384688517525792
1761476516460350000,10.273349853515626,-0.10853928517401218,-0.0013861205961555243,-0.009578414075821638
1761476516470382800,10.2833828125,-0.11262509318292141,0.02176452643200755,-0.018707476948946714
1761476516480416000,10.293416015625,-0.04759411034584045,0.022092370146885514,-0.05178162516355514
1761476516490449000,10.303448974609376,-0.03413198670446872,0.0018748539611697197,-0.011754589071124791
1761476516500481800,10.313481689453125,-0.002034136176109314,-0.00387143460586667,-0.00823642488233745
1761476516510515000,10.323514892578125,0.07052022790312766,-0.0061750353731215,-0.015382424179464577
1761476516520547800,10.3335478515625,0.11242577121853828,-0.031968525060266255,-0.018047770931199192
1761476516530581000,10.3435810546875,0.09859481426477432,-0.028916444013267754,0.015014029258489608
1761476516540612900,10.35361279296875,0.08594576057195663,-0.016294205262139438,0.057559477912634605
1761476516550646000,10.36364599609375,0.01882861911058426,-0.0037584757506847377,0.06401033455245196
1761476516560679000,10.373678955078125,-0.01581073259413242,0.00373911346308887,0.028784488196671006
1761476516570711800,10.3837119140625,-0.0011637830823659895,-0.0009072510380297899,0.02573547588959336
1761476516580745000,10.393744873046876,0.030902503263950346,0.06883702405653894,0.03061974079981446
1761476516590777900,10.40377783203125,0.00827449187040329,0.08118322234526276,0.040013007567077874
1761476516600811000,10.41381103515625,0.01621639078557491,0.05147760071568191,0.07997691529542207
1761476516610844000,10.423843994140626,0.034602526825666426,0.030521541122347114,0.11062902399487792
1761476516620877000,10.433876953125,0.0638829818457365,0.022062632595747707,0.08528853877224028
1761476516630910000,10.443909912109374,0.049663902357220645,0.0049648558657616375,0.07204086159914731
1761476516640943000,10.453943115234376,-0.007840776628255844,-0.017565978763625024,0.07129245438463985
1761476516650976000,10.46397607421875,-0.027546763095259663,-0.005704860578104853,0.048961599306762214
1761476516661009200,10.474009033203124,-0.008605915781855582,0.009080912882462143,0.040263548262044785
1761476516671042000,10.4840419921875,0.003330605727434158,-0.0022415683817118403,0.02860971615165472
1761476516681074000,10.494073974609375,0.02601297765672207,-0.030017098731547592,0.020059622210264205
1761476516691111000,10.50411083984375,0.008889993420243263,-0.053259077304974194,0.05359240091256797
1761476516701144000,10.51414404296875,0.028483167162537574,-0.05782397406771779,0.08464863343350588
1761476516711177000,10.524177001953126,0.053670799911022186,-0.050777197361364955,0.10254179832488297
1761476516721210000,10.534210205078125,0.04708090012669563,-0.04930464059077203,0.1334280811063945
1761476516731243000,10.544242919921874,0.007077975562214851,-0.04937142221666872,0.13826258859075605
1761476516741276000,10.55427587890625,0.01933481506705284,-0.049732437548786396,0.1251020782444626
1761476516751308800,10.564308837890625,0.03810615103244781,-0.0400199487645179,0.12568959580883382
1761476516761342000,10.574342041015624,-0.010405074158310889,-0.026349150808528066,0.11524623546674848
1761476516771374800,10.584374755859375,-0.032245734566450114,-0.03209536631032824,0.12857114259451627
1761476516781408000,10.594407958984375,-0.05750643255114555,-0.016589608012139795,0.15610365796871484
1761476516791441000,10.60444091796875,-0.049347676014900206,-0.00938420667797327,0.1557674117516726
1761476516801473800,10.614473876953125,-0.027416999235749244,-0.017335531008616088,0.15923333429656922
1761476516811506000,10.624505859375,-0.06152502054274082,-0.03415105673111975,0.1459333424143493
1761476516821538800,10.634538818359376,-0.06308686303198337,-0.03737447575703263,0.12905088893547653
1761476516831572000,10.644572021484375,-0.05219546666145324,-0.01541106575205922,0.10726831539012491
1761476516841604900,10.65460498046875,-0.039406127715110775,0.0008681611366569995,0.06862908039428293
1761476516851637800,10.6646376953125,-0.029221418309211728,-0.0025678046613931654,0.04340842215903103
1761476516861671000,10.6746708984375,-0.01421966401040554,-0.02523622113056481,0.018861133140698073
1761476516871703800,10.684703857421875,0.05496726946234703,-0.023662395942583677,0.02499306002445519
1761476516881737000,10.694737060546874,0.08251286351382732,-0.029016616452112794,-0.010904986504465341
1761476516891769900,10.704769775390625,0.06987959191203116,-0.05191825715526938,-0.031324747264012694
1761476516901803000,10.714802978515625,0.08807984999120234,-0.046265565155819054,-0.019823402301594614
1761476516911836000,10.7248359375,0.09454057043790817,-0.015260843626409767,-0.04181516161821782
1761476516921869000,10.734869140625,0.09836042098700999,-0.03880860021337867,-0.08161715678311884
1761476516931902000,10.74490185546875,0.1256616848886013,-0.09719444594755768,-0.08291589135676622
1761476516941933800,10.754933837890626,0.13827566726803778,-0.12207863877005874,-0.09200038443580269
1761476516951967000,10.764967041015625,0.16518588602542877,-0.14707973597049712,-0.08357698561400174
1761476516962000000,10.774999755859374,0.16136252834498882,-0.17966821956001222,-0.0579503038611263
1761476516972033000,10.785032958984376,0.12194763280153274,-0.18756861742101608,-0.04633651150017976
1761476516982066000,10.79506591796875,0.11311083087325095,-0.17740224738940596,-0.04671213987953961
1761476516992099000,10.80509912109375,0.02240881568491459,-0.19993183990977703,-0.06553469457551836
1761476517002132000,10.815132080078126,0.057796939930319785,-0.20461042618006467,-0.07080854332521558
1761476517012165000,10.8251650390625,0.11653145297169684,-0.21660803022682665,-0.060555079532042144
1761476517022198000,10.835197998046874,0.07235913376808166,-0.25402481075562533,-0.060789399744570254
1761476517032231000,10.84523095703125,0.06382569870054722,-0.3096327892743051,-0.03997479444853961
1761476517042264000,10.85526416015625,0.03628478082418442,-0.3243066998582333,0.014048106835782528
1761476517052296000,10.8652958984375,-0.04352408442795276,-0.28964769360497594,0.042587022773548956
1761476517062329000,10.8753291015625,-0.09905191038250923,-0.26622655907236037,-0.0058819707106798885
1761476517072362000,10.885362060546875,-0.11019231307804583,-0.2548008366294205,-0.033915348279103634
1761476517082395000,10.895394775390624,-0.14450024087131022,-0.23261545443683862,-0.02410546353496611
1761476517092428000,10.905427978515625,-0.19787819531559944,-0.22933555598333477,0.01955408384092152
1761476517102461000,10.9154609375,-0.08891337820589541,-0.22125739040262996,0.020528993287682533
1761476517112494000,10.925494140625,-0.14502455700635908,-0.1784907002132386,0.0030546383302658795
1761476517122527000,10.93552685546875,-0.1721165620714426,-0.14405315469093619,-0.007772533697634935
1761476517132560100,10.94556005859375,-0.09936170698404312,-0.14962087182067335,-0.0105853991612792
1761476517142593000,10.955593017578124,-0.046237435039877886,-0.1146037728447467,0.0009762976862490177
1761476517152626000,10.9656259765625,-0.0685235011279583,-0.0401995431151241,0.04305960872136056
1761476517162658000,10.975657958984375,-0.0174544081479311,-0.011093494813889264,0.06105827981382608
1761476517172691000,10.98569091796875,0.06440320632755756,-0.012755144415795802,0.05527041712738573
1761476517182724000,10.99572412109375,0.024528292056918144,-0.027866423503682014,0.07490224237963557
1761476517192757000,11.005757080078125,0.058520578029751774,-0.02964132422171533,0.06893544292971492
1761476517202790100,11.0157900390625,0.15589257250130176,-0.01650017616301775,0.01591170875057578
1761476517212823000,11.025822998046875,0.14130816683173178,-0.01079495025873184,-0.036322993942722676
1761476517222856000,11.03585595703125,0.0934720644235611,-0.013678469805791973,-0.02804879433326423
1761476517232888800,11.045888916015626,0.06491933915615082,0.0034662878710776564,-0.01852167205326259
1761476517242922000,11.055921875,0.03993161289393902,0.011888956040516496,0.010628361520171164
1761476517252955000,11.065954833984375,0.007146949145197868,0.009483940725401043,0.05055076819434762
1761476517262987800,11.07598779296875,-0.01857493661046028,-0.006392404450848699,0.04837883098274469
1761476517273020000,11.08602001953125,-0.007885200291872023,-0.006439969919621944,0.008187909565493465
1761476517283052800,11.096052734375,-0.026598668590188026,0.0019513532634824514,-0.02886369091272354
1761476517293086000,11.1060859375,-0.01703998212814331,-0.010148395983502268,-0.043409883463755246
1761476517303118800,11.116118896484375,0.02050736597776413,-0.011595745247602462,-0.019130305470898747
1761476517313151700,11.12615185546875,0.007407061386108398,0.0004420446790754795,-0.005325213610753417
1761476517323185000,11.136184814453125,0.04757774373292923,-0.019284400054067372,-0.02962937805559486
1761476517333217800,11.1462177734375,0.08764496570527552,-0.05069960208050906,-0.05173690923899412
1761476517343251000,11.1562509765625,0.05943301669955253,-0.06484517794139683,-0.04999883340001106
1761476517353283800,11.166283935546875,0.08756196359694003,-0.06249737270623445,-0.0811409175734967
1761476517363317000,11.17631689453125,0.26507892340719696,-0.03564984392151236,-0.1681666554018855
1761476517373348900,11.186348876953126,0.14983984833359718,-0.030758418618142602,-0.11632274212446063
1761476517383381800,11.1963818359375,0.07545709978342056,0.0600390197686851,0.06497899692151696
1761476517393415000,11.206414794921875,-0.37867315388321876,0.06453888847120105,0.25600221177581695
1761476517403447800,11.21644775390625,-0.3962169938802719,-0.012604410833492874,0.16967037449572234
1761476517413481000,11.22648095703125,-0.18414076186418532,0.06371865812949835,0.07284348321892321
1761476517423513900,11.236513916015625,-0.08476093470156193,0.07056903548091649,0.048759208602458234
1761476517433547000,11.246547119140626,-0.014232523491978644,0.08699950740858912,0.03684219551123678
1761476517443580000,11.256579833984375,-0.010011690926551818,0.13368614752069116,0.023574206202477216
1761476517453613000,11.266613037109375,-0.002568389183282852,0.181220782764256,0.004768200782500207
1761476517463646000,11.27664599609375,0.006771101570129394,0.15151713389605284,-0.031214053431153296
