time,seconds_elapsed,z,y,x
1761475516858163700,0.067163818359375,-0.4117155917853117,-0.11336480563431978,-0.19962222597133367
1761475516868141000,0.07714111328125,-0.4485615136235952,-0.06650215136818588,-0.25783826809655874
1761475516878118700,0.08711865234375,-0.42418578177988525,-0.026329642390459776,-0.2529286860819906
1761475516888095700,0.097095703125,-0.3709364221513271,-0.03366619582362473,-0.19809443188216536
1761475516898072800,0.10707275390625,-0.29059213484823704,-0.0028073125056922435,-0.08236874233540147
1761475516908050000,0.1170498046875,-0.20691315016448497,0.042810090939700604,0.035549817613139745
1761475516918027000,0.127027099609375,-0.13277531628608702,0.09606376141719519,0.11613912918586283
1761475516928003800,0.13700390625,-0.004844517421722412,0.1287313746575266,0.1424870744179934
1761475516937981000,0.14698095703125,0.12302666020989417,0.11849530039057135,0.1327338517645374
1761475516947957800,0.156957763671875,0.20303601647019384,0.06531403756216168,0.10452190275881439
1761475516957934600,0.1669345703125,0.18889643195867536,0.020890666206926107,0.0459586911637336
1761475516967911400,0.176911376953125,0.1534860958814621,-0.0003251403011381626,0.004911372112855315
1761475516977888500,0.186888427734375,0.1472889948070049,0.058953124228119845,-0.012783091868646443
1761475516987865300,0.196865234375,0.16037936252653598,0.08807999612167478,0.051850817942246795
1761475516997843500,0.206843505859375,0.19839140553474424,0.09266630099862813,0.12853249108456075
1761475517007820500,0.216820556640625,0.24813304930329322,0.08047975025102495,0.19345332807805388
1761475517017797400,0.22679736328125,0.2785433851361275,0.055321928118914364,0.21584997840113937
1761475517027774500,0.2367744140625,0.2593587921947241,0.05295454140044748,0.17952387918587773
1761475517037751600,0.24675146484375,0.18273674028515816,0.04841068742573261,0.1622785472113639
1761475517047728600,0.256728759765625,0.06428747099339961,0.08869849334619939,0.15419661877099425
1761475517057705700,0.266705810546875,0.013535773399472236,0.09728548523187637,0.1303111181296408
1761475517067682600,0.2766826171875,-0.03804010005891323,0.10882336281239986,0.09556903670281171
1761475517077659600,0.28665966796875,-0.052283729466795915,0.09837700679562986,0.08083334946166723
1761475517087636500,0.296636474609375,-0.06693067897856235,0.0600127162836492,0.022615919096954165
1761475517097613600,0.306613525390625,-0.060869771504402155,0.018287644101679323,-0.013409918530099093
1761475517107590400,0.31659033203125,-0.03469780389368534,0.00017879063300788403,-0.05862330775186419
1761475517117567500,0.3265673828125,0.008809329399466515,-0.03192052120007574,-0.059684945634007454
1761475517127545600,0.336545654296875,-0.04192717062532902,-0.07942300773970783,-0.02445635933186859
1761475517137522400,0.3465224609375,-0.07897416799366473,-0.044701384579017754,-0.055037521686963735
1761475517147499500,0.35649951171875,-0.08530804719030857,-0.005275163923949003,-0.07456190450936555
1761475517157476600,0.3664765625,-0.08191080596745014,-0.005128595060110092,-0.004967267018556595
1761475517167453400,0.376453369140625,-0.058443421140313145,-0.038651509955525395,-0.013477832667157054
1761475517177430500,0.386430419921875,-0.05262742833793163,-0.05564436500631272,-0.06827533505316823
1761475517187407600,0.39640771484375,-0.05464344433546066,-0.04791998129934072,-0.1223361937277019
1761475517197384700,0.406384765625,-0.06286240662634372,-0.027855755979195235,-0.11550313283726572
1761475517207361500,0.416361572265625,-0.03670505206286907,-0.05485562578141689,-0.07199526889175176
1761475517217338600,0.426338623046875,-0.02538286305963993,-0.04851239423453808,-0.04439326847791671
1761475517227315700,0.436315673828125,-0.006594575959444046,-0.02822473542205989,-0.03214662157353013
1761475517237292500,0.44629248046875,-0.00537877042889595,0.0013718728750944137,-0.01738400979284197
1761475517247269600,0.45626953125,0.017069208222627637,0.03720240712575614,-0.023608692993968724
1761475517257247500,0.46624755859375,0.062142275658249854,0.052532735791802405,-0.001513400237634778
1761475517267224600,0.476224609375,0.09370996483266353,0.04124897910282015,0.029939138124510645
1761475517277201700,0.48620166015625,0.07520458632707595,0.036464813566207885,0.030864947732537982
1761475517287178500,0.496178466796875,0.07979892838001251,0.08255429150275885,0.019378654208779333
1761475517297155600,0.506155517578125,0.09330255307555198,0.06031067631691694,0.04314783499408513
1761475517307132400,0.51613232421875,0.0628717589765787,0.03140614193715155,0.05416629181038588
1761475517317109500,0.526109619140625,0.020152561190724373,0.041648061423003674,0.05852021270357072
1761475517327086300,0.53608642578125,0.0014279869765043258,0.08122655003033578,0.04437467337530106
1761475517337063400,0.5460634765625,-0.006140986973047256,0.09804134510047734,0.04743135753218084
1761475517347040800,0.556040771484375,0.016421557968854902,0.06979439784660935,0.06962985493466257
1761475517357017600,0.566017578125,0.033414778345823286,0.049538595477119085,0.09095690326485782
1761475517366994700,0.57599462890625,0.02724281171262264,0.05665872968062758,0.09033077072314917
1761475517376971500,0.585971435546875,-0.0030798458367586132,0.06800663764700293,0.07592508262135088
1761475517386949600,0.59594970703125,-0.01626607514619827,0.08767536084353923,0.05148976607751101
1761475517396926700,0.6059267578125,-0.021416297516226767,0.05606726659350097,0.024240561156719923
1761475517406903600,0.615903564453125,-0.06885375599563122,0.04064516799077392,0.010479600699245929
1761475517416880600,0.625880615234375,-0.09380816451013088,0.04951945238523185,-0.03380414298959076
1761475517426857500,0.635857421875,-0.054176995867490765,0.05172105408273637,-0.04051463694628328
1761475517436834600,0.64583447265625,-0.02193476843237877,0.03915880189053714,-0.03234053671043366
1761475517446811400,0.655811279296875,0.011636077257990837,0.03585683773569762,-0.0033620603116229176
1761475517456788500,0.66578857421875,0.01877542761862278,0.029622327260300514,0.010195632658712565
1761475517466765600,0.675765625,-0.015564064356684684,-0.00042713937088847156,-0.00819678699169308
1761475517476742400,0.685742431640625,-0.05732698433101177,-0.01057012852691114,-0.04982040809318423
1761475517486719500,0.695719482421875,-0.07443360195457935,0.00265431390106678,-0.08987615882344543
1761475517496696600,0.705696533203125,-0.05287292753159999,-0.0010615648169070482,-0.11125252618808298
1761475517506673700,0.715673583984375,-0.0018903437912464142,-0.031815745651349425,-0.06958225293327122
1761475517516650500,0.725650390625,0.046590486261248586,-0.03997187183909118,-0.03542991756051778
1761475517526628600,0.735628662109375,0.08192191188335418,-0.02616436882615089,-0.04067914332561195
1761475517536605700,0.745605712890625,0.0669113897562027,-0.01769355066604912,-0.023190979038551447
1761475517546582500,0.75558251953125,0.029729952353239057,-0.01614902463778853,-0.04209807021282613
1761475517556559600,0.7655595703125,0.006411036086082458,-0.01975574389286339,-0.05313870232831686
1761475517566536700,0.77553662109375,-0.001533200916647911,-0.013841478347778319,-0.039357904659211636
1761475517576513500,0.785513427734375,0.005324409893155098,-0.0020627777487039565,-0.03685622403658926
1761475517586490600,0.79549072265625,0.011593407160043716,0.024749460526928304,-0.020839958932995794
1761475517596467500,0.805467529296875,0.05623977361619472,0.02364734450392425,0.017026318928971884
1761475517606444500,0.815444580078125,0.0824485661059618,0.015313596726953982,0.043389132936671376
1761475517616421400,0.82542138671875,0.06819733791351318,0.02395122282132506,0.03835026198662817
1761475517626398500,0.8353984375,0.011411620852351189,0.048624184045940634,0.05275554822962731
1761475517636375600,0.84537548828125,-0.0410042105615139,0.09296075390055775,0.04184709112644195
1761475517646352600,0.8553525390625,-0.0613777210265398,0.10451572874635458,0.032311675942130386
1761475517656330500,0.86533056640625,-0.07868249157071112,0.09158179369755089,0.043003859946131706
1761475517666307300,0.875307373046875,-0.07308686352074145,0.06917772725299,0.07064469453301281
1761475517676284700,0.88528466796875,-0.04367196846604347,0.07437383459135889,0.060693611219897865
1761475517686261800,0.89526171875,-0.04562310253381729,0.07692110792137682,0.08857125023733824
1761475517696238600,0.905238525390625,-0.07961421946287155,0.07016651909463108,0.0935497693022713
1761475517706215700,0.915215576171875,-0.09875380421876907,0.1022239645473659,0.09922964156959205
1761475517716192500,0.925192626953125,-0.08191489762067794,0.12828472686856984,0.09827007582243531
1761475517726169600,0.935169677734375,-0.08068973973989486,0.10087328059077262,0.08266524106394499
1761475517736146400,0.945146484375,-0.036108255213499064,0.08887640719637274,0.07777809007689357
1761475517746123500,0.95512353515625,0.014757424148917198,0.07250197630487382,0.07433996885437517
1761475517756100600,0.9651005859375,0.03284954567849636,0.05654796278253197,0.06947711205836385
1761475517766077400,0.975077392578125,0.08123860579431057,0.04475377235338092,0.04242456222083419
1761475517776054500,0.985054443359375,0.10146773935258388,0.022756606209278104,0.002019778857193887
1761475517786031400,0.99503125,0.09730068280100822,0.00963094798065722,0.020811025099456308
1761475517796009500,1.005009521484375,0.0759562814772129,0.0034613925002515314,0.051451370295882225
1761475517805986600,1.014986572265625,0.06188274793922901,0.0007145049449056387,0.06280979965627193
1761475517815963400,1.02496337890625,0.0630249037116766,0.0340218043282628,0.05072864551190286
1761475517825940700,1.034940673828125,0.07762333790659905,0.04851918930150568,0.050186245730891824
1761475517835917600,1.04491748046875,0.10728665476441383,0.05386551876552403,0.020322510930150747
1761475517845894700,1.054894775390625,0.09890636443197727,0.013824381082504987,0.009232230986654757
1761475517855871500,1.06487158203125,0.049745735421776766,-0.027394349012523887,-0.02231068907268345
1761475517865848600,1.0748486328125,0.013626374292373657,0.01364449447095394,-0.05777027111910283
1761475517875825700,1.08482568359375,-0.01594108097553253,0.022030703087523577,-0.05535287124644964
1761475517885802500,1.094802490234375,-0.04568213924467563,0.0030905133612453934,0.019249036479741334
1761475517895779600,1.104779541015625,-0.05493921241164207,0.008322349600121378,0.04918481360338628
1761475517905756400,1.11475634765625,-0.06616378625929355,0.007974997467175126,0.033390009230747815
1761475517915733500,1.1247333984375,-0.09436579839289187,0.009410583228245378,0.01489975522905588
1761475517925711600,1.134711669921875,-0.07881050186455249,0.02611694948785007,-0.02277121925652027
1761475517935688400,1.1446884765625,-0.07224164486825466,0.0032667467109858987,-0.013585384694859384
1761475517945665500,1.15466552734375,-0.08226911788582801,-0.0020054946035146714,0.009055084321461617
1761475517955642000,1.16464208984375,-0.09655424834787844,0.012727818017452954,0.021313385131023824
1761475517965619200,1.174619140625,-0.13417992238700388,0.05110138781443238,0.04733914920408278
1761475517975596300,1.18459619140625,-0.13812076896727085,0.10088599394187331,0.031293402277678246
1761475517985573400,1.194573486328125,-0.09139993432462215,0.12468480268046259,0.027591369421966373
1761475517995550500,1.204550537109375,-0.017682956206798554,0.09540924303121864,0.050477556827664374
1761475518005527300,1.21452734375,0.04573416169285774,0.06276442614458501,0.038420879537425935
1761475518015504400,1.22450439453125,0.08995090456008911,0.024829613091051576,0.027975656031817196
1761475518025481200,1.234481201171875,0.09279927972853183,-0.0063370210018008945,-0.006142777071334421
1761475518035458300,1.244458251953125,0.027620412853360175,0.004621887646988034,-0.009865122062712907
1761475518045435100,1.25443505859375,-0.012784078249335288,0.03307575564980507,-0.02274360059723258
1761475518055412200,1.264412109375,-0.024313772523403165,0.06905505072139204,-0.008086312354542314
1761475518065390300,1.274390380859375,0.01549099912047386,0.1113964281708002,0.005913059968687594
1761475518075367200,1.2843671875,0.10313888743519782,0.08907222202941775,0.03665832684431225
1761475518085344300,1.29434423828125,0.165711371204257,0.04252674395367503,0.061861339825019235
1761475518095321000,1.304321044921875,0.21357260805368422,-0.014571546187996864,0.053852951544895764
1761475518105298200,1.314298095703125,0.23103169237673282,-0.055645095658674835,0.032739144106581804
1761475518115275300,1.324275146484375,0.1551151583880186,-0.03859495746269822,0.012070121293701231
1761475518125252400,1.33425244140625,0.05985562602579593,-0.017141542806476354,-0.009095452864468096
1761475518135229400,1.3442294921875,-0.0008656769186258316,-0.0015055822573602198,-0.03264028684198856
1761475518145206300,1.354206298828125,-0.03630640813410282,0.024882950713485476,-0.020275128124468026
1761475518155183400,1.364183349609375,-0.04907119716107845,0.04207315496727824,0.008765453725121915
1761475518165160200,1.37416015625,-0.05181903456449508,0.029893033960461616,0.02006214296091348
1761475518175137300,1.38413720703125,-0.02338379819691181,0.011733692413568496,0.00450655417162925
1761475518185114400,1.3941142578125,-0.010881459498405455,-0.018000789984315632,-0.000028824235685169694
1761475518195091200,1.40409130859375,-0.04082651590704918,-0.039390199493616815,0.0009849193841218948
1761475518205069300,1.4140693359375,-0.12040800214409828,-0.027746669581532477,0.003429828318208456
1761475518215046400,1.42404638671875,-0.18302081792354583,0.02739537192583084,0.005115224121883511
1761475518225023200,1.434023193359375,-0.20115327146351336,0.07600340855456889,0.013633717348612844
1761475518235000300,1.444000244140625,-0.18439795149564742,0.0847931564707309,-0.002760331558808684
1761475518244977200,1.45397705078125,-0.09530512506961822,0.06263115515373646,0.02838445602841675
1761475518254954200,1.463954345703125,-0.01301145726442337,0.05434913756400347,0.04260627546329051
1761475518264931300,1.473931396484375,0.027746669581532477,0.033193536810576914,0.06600037585850804
1761475518274908400,1.483908447265625,-0.012208324187994002,0.030514234598726032,0.10811251112930476
1761475518284885500,1.493885498046875,-0.09860241304934024,0.052730742581933734,0.07521445013396441
1761475518294862300,1.5038623046875,-0.15498656357228754,0.09938998323045671,0.00395925901979208
1761475518304839400,1.51383935546875,-0.11592881090342998,0.12158932088315486,-0.014910751547105609
1761475518314816300,1.523816162109375,-0.0016349077254533767,0.09236585674732924,0.03027260786257684
1761475518324793300,1.53379345703125,0.11123393108546734,0.06397109852060676,0.04471117532067
1761475518334770200,1.543770263671875,0.2144143195748329,0.023752412313595414,0.04943173756916076
1761475518344747300,1.553747314453125,0.22039514755010603,0.0007434387784451246,0.047390733260847626
1761475518354725400,1.563725341796875,0.15537819323837757,0.01400572899878025,0.04265037033334374
1761475518364702200,1.5737021484375,0.12987608771324158,0.04880976974591612,-0.004891133042424917
1761475518374679300,1.58367919921875,0.09383972869217395,0.05463365359380841,-0.0015566548574715853
1761475518384656100,1.59365625,0.09038637336790561,0.045465646949782966,0.0005670227656140923
1761475518394633200,1.60363330078125,0.10726678102016449,0.04832717386074364,0.019010186222568153
1761475518404610300,1.6136103515625,0.13837678955495356,0.030849311771988866,0.025768793637305498
1761475518414587100,1.623587158203125,0.10688158109486103,-0.0026099633026868104,0.034122999680414795
1761475518424564500,1.633564453125,0.05804068555831909,0.02097527575045824,0.055127793786302205
1761475518434541300,1.643541259765625,0.008550386202335357,0.044794761950895184,0.006274404094368219
1761475518444518400,1.653518310546875,-0.02029167740046978,0.007572919472306966,0.0011532982209697365
1761475518454495200,1.6634951171875,-0.027951252242922782,-0.00968786579966545,0.020077925051935015
1761475518464472300,1.673472412109375,-0.03998597342967987,0.01620462728254497,0.02689845525436103
1761475518474449400,1.683449462890625,-0.05129881008267402,0.0028007366344332692,0.03687328476924449
1761475518484426200,1.69342626953125,-0.09623977557122707,0.0059302668318152426,0.04300254477187991
1761475518494404400,1.703404296875,-0.1283054773956537,0.05698372385129332,0.027701551798172293
1761475518504381200,1.713381103515625,-0.09849603006541728,0.062273793083429334,-0.004522993849776685
1761475518514358300,1.723358154296875,-0.062006666579842565,0.03523169157467782,-0.003569930908642709
1761475518524335400,1.73333544921875,-0.01014671548306942,-0.005844122918322682,0.01349138626847416
1761475518534312200,1.743312255859375,0.03106090869605541,0.00917282894961536,0.005543751732259988
1761475518544289300,1.753289306640625,0.004516016119718551,0.0054394876401871435,0.022464966318942604
1761475518554266000,1.76326611328125,-0.010409750333428383,0.0005644289497286081,-0.012176540810242295
1761475518564243200,1.7732431640625,-0.04481938493549824,0.043269525144994256,-0.012364647260867058
1761475518574220300,1.78322021484375,-0.03972586118876934,0.04962028241120279,-0.04445899065788835
1761475518584197400,1.793197265625,-0.01347498312294483,0.05251571159176528,-0.051832478567957876
1761475518594174500,1.803174560546875,0.017848375901579856,0.04684621458798647,-0.0365337506165728
1761475518604151300,1.8131513671875,0.07560147669017314,0.02955905276574194,-0.005570676271803677
1761475518614128400,1.82312841796875,0.11526420951485633,0.03105462508574128,-0.008259586562216282
1761475518624105200,1.833105224609375,0.13559095822870731,0.03408566334471106,0.01222282763738185
1761475518634082300,1.843082275390625,0.11512333973944186,0.017542232561856507,0.018285086818411945
1761475518644059100,1.85305908203125,0.0886655409246683,0.014165887996554374,0.049557519373297686
1761475518654037200,1.863037353515625,0.07077566396892071,0.017734540263563393,0.04842511780988425
1761475518664014300,1.873014404296875,0.065159577652812,0.03775602242052555,0.020708733768761155
1761475518673991200,1.8829912109375,0.08255202648043632,0.04232011546567082,-0.011247004875168203
1761475518683968300,1.89296826171875,0.10890811848640441,0.01555208165794611,0.03440612747073173
1761475518693945300,1.9029453125,0.0910971519857645,-0.024972601758316157,0.0478246676987037
1761475518703922200,1.912922119140625,0.01749824728965759,-0.021772709738463163,0.052695780866406854
1761475518713899300,1.922899169921875,-0.08241115670502186,0.011542919081822037,0.02987323328144848
1761475518723876400,1.93287646484375,-0.149756261703372,0.07103738364502787,0.009625650751031934
1761475518733853400,1.942853515625,-0.17554829008579254,0.0647673634648323,0.008457702950201929
1761475518743830300,1.952830322265625,-0.16421090351343154,0.024428338813781737,0.0347907063415274
1761475518753807400,1.962807373046875,-0.15649813717901706,-0.00011515081226825714,0.02956018527690321
1761475518763784400,1.972784423828125,-0.07878653646707534,0.009109554455056786,0.020373546997644005
1761475518773761300,1.98276123046875,-0.04965922618210315,-0.00812726541943848,-0.001943169957026839
1761475518783738400,1.99273828125,-0.029617724150419234,-0.032211613101139666,-0.012343567940220236
1761475518793715200,2.002715087890625,-0.03653086453974247,-0.008461758070811629,-0.0053037689639255405
1761475518803693300,2.012693359375,-0.06012333705127239,-0.00551554855108261,0.013987791483290492
1761475518813670400,2.02267041015625,-0.05923252569139004,0.03471146709285676,-0.0011387582389637827
1761475518823647200,2.032647216796875,-0.03531272092163563,0.05965140869058668,-0.02188935838807374
1761475518833624300,2.042624267578125,-0.00281681098639965,0.051496597677096724,0.008490874567441641
1761475518843601200,2.05260107421875,0.02255903781056404,0.03830474234446883,0.017575769505277276
1761475518853578200,2.062578125,0.04003799587786198,0.04681691542826592,0.027426388118602332
1761475518863555000,2.07255517578125,0.04646656762063503,0.030148396961018443,0.003406118649058044
1761475518873532400,2.082532470703125,0.04111994589567184,0.02425824294388294,-0.01825264585353434
1761475518883509500,2.092509521484375,0.048070495685935015,0.03344305459223688,0.011174524160847066
1761475518893486300,2.102486328125,0.05351356352269649,0.027915523342415687,0.009620645782351493
1761475518903463400,2.11246337890625,0.015392214921116828,0.0379798212390393,0.018036299689114094
1761475518913440300,2.122440185546875,0.048505964493751524,0.06560491026751697,0.009230879279784858
1761475518923417300,2.132417236328125,0.02686287248432636,0.0636662703551352,0.026182635135203598
1761475518933394200,2.142394287109375,0.0062432783037424085,0.0632916648890823,0.07205565730948
1761475518943371300,2.152371337890625,0.02520633744895458,0.07387457983233034,0.08005980780590326
1761475518953349600,2.162349609375,0.06720481974482535,0.079182550047338,0.07129709402713924
1761475518963326700,2.17232666015625,0.06261456934511661,0.04108122132048011,0.0636919893182814
1761475518973303600,2.182303466796875,0.07081131980419159,-0.009649871876835822,0.042488384704664345
1761475518983280600,2.19228076171875,0.07833820817768573,-0.002379734743386507,0.041141280944645406
1761475518993257700,2.2022578125,0.03518120349645614,-0.007084843694418668,0.030609329003654418
1761475519003234600,2.212234619140625,-0.025535423272848128,0.01331255910284817,0.02849704955741763
1761475519013211600,2.222211669921875,-0.036357261538505554,0.05234941511414945,0.013702581333741545
1761475519023188500,2.2321884765625,-0.02992459814250469,0.07173800619505345,0.011696684871427714
1761475519033165600,2.24216552734375,-0.019655717584490775,0.04419686912298202,0.02269198000784963
1761475519043142700,2.252142578125,-0.01695931810736656,0.015901479617506264,0.04423347480632364
1761475519053119700,2.26211962890625,-0.06350654974877834,0.02052512083016336,0.03165657303426415
1761475519063096800,2.272096923828125,-0.0848398451566696,0.02791464655958116,0.009466916525363921
1761475519073073700,2.28207373046875,-0.13233575582504273,0.040400326384231446,-0.008146993033215403
1761475519083050800,2.29205078125,-0.12984627709686755,0.06343428823016584,0.007160137420333922
1761475519093027600,2.302027587890625,-0.09995207409262656,0.09097805565074085,0.029132022992707788
1761475519103004700,2.312004638671875,-0.06755670192241668,0.08090995836183429,0.01920614718608558
1761475519112982800,2.321982666015625,-0.030790275061130523,0.06101502519398928,0.019050956624373793
1761475519122959600,2.331959716796875,-0.014807108509540557,0.04660268815569579,0.024429653988033533
1761475519132936700,2.341936767578125,-0.0018266309052705765,0.038677301983907814,-0.03294927972592413
1761475519142913500,2.35191357421875,0.06910568493008613,0.03989734529815614,-0.03534198354873806
1761475519152890600,2.361890625,0.08263678215444087,0.04057093371078372,-0.011822064816765487
1761475519162867700,2.37186767578125,0.08895487926006317,0.03606237024515867,0.027983327881619332
1761475519172844500,2.381844482421875,0.11075111600458622,0.034299159964919085,0.06083265436440706
1761475519182821600,2.391821533203125,0.10057634347081183,0.0487988099604845,0.05305496956761926
1761475519192798700,2.401798828125,0.06538520310223102,0.047789486787468194,0.01683097901996225
1761475519202775800,2.41177587890625,0.04958148477077484,0.05653627234473824,-0.009904650355502963
1761475519212752600,2.421752685546875,0.04541267465353012,0.014141191946715115,-0.021633118604682384
1761475519222729700,2.431729736328125,0.0637654929459095,0.02563698395118117,-0.027368593516759573
1761475519232706800,2.441706787109375,0.08045534646213054,0.020067074864357708,-0.005281484066881239
1761475519242683600,2.45168359375,0.059086395218968385,0.012429638788476586,-0.0034446240285411476
1761475519252660700,2.46166064453125,0.00884089358150959,0.0271608325175941,0.029033859847858546
1761475519262638600,2.471638671875,-0.04777414308786392,0.05960508533082902,0.0487481757517904
1761475519272615700,2.48161572265625,-0.08441139061152934,0.05325527791269123,0.03509473078940063
1761475519282592800,2.4915927734375,-0.10538228244781493,0.05443681584745645,0.02942906971052289
1761475519292569600,2.501569580078125,-0.10574760862886905,0.07077332588136195,0.03411437798254192
1761475519302546700,2.511546630859375,-0.1319014560610056,0.06432765687331557,0.013839067194983363
1761475519312523500,2.5215234375,-0.12925240285694597,0.043499972900003195,-0.015785232826694844
1761475519322500600,2.53150048828125,-0.12695756991803644,0.019106559269130227,-0.03808459678776562
1761475519332477700,2.541477783203125,-0.10138882889747619,-0.011957052840664981,-0.059104661528021095
1761475519342454800,2.551454833984375,-0.10267945322990417,-0.010459873085469007,-0.04752802283968776
1761475519352431900,2.561431884765625,-0.06959434522986412,0.0057125324279069896,-0.01684427689295262
1761475519362408700,2.57140869140625,-0.038298458734154696,0.00862432822138071,0.009181706375814974
1761475519372385800,2.5813857421875,-0.02795534389615059,0.018064941261708736,0.04526679990943521
1761475519382362600,2.591362548828125,-0.01205810206234455,0.03085566844753921,0.025323570620454847
1761475519392339700,2.601339599609375,0.01105681606531143,0.03478971996083855,-0.0034091143237426876
1761475519402316500,2.611316650390625,0.009323124140501023,0.029477292766422032,-0.011674911431036888
1761475519412293600,2.621293701171875,0.020454759007692336,0.018223565889522432,0.011337423104979098
1761475519422270700,2.631270751953125,0.026688100439310074,0.018100450966507194,0.04053198993988335
1761475519432248600,2.64124853515625,0.0606762947589159,0.048918125491216775,0.06493508471455425
1761475519442225700,2.6512255859375,0.07757832972109317,0.08113923707306385,0.09669551998209208
1761475519452202500,2.661202392578125,0.05706161139309406,0.06919124432168901,0.12974482601638881
1761475519462179600,2.6711796875,0.03307517112791538,0.06685644469857216,0.12194829038865863
1761475519472156700,2.68115673828125,0.034625323179364204,0.08324804592058062,0.09014492929484695
1761475519482133500,2.691133544921875,0.01969604959487915,0.10146496287360787,0.07698730502538383
1761475519492110800,2.70111083984375,0.0012760112851858138,0.11591280961669981,0.09084683048650621
1761475519502087700,2.711087646484375,0.03631809857189655,0.13197759003713727,0.11169924704227596
1761475519512064800,2.721064697265625,0.07176409048438072,0.12229695769585669,0.12026892246697098
1761475519522041600,2.73104150390625,0.08054536283314227,0.08659823313131929,0.11206435402762144
1761475519532018700,2.741018798828125,0.05946399635970592,0.07299341308362782,0.08212938062157481
1761475519541995800,2.750995849609375,0.007103694525361061,0.07531674146465957,0.06689286771882325
1761475519551972600,2.76097265625,-0.0434399132758379,0.07688260254189372,0.058457120872102676
1761475519561949700,2.77094970703125,-0.06120119541585445,0.07282054073475301,0.03247643804978579
1761475519571926500,2.780926513671875,-0.045318566629290576,0.06873042187690734,0.013954400670342147
1761475519581903600,2.790903564453125,-0.008785948523879051,0.03074059070050716,-0.006236848562955856
1761475519591880400,2.80088037109375,0.003049450698494911,0.01737805497609079,-0.03507821804601699
1761475519601858600,2.810858642578125,-0.003537526476383209,0.015468933419138192,-0.05689801832921803
1761475519611835600,2.820835693359375,-0.004869651862978935,0.0034808278530836104,-0.05611117880046367
1761475519621812500,2.8308125,0.01538169352710247,-0.016911095051467418,-0.06387472547404467
1761475519631789600,2.84078955078125,-0.02718845117688179,-0.022287673523277044,-0.050449499776959415
1761475519641767000,2.850766845703125,-0.012735562932491302,-0.006888663535192609,-0.05853405856583267
1761475519651743700,2.86074365234375,0.017757775008678436,0.023004078164324163,-0.042718832459673284
1761475519661720800,2.870720947265625,0.04403787916898727,0.031654198414087294,-0.012783749455772339
1761475519671697700,2.88069775390625,0.052803369426727295,-0.004785334580391645,0.005017207107506692
1761475519681674800,2.8906748046875,-0.007128828966617584,0.023438231797888873,0.004616115493327379
1761475519691651600,2.900651611328125,-0.06661737524569034,0.042150677182897923,-0.04672941980790347
1761475519701628700,2.910628662109375,-0.10103694671988486,0.04816102351360023,-0.06386526352595538
1761475519711605800,2.920605712890625,-0.0834936912447214,0.04090842203684151,-0.05545344554409384
1761475519721582600,2.93058251953125,-0.0317062208622694,0.025813728757575153,-0.013994988409057258
1761475519731559700,2.9405595703125,0.03541618129611015,0.05311535798534751,0.029535964151099322
1761475519741536500,2.95053662109375,0.07960603615641594,0.027049627228081224,0.09158267048038542
1761475519751513600,2.960513671875,0.07479834361374378,0.04783719838671386,0.09696187930069863
1761475519761491700,2.97049169921875,0.06690788262486458,0.08490626145638525,0.08787442707959563
1761475519771468500,2.980468505859375,0.042839609295129776,0.09228490046560764,0.11810429177898912
1761475519781445600,2.990445556640625,0.0143564421325922,0.08669599441736936,0.10355634566228836
1761475519791422700,3.000422607421875,-0.0005371756166219711,0.07392389886677264,0.08827095211651176
1761475519801399800,3.01039990234375,0.04541735082864761,0.07613960215486586,0.04471205210350453
1761475519811376600,3.020376708984375,0.08558920221924782,0.049488911116495726,0.04772632189076394
1761475519821353700,3.030353759765625,0.06398410413265228,0.014434695000573991,0.06326565366499126
1761475519831330800,3.040330810546875,0.025168343526124952,0.02078552533201873,0.06283219415117054
1761475519841307600,3.0503076171875,-0.020003508108854293,0.059539545813947915,0.0715236327920109
1761475519851284700,3.06028466796875,-0.07742109333276748,0.08484306002706289,0.08277187977619468
1761475519861261600,3.070261474609375,-0.08194412371516227,0.07925225428268313,0.0711253541894257
1761475519871238700,3.08023876953125,-0.06017477497756481,0.067025517655164,0.02309040474090725
1761475519881215500,3.090215576171875,-0.031867548903822894,0.03560191312655806,0.0034706352526322004
1761475519891192600,3.100192626953125,-0.03426175056397915,0.03142294694148004,-0.013957907801680266
1761475519901169700,3.110169677734375,-0.027901567882299423,0.010237024115025996,-0.03447451653182507
1761475519911146800,3.120146728515625,-0.051262569725513456,-0.0029456249978393315,-0.04950827340409159
1761475519921123800,3.130123779296875,-0.044020343512296674,0.0164276223834604,-0.037502376453019674
1761475519931101400,3.140101318359375,-0.016398761615157128,0.02474661098271608,-0.028732210020162165
1761475519941078800,3.150078857421875,0.015223872616887091,0.04112425674460828,0.02224631859958172
1761475519951056000,3.160055908203125,0.019122049099206923,0.016931553317606447,0.04116400423310697
1761475519961032200,3.1700322265625,-0.005798457145690918,0.02193856782466173,0.03780855632536113
1761475519971009300,3.18000927734375,-0.056066755136847495,-0.0052500294826924795,0.008093691943399609
1761475519980986000,3.189986083984375,-0.08806757503151894,0.0030780922710895537,-0.0066845923304557795
1761475519990963200,3.199963134765625,-0.08585866681039332,0.03714461252391338,-0.057988663110136986
1761475520000940000,3.20993994140625,-0.03239128051698208,0.02130553061813116,-0.039053478352539236
1761475520010917000,3.219917236328125,-0.010844634619355201,-0.0022931524384766817,0.0015724734811112283
1761475520020894200,3.229894287109375,-0.005149637848138809,-0.020582623171061278,0.03639989510383457
1761475520030871000,3.23987109375,0.0025970307558774944,-0.0015831044729799032,0.00555010840781033
1761475520040848100,3.24984814453125,0.0006809680014848708,-0.010913096745684742,0.002229183824174106
1761475520050825200,3.2598251953125,-0.030534838995337484,-0.004633578084781766,-0.010945939569361508
1761475520060802300,3.26980224609375,-0.07030220123827458,0.007765446369722485,-0.007201784604974091
1761475520070779100,3.279779052734375,-0.05662380449771881,0.057660527134314174,-0.03345090910512954
1761475520080756200,3.289756103515625,0.02474631872177124,0.06139532974846661,-0.015671835580095647
1761475520090733300,3.2997333984375,0.08132336146831512,0.06754698424600064,0.05346084695477038
1761475520100711200,3.309711181640625,0.1273345865368843,0.05284107108861208,0.0796557570496574
1761475520110688300,3.319688232421875,0.11485972036719322,0.0337895299423486,0.1036605732217431
1761475520120665000,3.3296650390625,0.07070084516704082,0.04206665216125548,0.08379961538873612
1761475520130642200,3.33964208984375,0.016165537381172178,0.042546909958869214,0.05260441278852522
1761475520140619300,3.349619384765625,-0.030685061120986935,0.03919599209576845,0.027973610205203295
1761475520150596000,3.35959619140625,-0.01759060174822807,0.04866334701254964,0.03644070203825831
1761475520160573200,3.3695732421875,-0.019296236622333526,0.04801204349696636,0.044784094426408405
1761475520170550000,3.379550048828125,-0.043348727861046786,0.042399464312195774,0.08195354913063346
1761475520180527000,3.389527099609375,-0.03380231635868549,0.05635024825334549,0.07257986384667456
1761475520190504200,3.399504150390625,-0.029976620590686797,0.05393434621803462,0.05407211072091013
1761475520200481300,3.409481201171875,-0.014653963774442672,0.05091616744063794,0.014185140686295925
1761475520210458400,3.419458251953125,-0.0008399579554796219,0.042353287082910536,0.0015348448844626544
1761475520220435200,3.429435302734375,0.013473814079165458,0.04620061016082763,-0.03286024973560125
1761475520230412300,3.439412353515625,0.03205693399608135,0.026855419830232857,-0.0420688075857237
1761475520240389000,3.44938916015625,0.030665771898627278,0.010020385689660906,-0.015007197658903897
1761475520250366200,3.4593662109375,-0.005911854392290115,0.03761201083995402,-0.0406167090812698
1761475520260343000,3.469343017578125,-0.037624504995346066,0.07572364176511764,-0.03257807179335505
1761475520270321200,3.479321044921875,-0.01295475864112377,0.10160941284559666,-0.012477679181285202
1761475520280298200,3.48929833984375,0.010710779106616974,0.0732734721340239,-0.011648607946000993
1761475520290275000,3.499275146484375,0.062134676873683924,0.04057115290649235,-0.00828976250477135
1761475520300252200,3.509252197265625,0.07978256176710129,0.01567483125478029,0.010956132169812918
1761475520310229000,3.51922900390625,0.09461480471789836,-0.0013947422940284013,-0.028880824710614976
1761475520320206000,3.5292060546875,0.07554536258876324,-0.006748743607848882,-0.04066811047494411
1761475520330183200,3.53918310546875,0.04147065902948379,-0.01111789860278368,-0.01864778265096247
1761475520340160300,3.54916015625,0.021000117930769918,0.025170462417975065,-0.0241553670912981
1761475520350137300,3.559137451171875,0.011920739418268203,0.03442570895403623,0.0006990516474470495
1761475520360114200,3.5691142578125,0.03488835802972316,0.016604001863673327,0.021358429849147795
1761475520370091300,3.57909130859375,0.10111994882822035,0.0021538900982588528,0.00474755985327065
1761475520380068000,3.589068115234375,0.11070026260018348,-0.029674568904191255,0.0004991816937923431
1761475520390045200,3.599045166015625,0.11771218718886375,-0.03725983640141785,0.02219908192437142
1761475520400022300,3.609022216796875,0.06526362254917621,-0.03142389678955078,0.02750683294367045
1761475520409999000,3.6189990234375,0.033040099814534186,-0.022486630161479115,0.007398001296818256
1761475520419976200,3.62897607421875,-0.015230886879563331,0.01959412359036505,-0.006122611066140234
1761475520429953000,3.638953125,-0.045296939319372176,0.023839798336103557,0.01516911022234708
1761475520439930000,3.64893017578125,-0.046991468277573584,0.016893267133831977,-0.003976465882919729
1761475520449908200,3.658908203125,-0.0477010778516531,0.022698957737907765,0.01138564616087824
1761475520459885000,3.668885009765625,-0.04154956948459148,0.03196333742849529,0.019651224072463808
1761475520469862100,3.678862060546875,-0.054443537849187845,0.03636047640889883,-0.00014496142864227294
1761475520479839000,3.6888388671875,-0.05500350981950759,0.04927519530057907,0.027677221074514088
1761475520489816000,3.698816162109375,-0.0448427658110857,0.04150426903814077,0.026289602641016242
1761475520499793200,3.708793212890625,-0.05105097280144691,0.016513181775063276,0.02150010334216058
1761475520509770200,3.718770263671875,-0.023276830691099166,0.05204276031777262,0.026459954239241777
1761475520519747300,3.728747314453125,-0.005240823262929916,0.07920841514095664,0.0172465010182932
1761475520529724200,3.73872412109375,-0.02704232070446014,0.056386488610506054,-0.00012790069598704577
1761475520539701200,3.748701171875,-0.02555529701709747,0.05162687299326062,0.012411409012041985
1761475520549678000,3.758677978515625,-0.017406477352976797,0.05211129550933838,0.014403313481621443
1761475520559655200,3.7686552734375,0.010234978288412093,0.05925583350174129,0.006328253173455595
1761475520569632000,3.778632080078125,0.08396598493158816,0.037927944921329615,0.013362681854888796
1761475520579609000,3.788609130859375,0.11800094100236892,0.015345160908997058,0.055411140772327776
1761475520589586200,3.798586181640625,0.11224749204218387,-0.0023950784429907796,0.06890073694251478
1761475520599563000,3.80856298828125,0.058151160195469856,0.0032836247805505987,0.07217906449344008
1761475520609540400,3.818540283203125,-0.0071855275899171825,0.045253246308118104,0.03780552411805838
1761475520619517200,3.82851708984375,-0.07222878538668155,0.05369695726558566,0.003586991641297936
1761475520629495000,3.8384951171875,-0.0570031592041254,0.045788010771945116,-0.011593480225279926
1761475520639472000,3.84847216796875,-0.025952187380194662,0.03242781313508749,0.018842720701172946
1761475520649449200,3.85844921875,0.013806407034397124,0.02858136684000492,0.0334412279613316
1761475520659426300,3.86842626953125,0.07391103938519954,0.007874094375967979,0.051669981482625006
1761475520669403100,3.878403076171875,0.07156243043243884,-0.012718173406273126,0.04251793959271163
1761475520679380200,3.888380126953125,0.03512158226370811,-0.01251622109338641,0.016084288838505743
1761475520689357300,3.898357421875,-0.014843933388590812,-0.0019203736033290624,0.008927877745218575
1761475520699334100,3.908334228515625,-0.05014730195999145,0.009773425191268325,-0.008841405038163065
1761475520709311200,3.918311279296875,-0.04527998818457126,0.0011310498565435408,-0.025413221665285528
1761475520719288000,3.9282880859375,-0.030679800423979758,-0.026853739329800008,-0.026310426233336327
1761475520729265200,3.93826513671875,-0.018881226080656052,-0.025239436000958085,-0.015059695031121373
1761475520739242000,3.948241943359375,-0.005824176108837127,-0.009781608497723936,-0.01568725234493613
1761475520749219000,3.958218994140625,-0.006834229934215545,0.020424656130373475,0.0024540786212310195
1761475520759196200,3.968196044921875,-0.0024339491486549377,0.0327971579041332,-0.006323029009066522
1761475520769173200,3.97817333984375,-0.002330488774180412,0.04233903936184943,0.033741781810484824
1761475520779150300,3.988150390625,-0.015690905606746672,0.042881256479769946,0.0276745907260105
1761475520789127200,3.998127197265625,-0.054662733557820316,0.0345267581757158,-0.011972140811942518
1761475520799104300,4.008104248046875,-0.07471300341784953,0.0665705404292792,-0.04835059126894921
1761475520809081000,4.0180810546875,-0.05013619604408741,0.08216952996887267,-0.05539353205040097
1761475520819058200,4.02805810546875,-0.019084055176377294,0.08261530097499489,0.0032526085877791046
1761475520829036300,4.038036376953125,-0.015724807876348494,0.06205993113704025,0.07167469516787678
1761475520839013000,4.04801318359375,0.02219137354195118,0.06979213282428681,0.08323767065703869
1761475520848990200,4.057990234375,0.03718260644674301,0.0648665860556066,0.053472464327327905
1761475520858967000,4.067967041015625,0.018310732716321942,0.04160005756281316,0.029302045797370373
1761475520868944100,4.077944091796875,0.037814474609494206,0.03026639731749892,0.02195354619808495
1761475520878921200,4.087921142578125,0.04951835640668869,0.0605176701311022,-0.001656242774426937
1761475520888898000,4.09789794921875,0.06799976951479911,0.07724244883023201,0.0015553762158378958
1761475520898875100,4.107875244140625,0.0886485897898674,0.052851884743571276,0.0393745270004496
1761475520908852200,4.117852294921875,0.07373159116506577,0.033090660957992075,0.07281498777680098
1761475520918829300,4.127829345703125,0.06053074880838394,0.05358830925934016,0.05780165263805538
1761475520928806100,4.13780615234375,0.07821019788384437,0.08100136297233403,0.025122677753493187
1761475520938783200,4.147783203125,0.05901800615787506,0.05520823861137032,0.01004592198971659
1761475520948760300,4.15776025390625,0.05605974087417125,0.03757262867763638,0.01874956252500415
1761475520958738000,4.167738037109375,0.021823709273338317,0.023059023221954703,0.01694284189660102
1761475520968715000,4.177715087890625,-0.0007423427999019623,0.02992014116309583,0.039069991095922886
1761475520978691800,4.18769189453125,-0.04277823449671268,0.02878463432714343,0.044763745758123696
1761475520988669000,4.1976689453125,-0.08145604793727397,0.019224194299429655,0.06263225113227963
1761475520998646000,4.20764599609375,-0.12130816585421561,0.028750585927069184,0.024281075830198822
1761475521008623900,4.217623779296875,-0.11067395911514759,0.04304601858742535,-0.015088007810153067
1761475521018601000,4.22760107421875,-0.08960779021084309,0.03426730352193117,-0.032069464684091505
1761475521028577800,4.237577880859375,-0.048156420403718946,0.020632453662157057,-0.006188040985167026
1761475521038555000,4.247554931640625,-0.042300095590949056,0.0041433834150433535,0.02313650890495628
1761475521048532000,4.257531982421875,-0.0664057783216238,0.01533646614588797,0.04313566963225603
1761475521058508800,4.2675087890625,-0.06736614778637885,0.0401981548756361,0.023120544150844215
1761475521068486000,4.27748583984375,-0.11001987912058829,0.03263290725313127,0.012166640470735728
1761475521078462700,4.287462646484375,-0.12855682180821895,0.028434797976166007,0.01386854901779443
1761475521088440000,4.297440185546875,-0.09287643661797046,0.04178388969711959,-0.014363310264796017
1761475521098417000,4.3074169921875,-0.05524433283805847,0.032052696212381125,0.010018851319700478
1761475521108394000,4.31739404296875,-0.015172434690594672,0.02173252385854721,0.03826017255038023
1761475521118371000,4.32737109375,0.041618543067574496,0.03982975995466113,0.04266538523938507
1761475521128348000,4.337347900390625,0.06531564499735831,0.04916961603425443,0.05010726221054792
1761475521138325000,4.347324951171875,0.06932254255115985,0.03856047067120671,0.04818575609605759
1761475521148301800,4.3573017578125,0.05207856228351593,0.036073622291535136,0.029270956539362666
1761475521158279000,4.36727880859375,0.030008184772729873,0.040424218716472386,0.05525101830717176
1761475521168255700,4.377255859375,0.04428980810344219,0.04909340899288654,0.03518909454196691
1761475521178233900,4.38723388671875,0.036138065829873084,0.06052841072082519,0.02104582023601979
1761475521188211000,4.3972109375,0.01424889010488987,0.07896963794901966,0.0453079356374219
1761475521198187800,4.407187744140625,0.023194413104653356,0.09671513799801468,0.05816321595944464
1761475521208164900,4.417164794921875,0.02169336089193821,0.11071202610321343,0.07836155252065509
1761475521218142000,4.427141845703125,0.005968553015589714,0.09434870112761855,0.07599665002021938
1761475521228118800,4.437118896484375,0.011515081226825713,0.06438822795413435,0.08165942502226681
1761475521238096000,4.447095947265625,0.04793079495429992,0.04117730210609734,0.03236347919460386
1761475521248073000,4.457072998046875,0.01598375107347965,-0.0037603023815900084,0.023761874261684714
1761475521258050000,4.467050048828125,-0.04872983637750149,-0.006875584857910871,-0.01462276491858065
1761475521268027000,4.47702685546875,-0.05643851105868816,0.03556121578998864,-0.026013379515521226
1761475521278004000,4.48700390625,-0.034710078853368756,0.054145650881156325,-0.018964483917318285
1761475521287981000,4.49698095703125,0.008203180199861526,0.045689372703060505,0.033300431251153347
1761475521297958000,4.5069580078125,0.010064882418513298,0.019586451740562914,0.053450033299811184
1761475521307935000,4.51693505859375,-0.006171966633200645,0.028307518334686754,0.024028818102180955
1761475521317911800,4.526911865234375,0.0001999064862728119,0.05000613992363214,-0.0062624944608658546
1761475521327889000,4.536888916015625,0.009880173501372337,0.04930559043884277,-0.044206440668925644
1761475521337865700,4.54686572265625,0.019044307687878608,0.004177139554172754,-0.04853051441311836
1761475521347842800,4.5568427734375,0.03216448602378368,-0.000978562708571553,-0.05305548102427274
1761475521357821000,4.566821044921875,0.009385667982697486,0.00312039704285562,-0.03921601197049022
1761475521367797800,4.5767978515625,-0.0521364299505949,0.015408143142610787,-0.017501717888377608
1761475521377774800,4.58677490234375,-0.06286182210445404,0.05646284178234637,-0.02730268867369741
1761475521387752000,4.596751953125,-0.049020343756675716,0.07230119303576647,-0.017739800960570574
1761475521397729000,4.60672900390625,-0.010770984861254692,0.04446107301712036,-0.03074570526704192
1761475521407706000,4.6167060546875,0.06617313860952853,0.025279402685165403,-0.03137885207142681
1761475521417683000,4.626682861328125,0.09489537522494793,-0.015943784389272332,-0.011487426034919916
1761475521427660000,4.636659912109375,0.1354173552274704,-0.0018563684564083813,0.005660071588307619
1761475521437636900,4.646636962890625,0.13357961840629576,-0.004675517530366778,0.01151073384527117
1761475521447614000,4.656614013671875,0.09787117616534233,0.03316043825857341,0.017830876777507363
1761475521457590800,4.6665908203125,0.05360416441559791,0.057078416397422546,0.017060075068101286
1761475521467567900,4.67656787109375,0.01764437776207924,0.05668941707983613,0.04864738225843757
1761475521477545000,4.686544921875,0.001419219148159027,0.043482218047603965,0.04530950654000043
1761475521487521800,4.696521728515625,0.04285305329859256,0.03177300248816609,0.037295455704070626
1761475521497499000,4.706498779296875,0.08174772436022758,0.04696194992214441,0.04001351902373135
1761475521507476000,4.71647607421875,0.07393617382645606,0.03122618226036429,0.04701557980552316
1761475521517453000,4.726453125,0.026068507236242294,0.024270152577385306,0.05261314408425241
1761475521527430000,4.736429931640625,-0.05223696771562099,0.04881605335623026,0.052196964498795566
1761475521537407000,4.746406982421875,-0.11205226173102854,0.06654774407558142,0.05932458788901567
1761475521547384000,4.756384033203125,-0.1292389588534832,0.10576529041603207,0.08034563900995999
1761475521557362000,4.76636181640625,-0.12137012517452239,0.1067605850636959,0.09074453915581107
1761475521567339000,4.776339111328125,-0.074296239310503,0.06638144759796559,0.07659644254427403
1761475521577315800,4.78631591796875,-0.05067161809504032,0.011714257060736416,0.043069435995630914
1761475521587293000,4.79629296875,-0.049771454384922975,0.007792699702829122,-0.0016509455448016524
1761475521597270000,4.80627001953125,-0.07420856102705001,0.005963511514291167,-0.01675374906528741
1761475521607246800,4.816246826171875,-0.08843699286580085,-0.006931552828848361,-0.012189217628724873
1761475521617224000,4.826223876953125,-0.07972761670947075,-0.012058394323289394,-0.001359999774210155
1761475521627200800,4.83620068359375,-0.04441197317838669,-0.0056474313024431465,0.01820369214527309
1761475521637177900,4.846177734375,0.007672434324026108,-0.0025168781917542216,0.016487608942389487
1761475521647154700,4.85615478515625,0.06808686327636242,-0.020059403014555572,-0.016766608546860514
1761475521657132000,4.866132080078125,0.07974632140994072,-0.03714483171962201,-0.029935777123644945
1761475521667109000,4.876109130859375,0.04946224230527878,-0.03920834012068808,-0.00927201500777155
1761475521677086000,4.8860859375,0.0023667291313409803,-0.01801211509592831,-0.01925009592566639
1761475521687063000,4.89606298828125,0.0002554360657930374,0.007705313680320978,-0.03170654965583235
1761475521697040000,4.906039794921875,0.019250059393048285,0.018595102615654467,-0.02098707578610629
1761475521707017000,4.916016845703125,0.030077742877602575,0.019366671510040758,0.00007251724693924188
1761475521716993800,4.925993896484375,0.046446693876385683,0.014059431947395205,0.002085391439311206
1761475521726971000,4.935970947265625,0.04320610451996326,0.02021291307583451,0.012408486402593552
1761475521736948000,4.945947998046875,0.0239899473965168,0.026015315744280815,0.008458104809001088
1761475521746925800,4.95592578125,0.014949147328734397,0.03877893572747707,0.04106598721873015
1761475521756903000,4.96590283203125,0.014172317737340926,0.049278264040499925,0.04371281193308532
1761475521766880000,4.9758798828125,0.012909750455617904,0.07918262311257422,0.055377932622469955
1761475521776856800,4.98585693359375,0.005185878205299377,0.09734422968178987,0.05677599938474595
1761475521786834000,4.995833984375,0.007145780101418495,0.0869629017252475,0.04669884200654924
1761475521796810800,5.005810791015625,0.012374912926554679,0.08903824669457971,0.035138460333272815
1761475521806787800,5.015787841796875,0.021485855621099472,0.08203772028274833,0.03949588835779577
1761475521816765000,5.025764892578125,0.023040683847665784,0.06610109628662467,0.03178279322981834
1761475521826742000,5.035741943359375,-0.00035480478703975673,0.0889800137013197,0.059935851655155414
1761475521836719000,5.045718994140625,0.005547112733125686,0.10012633468098937,0.04946531104519963
1761475521846696000,5.055696044921875,-0.05656769039630889,0.09289506825320422,0.04537994142770767
1761475521856673000,5.065673095703125,-0.06580138268768787,0.09132854958884418,0.027444800558127463
1761475521866649900,5.07564990234375,-0.03282967193424702,0.083288377930969,0.022257789841666816
1761475521876627000,5.085626953125,0.014600187760591505,0.05549319303259253,0.022627171143330634
1761475521886603800,5.095603759765625,0.041968671679496763,0.02746631827019155,0.023839579140394924
1761475521896580900,5.105580810546875,0.03064998980760574,0.03507182483784854,0.02967975653596222
1761475521906558000,5.115557861328125,0.017854805642366408,0.06098207277245819,0.008206541200727224
1761475521916534800,5.12553466796875,-0.016775778234004973,0.059221638971194625,0.03524261482749134
1761475521926512000,5.13551220703125,-0.020920038431882858,0.057471945759654045,0.021218217660859226
1761475521936489000,5.145489013671875,-0.04417641085684299,0.04820303602442145,-0.0011654270501807332
1761475521946466800,5.155466796875,-0.030890228304266926,0.036834742857143284,-0.021604988488741216
1761475521956444200,5.165444091796875,-0.011219897672533988,0.01989851336441934,-0.05470401541627943
1761475521966421200,5.175421142578125,0.02290682833492756,-0.013887801707535981,-0.05541209062039852
1761475521976398300,5.1853984375,0.05240531001985073,-0.010735109830275178,-0.06836129630357027
1761475521986375200,5.195375244140625,0.06412789651751517,0.002211538569629192,-0.041282881372421976
1761475521996352300,5.205352294921875,0.09594400749504566,0.007904562579467892,-0.013127557924762367
1761475522006329000,5.2153291015625,0.09911153161525725,0.026411110128834844,0.0026130685752257703
1761475522016306200,5.22530615234375,0.11096329745054244,0.03084945790246129,0.032154403021186585
1761475522026283300,5.235283203125,0.11305588581562041,0.03250730811208486,0.00209372087623924
1761475522036260000,5.245260009765625,0.09247136294841765,0.023014088101685044,0.004745623624511063
1761475522046237200,5.2552373046875,0.05636895295381546,0.026433906482532618,-0.002036437731049955
1761475522056214000,5.265214111328125,0.04489361921548843,0.0024649288088083266,0.012394202148914336
1761475522066191000,5.275191162109375,0.03292261091470718,0.00968501625545323,0.02121134952865541
1761475522076168000,5.28516796875,0.004547580301761627,0.015137217246741056,0.018551190408691763
1761475522086145300,5.295145263671875,-0.09376607893407345,0.024816680544242263,0.04201565262638032
1761475522096122400,5.305122314453125,-0.15864683964550494,0.0687733111705631,0.049095747080445284
1761475522106099200,5.31509912109375,-0.1858849751830101,0.0824668324150145,0.03349566156230867
1761475522116076300,5.325076171875,-0.17884908519685266,0.08748794851265847,0.04227653205227107
1761475522126053000,5.33505322265625,-0.14987608869075775,0.043977746479585765,0.03373107775337994
1761475522136030200,5.3450302734375,-0.14506956519186495,0.02898183739967644,0.023385259501636026
1761475522146008300,5.35500830078125,-0.1566799234867096,0.005367956773936748,-0.004755852757580578
1761475522155985200,5.364985107421875,-0.13667816894352436,0.007494812734797597,-0.004504289149306714
1761475522165962200,5.374962158203125,-0.10415770908892154,0.03753456168957054,-0.022399572932533918
1761475522175939000,5.38493896484375,-0.04253156625926494,0.02281111287549138,-0.01410389214362949
1761475522185916200,5.394916259765625,0.02553016257584095,-0.003995791637897491,0.0010479016177356243
1761475522195893200,5.404893310546875,0.04314005354642868,0.014067688319087028,-0.005320062511600554
1761475522205870000,5.4148701171875,0.017817980763316154,0.009100859691947698,-0.008062018163502216
1761475522215847200,5.42484716796875,0.005026303729414939,0.021062004185840488,-0.034503998354636134
1761475522225824000,5.434823974609375,-0.0019698387682437896,0.042396468637511134,-0.05186269104313105
1761475522235801300,5.44480126953125,0.0004892448216676712,0.04073357692658901,-0.037667138560675086
1761475522245778200,5.454778076171875,0.020901918253302572,0.07094466386027634,-0.015739859315007924
1761475522255755300,5.46475537109375,0.025551205363869664,0.07355448103249072,0.03241615922991186
1761475522265732400,5.474732421875,0.03528875552415848,0.0506464836537838,0.014238076449930666
1761475522275709200,5.484709228515625,0.06451192739903927,0.0789975488692522,0.006329495282471179
1761475522285686300,5.494686279296875,0.07129764201641083,0.08333521274738014,0.006676847415417433
1761475522295663000,5.5046630859375,0.06471943266987801,0.06069821432977914,0.02813113885447383
1761475522305640200,5.51464013671875,0.058733928519487374,0.0715283820323646,0.035460349231399596
1761475522315617000,5.524616943359375,0.08871697885096072,0.07874269732534885,0.027658004917390643
1761475522325594000,5.534593994140625,0.11744213807582854,0.06874174698852002,0.04062657288815826
1761475522335571200,5.5445712890625,0.1351286014139652,0.06141169636137783,0.054269898315332826
1761475522345549000,5.554549072265625,0.10058277321159839,0.054058264858648175,0.08110157194379716
1761475522355526100,5.564526123046875,0.07886836953163147,0.05396890607476234,0.10173278349693864
1761475522365503000,5.5745029296875,0.00936287162899971,0.059497021846473215,0.08796247068922966
1761475522375480000,5.58447998046875,-0.04949497553110122,0.04330196610987186,0.05255012531802058
1761475522385457200,5.59445703125,-0.08016308551728725,0.05361899665854871,0.030132322609052062
1761475522395434200,5.604434326171875,-0.08460136022567749,0.019140023147314784,0.04412468066960573
1761475522405411300,5.614411376953125,-0.08941197537779808,-0.001436535609140992,0.054675337311066684
1761475522415388200,5.62438818359375,-0.09608896892368793,0.025551278429105876,0.055353601898811756
1761475522425365200,5.634365234375,-0.10014379727244377,0.0437295438721776,0.0440536247273907
1761475522435342000,5.644342041015625,-0.0913280381321907,0.04449497528672218,0.048112069805338976
1761475522445319200,5.654319091796875,-0.08521861534118652,0.04793342530280351,0.04961944216098636
1761475522455296300,5.664296142578125,-0.0704360567510128,0.05806735436953604,0.03523837704379111
1761475522465273000,5.674273193359375,-0.0521843607455492,0.04992627962045371,0.020527678113430738
1761475522475250200,5.684250244140625,-0.030772154882550237,0.03610314064696431,0.026148659800365567
1761475522485227000,5.69422705078125,-0.005895487779378891,0.019371713011339307,-0.000009133154526352882
1761475522495204000,5.7042041015625,0.007061608949303627,0.04069024924151599,-0.012201967512443661
1761475522505181200,5.71418115234375,-0.01873451108634472,0.04413922065161168,-0.00185534554310143
1761475522515158300,5.724158203125,-0.029764439144730565,0.03701280283778906,-0.015806166016869246
1761475522525135400,5.73413525390625,-0.0446031118363142,0.05560067199505865,-0.014561499718017875
1761475522535112200,5.7441123046875,-0.04126432280242443,0.08519026602953672,-0.0021592603931203484
1761475522545089300,5.75408935546875,0.004388005825877189,0.09522468024455011,0.026040304055064915
1761475522555067100,5.764067138671875,0.05185585944354534,0.06796784000657498,0.048579833447560665
1761475522565044200,5.774044189453125,0.0764355894267559,0.06406352604441344,0.01578709599021822
1761475522575021300,5.784021240234375,0.09234802882969378,0.049143239483982325,-0.006275755801238119
1761475522584998100,5.793998046875,0.1135574055969715,0.03296615779548883,-0.015469810201972722
1761475522594975200,5.803975341796875,0.13343816410899162,0.03823211549967527,-0.017384740445204078
1761475522604952000,5.8139521484375,0.1332739134579897,0.042057519006729126,-0.00012212854232639074
1761475522614929200,5.82392919921875,0.11032149241566658,0.051666547416523094,0.02411740970108658
1761475522624906000,5.833906005859375,0.07839081514775753,0.04801175123602151,0.03966335387919098
1761475522634883000,5.843883056640625,0.037306525087356567,0.04501614961661398,0.04758815552908927
1761475522644860200,5.853860107421875,0.02042787100076675,0.049636429828405375,0.03273987475894392
1761475522654837200,5.863837158203125,-0.018471476235985756,0.03763312669321894,0.013906835201568902
1761475522664814300,5.873814453125,-0.02820142761170864,0.06897161022163927,0.014969276801310478
1761475522674791200,5.883791259765625,-0.06191080498993396,0.07257146134451031,0.052371005891449746
1761475522684768300,5.893768310546875,-0.057301849889755244,0.05507540601193905,0.08808803329765796
1761475522694745000,5.9037451171875,-0.05073240837156772,0.04684563006609678,0.067868032893911
1761475522704722200,5.91372216796875,-0.0648328299164772,0.027567732818052172,0.048478418899700046
1761475522714699300,5.92369921875,-0.09490531209707259,0.01817373539842665,0.04839030222482979
1761475522724676000,5.933676025390625,-0.11277940696179867,0.004331526398286223,0.012104644617810845
1761475522734653200,5.943653076171875,-0.1343237147718668,0.01450030758269131,0.006088233872503042
1761475522744630000,5.953630126953125,-0.11042553731203078,0.004774155599251389,-0.02324175937771797
1761475522754607000,5.963607177734375,-0.0722089116424322,0.02291888409890234,-0.03003222323544323
1761475522764585200,5.973585205078125,-0.05854337438344955,0.011343377921730279,-0.024051212597079572
1761475522774562000,5.98356201171875,-0.007170330020785332,0.005716258754953742,-0.01605787575561553
1761475522784539100,5.9935390625,0.010080079987645148,-0.004804039280861616,-0.013595467697456478
1761475522794516000,6.003515869140625,0.03169686851203441,-0.01675400479361415,-0.0126329428082332
1761475522804493300,6.013493408203125,0.06446224303841591,-0.019637159014493227,-0.05681136295907199
1761475522814470100,6.02347021484375,0.07263795070946216,-0.019419570741057393,-0.06239924609400332
1761475522824447200,6.033447265625,0.04387012138664722,-0.004804769933223724,-0.03199373256675899
1761475522834424300,6.04342431640625,0.05554711517691612,0.029329116467386483,0.009567381225153803
1761475522844401200,6.053401123046875,0.07821487405896187,0.05404299422428012,0.043445502766408024
1761475522854378200,6.063378173828125,0.09469137708544731,0.0671072776544839,0.06756462950054555
1761475522864355000,6.07335498046875,0.08415010932683945,0.06847805455103516,0.04576846582125872
1761475522874332200,6.083332275390625,0.05534779321253299,0.06650880030468106,0.016429997003637252
1761475522884309000,6.09330908203125,0.0387514631986618,0.053061070514842865,0.010480112155899404
1761475522894286000,6.1032861328125,0.03888414966762066,0.04422543763034045,-0.011432992433942853
1761475522904263200,6.11326318359375,0.052343935221433636,0.03457761158011854,0.020053630860894917
1761475522914240000,6.123239990234375,0.021502806755900383,0.02992481733821332,0.054793885656818746
1761475522924217300,6.13321728515625,0.015622516545653341,0.03127586662098765,0.0773179617518559
1761475522934194200,6.143194091796875,-0.013030746486783026,0.059966831315308805,0.07236717094406485
1761475522944171300,6.153171142578125,-0.03560615091025829,0.049992184463515874,0.09033047846220434
1761475522954148000,6.163148193359375,-0.028152327772974967,0.057633858323097226,0.08728201414439826
1761475522964125200,6.173125244140625,-0.017518121033906934,0.04470533010177314,0.037151297993026675
1761475522974102300,6.183102294921875,-0.013287936118245124,0.024244579744711517,0.03498056635782122
1761475522984079000,6.1930791015625,-0.013906944799423218,0.014644099967554211,0.025193003043346106
1761475522994057200,6.20305712890625,-0.0011532616883516312,0.0003983516678214073,0.02107804200518876
1761475523004034300,6.213034423828125,-0.0030231472134590147,-0.02000336197838187,0.007196779636293649
1761475523014011100,6.22301123046875,-0.04315057494044303,-0.002278904717415571,0.010234905223175883
1761475523023988200,6.23298828125,-0.055385202613472934,-0.016324819596111772,0.002678133168071508
1761475523033965000,6.242965087890625,-0.09215805921554565,-0.026902985299006102,-0.019914331988058982
1761475523043942100,6.252942138671875,-0.11332184327542781,-0.0074365797415375705,-0.07342884535882621
1761475523053919000,6.2629189453125,-0.11620470523536204,0.025501155677065252,-0.06770560887381434
1761475523063896000,6.27289599609375,-0.09028934273421764,0.00594692570567131,-0.027175080238655207
1761475523073873400,6.282873291015625,-0.06361527082026004,0.02409114274866879,0.0003617094518616795
1761475523083850200,6.292850341796875,-0.03407178094983101,0.004421396638825535,0.01429251005090773
1761475523093827300,6.302827392578125,-0.016337386816740036,0.035096886213868854,0.02647591899335384
1761475523103804200,6.31280419921875,0.011738953110575675,0.03992101843468845,0.04181749970577657
1761475523113781200,6.32278125,0.031919571352005,0.0318736133184284,-0.003205846836604178
1761475523123758000,6.332758056640625,0.04752513676285743,0.019811492668092248,-0.04118332998808473
1761475523133735200,6.342735107421875,0.015524901390075682,0.014327800559997557,-0.026317075169831512
1761475523143712300,6.352712158203125,0.030296354064345356,0.023605405058339236,-0.032355551616474985
1761475523153689000,6.362689208984375,0.051831309524178505,0.04463299551792443,-0.03347074631676077
1761475523163666200,6.372666259765625,0.07596563382744789,0.026078371043130755,0.003241027747839689
1761475523173643000,6.38264306640625,0.11505728876590728,0.013241905019432305,0.047187575371563435
1761475523183620000,6.3926201171875,0.1598345881253481,0.044372810211777684,0.058307446735724806
1761475523193597200,6.40259716796875,0.15937047774493693,0.04369958712533116,0.06131082980278879
1761475523203574300,6.41257421875,0.1167559093773365,0.025371026491373776,0.053776744503527873
1761475523213551400,6.42255126953125,0.07241641691327094,0.038807796495780346,0.04435830676238984
1761475523223529200,6.432529296875,0.05582417855262756,0.0317973332118243,0.008042875071614981
1761475523233506300,6.44250634765625,0.08492284726500511,0.04753441604785621,-0.0020201441833749413
1761475523243483100,6.452483154296875,0.07133271332979202,0.04133008151501417,0.02899528140313923
1761475523253460200,6.462460205078125,0.029075287836790083,0.036035263042524454,0.037158677581883966
1761475523263437300,6.472437255859375,-0.021894436421990394,0.04733012564741075,0.04298281715810299
1761475523273414100,6.4824140625,-0.06542553511261939,0.06667465839087963,0.02801598804220557
1761475523283391200,6.49239111328125,-0.08461129709780216,0.06937229997701942,0.025949483966454863
1761475523293368000,6.5023681640625,-0.10143500612676143,0.041616497240960594,0.02739672363270074
1761475523303345200,6.51234521484375,-0.11486322749853134,0.015445406413078308,-0.02115297040492296
1761475523313322000,6.522322021484375,-0.11763269221186637,0.009105828128010035,-0.04287709176130593
1761475523323299000,6.532299072265625,-0.11153320629298687,0.004354541947692633,-0.062442318050749596
1761475523333276200,6.542276123046875,-0.0739390964359045,0.012040931731835007,-0.06901117504704743
1761475523343253200,6.552253173828125,-0.05473696783781051,0.0030178134512156246,-0.038839799069240684
1761475523353230300,6.562230224609375,-0.01902501846551895,0.0021477526184171436,-0.02526526456195861
1761475523363207200,6.572207275390625,0.002174421429634094,-0.010255290424078703,0.012107603759877383
1761475523373184300,6.582184326171875,-0.0191840084195137,-0.004157996462285519,0.013082220945693552
1761475523383161000,6.5921611328125,-0.029075287836790083,0.0010850918229669331,-0.009786723064258694
1761475523393138200,6.60213818359375,-0.0058627545535564415,0.02161006652265787,-0.024867278220318256
1761475523403115300,6.612115234375,0.013945523244142532,0.006862506180629134,-0.02135178091265261
1761475523413092000,6.622092041015625,0.059304421883821484,0.018367869731038808,0.012596190994419157
1761475523423069200,6.632069091796875,0.07332008775472641,0.015665332774072886,0.010393566383607685
1761475523433047000,6.642047119140625,0.06886135478019714,0.004197451689839363,-0.0026881796380504963
1761475523443024100,6.652024169921875,0.03692775490283966,0.0194067843247205,0.0004382452867925167
1761475523453001200,6.662001220703125,0.013207272097468376,0.022445932824909684,0.019478570919297635
1761475523462978000,6.67197802734375,-0.02020750624835491,0.03782813780866563,0.03134885879196227
1761475523472955100,6.681955078125,-0.00929272900223732,0.06451777261793613,0.04439118611868471
1761475523482932000,6.691931884765625,0.01459784967303276,0.06682743779979645,0.07844437196590005
1761475523492909300,6.701909423828125,0.02578676768541336,0.06228372995555401,0.0959314402744174
1761475523502886100,6.71188623046875,0.049719431936740874,0.06556085193008183,0.07248100658208131
1761475523512863200,6.72186328125,0.034301498052477834,0.061814066617190834,0.05857011625990271
1761475523522840300,6.73184033203125,0.00869359406530857,0.07003668216988444,0.057287309907749294
1761475523532817200,6.741817138671875,0.02559796711504459,0.08142185340672731,0.04282075846418738
1761475523542794200,6.751794189453125,0.06204641406834125,0.0730904437173158,0.04779631838705391
1761475523552771000,6.76177099609375,0.07735621140301227,0.05015073602609336,0.05850801080912351
1761475523562748200,6.771748046875,0.07570727515220642,0.01890950232706964,0.06441570048294962
1761475523572725000,6.78172509765625,0.0604582680940628,0.02318140749260783,0.04486753492616117
1761475523582702000,6.7917021484375,-0.019908815562725064,-0.006813552472367882,0.020766966762021184
1761475523592679200,6.80167919921875,-0.05874444991350174,0.021754297298938036,-0.015123590580187737
1761475523602656000,6.811656005859375,-0.08118599882423877,0.03410071478337049,-0.019766155689023433
1761475523612633300,6.82163330078125,-0.07658581155240535,0.034779783088713885,0.01901219551656395
1761475523622610200,6.831610107421875,-0.059093409481644626,0.03102444914318621,0.0094681221017614
1761475523632587300,6.841587158203125,-0.06900456264317036,0.02327536938637495,0.014776786436513065
1761475523642564000,6.851564208984375,-0.10462240399122237,-0.0034195261199027297,-0.009206913882307708
1761475523652541200,6.861541259765625,-0.16121815143823623,0.0006380787078291177,-0.025153438217937946
1761475523662518300,6.871518310546875,-0.1610053854703903,0.016428206905350087,-0.0833607125148177
1761475523672496000,6.88149609375,-0.1285322718888521,0.040317032014951106,-0.09789590874779969
1761475523682473200,6.89147314453125,-0.07586626510620116,0.02678571559488773,-0.0774111199280247
1761475523692450300,6.9014501953125,-0.006499883413314819,0.007281973701715469,-0.047165436604991555
1761475523702427100,6.91142724609375,0.027521628654003143,-0.031030294362083075,-0.03087031802739948
1761475523712404200,6.921404296875,0.025129765081405638,-0.0322867972292006,-0.023733232689090073
1761475523722381000,6.931381103515625,0.04925064538121223,-0.0018489888675510882,-0.04561806103251874
1761475523732358100,6.941358154296875,0.0722007283359766,0.00370718395486474,-0.04357873722463846
1761475523742335000,6.9513349609375,0.11739537632465362,0.0019308949973434208,-0.03296802095901221
1761475523752312000,6.96131201171875,0.15182897632420062,-0.00023797347433865068,-0.030896110055781897
1761475523762289400,6.971289306640625,0.1423620597988367,0.017092662163451313,-0.021273710707761347
1761475523772266200,6.981266357421875,0.125007604894042,0.0048173371538519855,-0.03142196056079119
1761475523782243300,6.991243408203125,0.07951251265406609,-0.005827610174939036,-0.012854914995841682
1761475523792220200,7.00122021484375,0.024722937846183776,0.008114332872629165,-0.028928317114152013
1761475523802197200,7.011197265625,0.0003647416591644287,0.028931495451927185,-0.05307246869169175
1761475523812174000,7.021174072265625,-0.023463293173909185,0.07179309738315641,-0.037310689805820585
1761475523822151200,7.031151123046875,-0.03882803556621074,0.11174107689000666,-0.004439261089079082
1761475523832128300,7.041128173828125,-0.05754150386452674,0.11028444834090768,0.043005978837981816
1761475523842105000,7.05110498046875,-0.0633949060678482,0.11870550907514989,0.0627576310776174
1761475523852082200,7.061082275390625,-0.04352876060307025,0.1314012514539063,0.05025960322804749
1761475523862059000,7.07105908203125,-0.07199614567458629,0.11276201743558048,0.012772716605104505
1761475523872036000,7.0810361328125,-0.09615501989722251,0.07840170186795294,-0.03987053035646677
1761475523882013200,7.09101318359375,-0.10749883621037006,0.07525602425336837,-0.05624178291019052
1761475523891990300,7.100990234375,-0.08468845398724079,0.057008054574951526,-0.06749850546177476
1761475523901967400,7.11096728515625,-0.06618599809110164,0.020071897169947624,-0.038857992313057185
1761475523911945200,7.1209453125,-0.043322424376010894,0.009985460506752133,-0.02488397362679243
1761475523921922300,7.13092236328125,-0.03243102800548076,0.019857012310251592,-0.01948178578969091
1761475523931899100,7.140899169921875,0.003000350859761238,0.021266952173411846,-0.014044855432771145
1761475523941876200,7.150876220703125,0.01601122360229492,-0.009522811431065202,-0.021793131471984088
1761475523951853300,7.160853271484375,0.009159458011388778,-0.025103899987787007,-0.018973690137080848
1761475523961829400,7.170829345703125,-0.026035774010419843,-0.02519201666265726,-0.04125577416978776
1761475523971806500,7.180806396484375,-0.05529635528624057,-0.005712824688851833,-0.05940280422437936
1761475523981783300,7.190783203125,-0.06082710140645504,0.017617562820389867,-0.05364548280667513
1761475523991760400,7.200760498046875,-0.011531447839736938,0.049271468973532316,-0.03161656981743872
1761475524001737500,7.210737548828125,0.06480009669065476,0.0448306369818747,0.01913615068979561
1761475524011714600,7.220714599609375,0.13852525811493396,0.024511633183062074,0.05487082335054874
1761475524021691400,7.23069140625,0.17778642440140247,0.018254180223494766,0.05362615705169737
1761475524031668500,7.24066845703125,0.157337510612607,0.004573007003962994,0.05530132372230291
1761475524041645600,7.2506455078125,0.10463117181956767,0.02570435009896755,0.06663410718478262
1761475524051622400,7.260622314453125,0.06514438008368015,0.0549164160579443,0.07731376050077378
1761475524061599500,7.270599609375,0.015885551396012304,0.0764362470138818,0.11488284551445394
1761475524071576300,7.280576416015625,-0.0523673160970211,0.10557327497527003,0.14965017098039388
1761475524081553400,7.290553466796875,-0.07043254961967468,0.13998897399194538,0.16395926683992146
1761475524091530200,7.3005302734375,-0.0721042822241783,0.14984803164005278,0.14656816971916706
1761475524101507300,7.31050732421875,-0.07904372609853744,0.13032441600263117,0.15849449862800538
1761475524111484400,7.320484375,-0.06974281378984451,0.11363741203062236,0.14853124995306133
1761475524121461500,7.33046142578125,-0.04539338543117046,0.09271240516267716,0.12059702191017567
1761475524131438600,7.3404384765625,-0.057926119267940515,0.07249108958467841,0.11588818663209675
1761475524141415400,7.35041552734375,-0.07757599163353443,0.06378807010389864,0.12596567280385643
1761475524151392500,7.360392578125,-0.06018003567457199,0.05751819605417549,0.09490260868333279
1761475524161370600,7.37037060546875,-0.01988426564335823,0.059975087687000626,0.07467223301604389
1761475524171347500,7.380347412109375,0.012630933514237403,0.050011327555403114,0.07149919247049838
1761475524181324500,7.390324462890625,0.032710429468750954,0.027239304581284523,0.06810107446480541
1761475524191301400,7.40030126953125,0.0325339038580656,0.010565525417029858,0.062482394332811234
1761475524201278500,7.410278564453125,0.02900397616624832,0.011903276826813816,0.045148689955100414
1761475524211255300,7.42025537109375,-0.007286649876832961,0.011701324513927101,0.021670126146823166
1761475524221232400,7.430232421875,-0.03329728944599628,0.007987345492094755,-0.026449871236644683
1761475524231209500,7.44020947265625,-0.03617898236215114,0.023297946544364092,-0.0447192490292713
1761475524241186300,7.450186279296875,-0.06279927826225758,0.021310645184665918,-0.08117295667957514
1761475524251163400,7.460163330078125,-0.06512099920809268,0.02657426480129361,-0.0810660622389987
1761475524261140200,7.47014013671875,-0.05134615635573864,0.025649624237045643,-0.06792053026612847
1761475524271117600,7.48011767578125,-0.035927637949585915,0.006157645846903324,-0.031281638774648304
1761475524281094400,7.490094482421875,0.018118425014615056,0.033739845581725235,-0.04958254421669989
1761475524291071500,7.500071533203125,0.05062953251898288,0.01822005875818431,-0.033137240046076474
1761475524301048600,7.510048583984375,0.03102525286078453,0.007616539418324827,-0.03762837745286524
1761475524311025400,7.520025390625,0.05394143354594707,0.032437165485322474,-0.032092955157533284
1761475524321002500,7.53000244140625,0.06717968530356884,0.054237201622128486,-0.053958384680747984
1761475524330979300,7.539979248046875,0.04378711927831173,0.04168137917071581,-0.017292385986633598
1761475524340956400,7.549956298828125,0.03491466151475906,0.054387423747777934,-0.0020176964979618786
1761475524350933200,7.559933349609375,0.04835632688999176,0.049090047992020845,-0.00421633905339986
1761475524360910300,7.569910400390625,0.07164660158455372,0.035113691218197345,-0.023131430871039627
1761475524370887400,7.579887451171875,0.07833411652445793,0.03224719587117433,-0.0076593921793624755
1761475524380864300,7.5898642578125,0.06461071159839629,0.033837241541594267,0.0014708397375419735
1761475524390841600,7.599841552734375,0.020540683725476263,0.05107420754656195,0.03144691233895719
1761475524400818400,7.609818359375,-0.034792496439814566,0.06037080900631844,0.0473507300440222
1761475524410796300,7.61979638671875,-0.04994564190804958,0.07779547960311174,0.053684097784012556
1761475524420773600,7.629773681640625,-0.045509705287218094,0.08163023546040057,0.01594389398712665
1761475524430750500,7.63975048828125,-0.062216509938240044,0.06380355993397534,0.018106661511585114
1761475524440727600,7.6497275390625,-0.08560089265704154,0.055107993107289074,0.04237085927221924
1761475524450704400,7.659704345703125,-0.10429916338622569,0.04991846164017916,0.025414281111210583
1761475524460681500,7.669681396484375,-0.10304711749851703,0.06909070655666291,0.01850519584249705
1761475524470658300,7.679658203125,-0.0753162300080061,0.06405855760835111,-0.0017290522823110222
1761475524480635400,7.689635498046875,-0.0414139604061842,0.05247559877708554,0.0018620675448328256
1761475524490612500,7.699612548828125,-0.022187866410613058,0.05400967647656798,-0.009371420261636376
1761475524500589300,7.70958935546875,-0.007194879940152167,0.034919264624640345,-0.02011792826876044
1761475524510566400,7.71956640625,-0.008075169906020164,0.052967400882020586,-0.035587300079315896
1761475524520543200,7.729543212890625,-0.010605565166473388,0.04710859185121953,-0.024098741533234713
1761475524530520300,7.739520263671875,-0.005370587122440338,0.06219210614934563,-0.041783962762355804
1761475524540497400,7.749497314453125,0.01961187844276428,0.05955306288264692,-0.06498915298935025
1761475524550474500,7.759474609375,0.029357611909508703,0.03898044964894652,-0.04635660444013774
1761475524560451600,7.76945166015625,0.03675006024837494,-0.0005636982973664999,-0.023094350263662636
1761475524570428400,7.779428466796875,0.06378419764637946,0.025685060876607893,-0.019831658673286436
1761475524580405500,7.789405517578125,0.08909633355736732,0.0424698261346668,-0.0284050238924101
1761475524590382300,7.79938232421875,0.11408698242902755,0.044710517733544106,-0.021110044578649102
1761475524600359400,7.809359375,0.13531389485299586,0.023289178716018794,0.006822320300713181
1761475524610336300,7.819336181640625,0.11696166108250618,0.007321501994505524,0.005334967819787562
1761475524620313300,7.829313232421875,0.11619184575378894,0.0204531515724957,-0.0022538433413952586
1761475524630290400,7.83929052734375,0.09214403069019317,-0.003905044614523649,-0.017393142947368323
1761475524640267300,7.849267333984375,0.061350833019614213,-0.005822933999821543,0.001997493960149586
1761475524650244400,7.859244384765625,-0.004090484184026718,0.02105886238068342,0.016040668892487883
1761475524660221400,7.869221435546875,-0.0568202038526535,0.03793656661920249,0.021767522106692194
1761475524670198500,7.879198486328125,-0.08175766123235226,0.07761471620872616,0.038104689727723594
1761475524680176400,7.88917626953125,-0.09737783969044685,0.05143734177052974,0.03835877408664674
1761475524690153500,7.899153564453125,-0.0759217946857214,0.06151106508262455,0.030846133434213698
1761475524700130600,7.909130615234375,-0.022221184158325195,0.05161196768507361,0.010491912191547452
1761475524710107400,7.919107421875,-0.01224631811082363,0.012660378804430364,0.03040883799549192
1761475524720084500,7.92908447265625,-0.004557517173886299,0.004463847541064023,0.04222520372383296
1761475524730061600,7.9390615234375,-0.042321138378977774,0.0038194121576845645,0.05925196104422211
1761475524740038400,7.949038330078125,-0.0704272889226675,0.025739567542821168,0.06339749988373368
1761475524750015500,7.959015380859375,-0.1196136368960142,0.05399126403704285,0.04614186571091413
1761475524759992300,7.968992431640625,-0.11323767212331294,0.0486219190236181,0.007706519256718457
1761475524769969400,7.978969482421875,-0.07814122430086136,0.035293066373094914,0.0287803965434432
1761475524779946200,7.9889462890625,-0.02833645216822624,0.03315722338818013,0.06620112259499729
1761475524789923300,7.99892333984375,0.014798925203084946,0.03969816946424544,0.07612447765097022
1761475524799900400,8.008900390625,0.036761166164278984,0.039242388520762325,0.05796287108175456
1761475524809877500,8.01887744140625,0.0067740241795778275,0.05196794151589274,0.044398821435868735
1761475524819854600,8.0288544921875,-0.020789105528593064,0.050911052874103184,0.011549239224754274
1761475524829831400,8.03883154296875,-0.00523848517537117,0.06891819953396916,0.009383622156083583
1761475524839808500,8.04880859375,0.03644318625628948,0.04580642321147024,-0.011221906966529785
1761475524849785300,8.058785400390626,0.083110244885087,0.024658128981664775,-0.03424264400471002
1761475524859762400,8.068762451171875,0.12602467298209666,0.005215250430256128,-0.05041884891036898
1761475524869739500,8.078739501953125,0.14561901576817035,-0.009137611505761742,-0.04325180682521313
1761475524879716400,8.08871630859375,0.1446101309865713,-0.012667612262815237,-0.03056234805677086
1761475524889693400,8.098693359375,0.10005261185765266,0.014333061257004736,-0.03780453773736953
1761475524899670300,8.108670166015624,0.060871525070071215,0.03721658178158104,-0.03326521380729973
1761475524909647400,8.1186474609375,0.04479600405991077,0.043805823978781695,0.011258914508670568
1761475524919624400,8.12862451171875,0.03682780165970325,0.03082936496250331,0.005539769676886498
1761475524929601500,8.1386015625,0.036711481803655625,0.00956007470153272,-0.03558470626343042
1761475524939578600,8.14857861328125,0.02377601238489151,-0.008327244970947504,-0.05567275085058063
1761475524949555500,8.158555419921875,0.005779752445220947,-0.018367504404857755,-0.062372504217550154
1761475524959532800,8.16853271484375,-0.023752631509304047,0.007772679828107356,-0.035561763779260215
1761475524969510000,8.178510009765626,-0.04338964439332485,-0.008559154030680655,-0.0006341697176918388
1761475524979487000,8.188487060546874,-0.07944061646163462,0.0034119273353368043,0.04285506259258836
1761475524989464800,8.19846484375,-0.11535188779830932,0.05646379163041711,0.02671893396899104
1761475524999442000,8.20844189453125,-0.15572013854384423,0.058980304495990274,0.01437770411632955
1761475525009418800,8.218418701171874,-0.1687310112863779,0.04723426405750215,-0.01912431412152946
1761475525019395800,8.228395751953125,-0.11982640286386012,0.022553265656903385,-0.059961899411864576
1761475525029373000,8.238373046875,-0.04749883327782154,0.007389379598945379,-0.01827493075057864
1761475525039349800,8.248349853515625,0.005272971966862678,-0.001867693568021059,0.0284286604963243
1761475525049326800,8.258326904296876,0.026774025157094,-0.00790967714600265,0.03941215559709817
1761475525059303700,8.2683037109375,-0.018732757520675658,0.015393164769187569,0.02331745496243238
1761475525069280800,8.27828076171875,-0.05486965430676937,0.051063466956838964,0.028683475507609545
1761475525079257600,8.288257568359375,-0.03326806335151195,0.08124174759946763,0.05660338276419788
1761475525089235000,8.29823486328125,0.001418050104379654,0.07408975695297122,0.0660966027745977
1761475525099212000,8.3082119140625,0.050859249621629715,0.07164236380085348,0.06341569312755019
1761475525109188900,8.31818896484375,0.02249415588080883,0.05105521058514714,0.06609810061194002
1761475525119166000,8.328166015625,-0.002745499315857887,0.06552658433429896,0.04642258234843612
1761475525129142800,8.338142822265626,-0.00851765297651291,0.08240969540029763,0.022221147625707087
1761475525139119900,8.348119873046874,0.0016746552139520643,0.07259849548190832,0.002565649236924946
1761475525149098000,8.358097900390625,0.06785130095481873,0.06697576022930443,0.02561382227130234
1761475525159074800,8.36807470703125,0.11724223158955574,0.057954103253409266,0.04354768449924886
1761475525169052000,8.378052001953124,0.12463935610353946,0.04190715075060725,0.060163303735479706
1761475525179028700,8.38802880859375,0.12256196530759333,0.039082010327279565,0.0446469875106588
1761475525189005800,8.398005859375,0.12179507258832455,0.056262935296073555,-0.004698715742863714
1761475525198983000,8.40798291015625,0.10272270784974098,0.03610832827873528,-0.030584998279996216
1761475525208959700,8.417959716796876,0.06052198098003864,0.020002850521728396,-0.01727923424411565
1761475525218936800,8.427936767578124,0.04049275390803814,-0.0003106733843684196,0.016883220663852987
1761475525228913700,8.43791357421875,0.020513795718550682,0.006232245453074574,0.03662939301077276
1761475525238891000,8.44789111328125,-0.013529343658685683,-0.007440379133820533,0.045051732386648655
1761475525248867800,8.457867919921876,-0.05583645351231098,-0.006771686092019081,0.03438486548699438
1761475525258845000,8.467844970703124,-0.09284545695781707,-0.008491934013366698,0.0352632557567209
1761475525268822000,8.477822021484375,-0.10453998640477656,0.0012497808653861285,0.02230276149455458
1761475525278798800,8.487798828125,-0.1089613099783659,-0.0017532003428786993,0.011454875472187995
1761475525288776000,8.49777587890625,-0.09877309344112872,-0.005141162280738353,0.018250782690010965
1761475525298752800,8.507752685546874,-0.10797112989723681,-0.0017467706020921467,0.017783640102297067
1761475525308729900,8.517729736328125,-0.10844167001843452,0.013961816791817546,0.02635835702829063
1761475525318706700,8.527706787109375,-0.11542261494696139,0.052610184942185875,0.017395188773982224
1761475525328683800,8.537683837890626,-0.12246727276146412,0.059734849190339445,0.031215587801113723
1761475525338660900,8.547660888671874,-0.08614508253633975,0.07284099900089204,0.0006819909147918224
1761475525348637700,8.5576376953125,-0.060137365576624864,0.05159238620176911,-0.017257132010161876
1761475525358615000,8.567614990234375,-0.03485504028201103,0.04491897285245359,-0.0015289996655657888
1761475525368592000,8.577591796875,-0.004434767577052116,0.042425694731995464,0.01223294717259705
1761475525378569000,8.58756884765625,0.03186813342571258,0.08409399522542953,0.021014402184449135
1761475525388545800,8.5975458984375,0.04639408690631389,0.0733868693806231,0.012874094620347023
1761475525398523000,8.60752294921875,0.06711831050515174,0.06562208059802652,0.007616174092143773
1761475525408500000,8.6175,0.07740121958851814,0.0496392793726176,0.0008917977405712008
1761475525418476800,8.627476806640624,0.07362871531248093,0.02583718269839883,0.0007943652480840683
1761475525428454000,8.637453857421875,0.04131166907548904,0.040915363234281535,-0.02582976657692343
1761475525438430700,8.6474306640625,0.050018122622370716,0.05780095851831138,-0.037734979632496835
1761475525448408800,8.657408935546876,0.10845569854378699,0.05483692108094692,-0.025783370151929556
1761475525458386000,8.667385986328124,0.14493804776668548,0.04027100091613829,-0.0032696327878162265
1761475525468362800,8.67736279296875,0.15628303312361239,0.026873978400230408,0.014854125989042222
1761475525478339800,8.68733984375,0.15075579413473605,0.045587081372365355,0.03794168118573725
1761475525488316700,8.697316650390626,0.11601824275255203,0.01333725515268743,0.025464330798014998
1761475525498293800,8.707293701171874,0.08522738316953182,0.007746230212599039,0.006175364166684448
1761475525508270800,8.717270751953125,0.10799509529471396,0.015493775599449871,-0.01911149117257446
1761475525518248000,8.727248046875,0.09833704011142254,0.015673223819583654,-0.02294065753929317
1761475525528225000,8.73722509765625,0.060822425231337546,-0.026721345121786,-0.007418715291284024
1761475525538201900,8.747201904296874,-0.035113398957252503,-0.008706526612117887,0.03958060749918222
1761475525548179000,8.757178955078125,-0.1364496208846569,0.024024434188008308,0.0228463668519631
1761475525558155800,8.76715576171875,-0.20211130284070966,0.05247640249468386,0.004034698876179754
1761475525568132900,8.7771328125,-0.25519232016503807,0.06665113138481975,0.012304404973611235
1761475525578109700,8.787109619140624,-0.2337602405577898,0.057020548730343575,0.009600552842393516
1761475525588086800,8.797086669921875,-0.16343348940014837,0.04757803599387407,-0.00792169637735933
1761475525598063900,8.80706396484375,-0.10532383025884627,0.014524565241113304,0.007604008730314671
1761475525608040700,8.817040771484375,-0.0396317531645298,-0.02470123747102916,-0.0007337211020290852
1761475525618017800,8.827017822265624,-0.013210779228806495,-0.021406068383157253,0.01110507565382868
1761475525627995000,8.836994873046875,-0.04648351875543594,-0.03145166157931089,0.02379807808622718
1761475525637972000,8.846971923828125,-0.06904957082867622,-0.0032560791864991185,0.012853124897554516
1761475525647948800,8.85694873046875,-0.07446691970229148,0.05338832970783114,0.007940072284266353
1761475525657926000,8.86692578125,-0.07331658062338829,0.015419395188987254,-0.0037435339098796246
1761475525667903000,8.876903076171875,-0.07828969286084175,0.0015977905854582786,-0.037581140777654946
1761475525677879800,8.8868798828125,-0.07314531570971011,0.011135945716127752,-0.051562904378958045
1761475525687857000,8.89685693359375,-0.0736386521846056,0.01972184162326157,-0.06727485277373343
1761475525697833700,8.906833740234376,-0.05118891996741295,-0.0037221623282879587,-0.07184194149356335
1761475525707810800,8.916810791015624,-0.020053192469477652,-0.013333821086585521,-0.05410546500124037
1761475525717787600,8.92678759765625,0.01588496687412262,-0.012109759184345602,-0.04975424752179533
1761475525727764700,8.9367646484375,0.05719838951528072,-0.011927461419999598,-0.02917641012370586
1761475525737742800,8.946742919921874,0.07979542124867439,-0.012338891765102743,-0.04347341368664056
1761475525747719700,8.9567197265625,0.09524608835875988,-0.003715878717973828,-0.052145709235593675
1761475525757696800,8.96669677734375,0.10884674368798732,0.011023352187126875,-0.036614195441640913
1761475525767673900,8.976673828125,0.13317103760540486,0.024636720867455005,-0.016167400544695554
1761475525777651000,8.98665087890625,0.18444529776871205,0.028356252847239374,0.023394356123544274
1761475525787628000,8.9966279296875,0.1815840631186962,0.04384915166385472,0.05975450373888015
1761475525797604900,9.00660498046875,0.164752755305171,0.06483458348214625,0.09899784210771322
1761475525807582000,9.01658203125,0.08610358148217201,0.05508300479650497,0.11358900631163268
1761475525817558800,9.026558837890626,0.015481646770238876,0.09339695336073636,0.10796166794914752
1761475525827536000,9.036535888671875,0.023351064971089363,0.1010148810185492,0.05200045554600656
1761475525837512700,9.0465126953125,0.006989712756872176,0.055981999462842935,0.04739818591494113
1761475525847489800,9.05648974609375,-0.0024848025530576703,0.04167246521189809,0.06858936943840235
1761475525857467000,9.066466796875,0.03778466399312019,0.08036028858982026,0.061091670626774425
1761475525867443700,9.076443603515624,0.04338613726198673,0.08517090374194085,0.08647201293576508
1761475525877420800,9.0864208984375,-0.005458265405893325,0.08512954881824553,0.13358765558227895
1761475525887398000,9.09639794921875,-0.06831891846656798,0.09883322613053024,0.14836382096428424
1761475525897375000,9.106375,-0.11056114639043807,0.14141243092380462,0.11306308274138718
1761475525907351800,9.116351806640624,-0.1333212597310543,0.15016725365705788,0.06671937431544066
1761475525917329000,9.126328857421875,-0.08579086227118969,0.11905264201238751,0.05633333365116268
1761475525927306000,9.136305908203125,-0.031654198414087294,0.08528963475078344,0.055365621130168435
1761475525937282800,9.14628271484375,0.03009060235917568,0.057671048528328536,0.035830936109460886
1761475525947260000,9.156260009765624,0.06920972982645035,0.04237389147952199,0.007511800402216613
1761475525957236700,9.16623681640625,0.06335457405745983,0.012589432460069655,0.01524776494912803
1761475525967213800,9.1762138671875,0.02887538135051727,0.014282207852602005,0.00921549904756248
1761475525977190700,9.186190673828126,0.003993453550338745,0.044100934467837215,-0.012604593496583402
1761475525987167700,9.196167724609374,0.01795358984172344,0.046386415056511754,-0.013082659337110817
1761475525997144800,9.206144775390625,0.05478197602331638,0.02876512590907514,0.010381364489160478
1761475526007122000,9.216121826171875,0.10729951424598694,0.01453830150552094,0.0007264511110261083
1761475526017099000,9.22609912109375,0.1257259822964668,-0.014460998485609888,-0.018515132714621723
1761475526027076600,9.23607666015625,0.1346107150197029,-0.035672128818556664,-0.03037972149886191
1761475526037053700,9.2460537109375,0.10587795701026916,-0.006388824254274368,-0.05936407964918762
1761475526047031000,9.256031005859375,0.07297112818658351,0.010476531959325075,-0.07824899552427232
1761475526057007900,9.2660078125,0.034084055909514424,-0.0018855214856564999,-0.038414961253292856
1761475526066985000,9.27598486328125,0.012535071924328803,-0.014571546187996864,-0.004557736369594932
1761475526076961800,9.2859619140625,0.010717208847403526,-0.012780351922288536,-0.00545822887327522
1761475526086939000,9.29593896484375,-0.02273380985558033,-0.02297550965696573,-0.014985570348985492
1761475526096915700,9.305915771484376,-0.05003741184473037,-0.018515607638657092,-0.009307086321152746
1761475526106892800,9.315892822265624,-0.07876198654770851,-0.006584785217791795,-0.011618651199154555
1761475526116870000,9.325869873046875,-0.0690589231789112,0.008369842003658413,-0.021964980907551942
1761475526126846700,9.3358466796875,-0.07669394810199737,0.01499737038463354,-0.010133600273169577
1761475526136823800,9.34582373046875,-0.046586979129910465,0.024862054055929183,-0.020493958506919444
1761475526146800600,9.355800537109374,-0.030343115815520284,0.008534457980841398,-0.016957674139551817
1761475526156778000,9.365778076171875,-0.04851005614697933,-0.013600801459699868,-0.012771766757033764
1761475526166754800,9.3757548828125,-0.06909340997040271,-0.015889569984003902,-0.022093173864483832
1761475526176732000,9.38573193359375,-0.06753682817816734,0.014913710689172148,-0.036449652529694135
1761475526186709000,9.395708984375,-0.0686930124759674,0.01552468219436705,-0.029859204756096002
1761475526196685800,9.405685791015625,-0.08997486995756626,0.023705723627656695,0.01253580257669091
1761475526206663000,9.415662841796875,-0.09218845435380935,0.0582736905965954,0.04726020221635699
1761475526216639700,9.4256396484375,-0.06411152990460395,0.07656294213347137,0.07091857957094908
1761475526226616800,9.435616943359374,-0.0511994413614273,0.07462313317731023,0.08103197730630636
1761475526236593700,9.44559375,-0.03849368904531002,0.08432700026370585,0.06024060675539076
1761475526246570800,9.45557080078125,-0.01662964776158333,0.0640835459191352,0.015223763019032775
1761475526256547800,9.4655478515625,0.0034101007044315336,0.03616773031577468,0.006944375777803361
1761475526266524700,9.475524658203126,0.04161503593623638,0.03517981525696814,0.020760171695053575
1761475526276502000,9.485501953125,0.0679044924467802,0.012240180630981921,0.03232975958809256
1761475526286478800,9.495478759765625,0.08617956932783126,0.02296221178397536,0.05739073374960571
1761475526296456000,9.5054560546875,0.11773907519578933,0.05665456496216356,0.08052844823095948
1761475526306432800,9.515432861328126,0.1377431678265333,0.05037943021543324,0.09933989701103418
1761475526316409900,9.525409912109374,0.12603928602933884,0.04966704416237771,0.07887856213208287
1761475526326387000,9.535386962890625,0.093166359475255,0.07877528442069888,0.04781750730555504
1761475526336363800,9.54536376953125,0.07049275537431239,0.06612754590213299,0.01123739679660648
1761475526346340900,9.5553408203125,0.020994272711873055,0.05117686420343816,0.008715002179518342
1761475526356319000,9.565319091796875,-0.019736381605267524,0.04516352219805121,0.007362601189874112
1761475526366295800,9.5752958984375,-0.052336920958757395,0.05734035526923835,0.0075879709109663955
1761475526376273000,9.58527294921875,-0.06889233444035053,0.04614844158217311,-0.009580167641490698
1761475526386249700,9.595249755859374,-0.08008008340895176,0.03946238794699311,0.000027801322378218173
1761475526396226800,9.605226806640625,-0.07807575784921646,0.0073749857474118465,0.012749445327371357
1761475526406203600,9.61520361328125,-0.05754033482074737,-0.00473426198028028,-0.019611768844909967
1761475526416180700,9.6251806640625,-0.0226087221711874,-0.018113018187135458,-0.04026650740411132
1761475526426157800,9.63515771484375,0.013941431590914726,-0.030896292718872426,-0.037055399870499967
1761475526436135000,9.645135009765625,0.030409166789054868,-0.048161461905017494,-0.01063015161845833
1761475526446112000,9.655112060546875,0.018674889853596686,-0.005480111911520362,-0.0023946035189554094
1761475526456088800,9.6650888671875,-0.006074935999512672,-0.016912410225719213,0.01583184844739735
1761475526466066000,9.67506591796875,-0.06324409942030906,0.005965484275668859,-0.0036846798621118066
1761475526476042800,9.685042724609374,-0.08534019589424133,0.014274536002799867,-0.06449789887368679
1761475526486019800,9.695019775390625,-0.07394727974236011,0.032603535028174514,-0.07896971101425587
1761475526495997000,9.704996826171875,-0.031058570608496663,0.0034498481929302214,-0.04308112643342465
1761475526505973800,9.714973876953126,-0.0055991351813077924,0.01209806874655187,-0.006479352081939577
1761475526515950800,9.724950927734374,-0.020237901386618615,0.03395860289894044,0.029731486723199484
1761475526525927700,9.734927734375,-0.055357730084657664,0.051629868667945264,0.03295812061950564
1761475526535904800,9.74490478515625,-0.10096329696178435,0.04039981492757797,0.014788586472161113
1761475526545881900,9.7548818359375,-0.09021043227910995,0.07139956802092493,-0.01815879355762154
1761475526555859000,9.76485888671875,-0.06099310562312603,0.07328487031087279,-0.05710051863137632
1761475526565836000,9.7748359375,0.03278758635818958,0.047901714990288016,-0.032006957374513145
1761475526575812900,9.784812744140625,0.0895458308905363,0.04027816130928695,0.02673460646215826
1761475526585790000,9.7947900390625,0.13514964420199393,0.03627499008253217,0.07202946342229842
1761475526595766800,9.804766845703124,0.13152034778892993,0.07544635919369756,0.07164221767038106
1761475526605743900,9.814743896484375,0.08392799100875854,0.08564736214727163,0.049365029008500275
1761475526615720700,9.824720703125,0.06387947471439838,0.06514233425706624,0.01547134457193315
1761475526625697800,9.83469775390625,0.08379705810546874,0.02930420122183859,0.003639963937550783
1761475526635675000,9.8446748046875,0.1023076973080635,0.006708923054113984,-0.02986870323680341
1761475526645651700,9.854651611328125,0.08837678711116313,-0.0011935206335037946,-0.023071407779492438
1761475526655628800,9.86462890625,0.0034650457620620727,0.0018897592693567274,-0.005347352377325296
1761475526665606000,9.87460595703125,-0.02199380514323711,0.03570997661091387,0.000007014262676239014
1761475526675583000,9.8845830078125,-0.0453004464507103,0.07309132050015033,0.02006817084290087
1761475526685560800,9.894560791015625,-0.04211480215191841,0.08139671896547078,0.03415328522082418
1761475526695538000,9.904537841796875,-0.03788052558302879,0.05547098120078444,0.03576777121275663
1761475526705515000,9.914514892578126,-0.04079787433445453,0.03502374791242182,0.01257069122698158
1761475526715491800,9.924491943359374,-0.05702595555782318,0.031112492752820253,-0.025447306597977875
1761475526725469000,9.934468994140625,-0.07985328891575336,0.03985737861394882,-0.035651159095764155
1761475526735445800,9.94444580078125,-0.09600245968401432,0.054501990038156506,0.0035794659219682214
1761475526745422800,9.9544228515625,-0.08528934248983859,0.049294557588174935,0.02242361139524728
1761475526755400000,9.96439990234375,-0.05740531026422977,0.055903089007735246,0.01959485424272716
1761475526765376800,9.974376708984375,-0.026487609431147575,0.03419840300418436,-0.0014180866369977593
1761475526775353900,9.984353759765625,-0.010187047493457793,0.012621361968293785,-0.02775134575664997
1761475526785330700,9.99433056640625,0.0004898293435573578,0.007186477437987923,-0.040499439377151426
1761475526795307800,10.004307861328124,-0.005446574968099594,0.014747560342028737,-0.040549196803011
1761475526805284900,10.014284912109375,-0.02487082188427448,0.03016512890011072,0.0004975377259775996
1761475526815262000,10.024261962890625,-0.032870588466525075,0.02784391941092908,0.028353622498735784
1761475526825239000,10.034239013671876,-0.03771919754147529,0.06502404163964093,0.05760941800158471
1761475526835216000,10.0442158203125,0.03256605256199836,0.02023760912567377,0.011009981248900293
1761475526845193000,10.05419287109375,0.08163958781063556,0.03636756373681128,0.004703245787508786
1761475526855169800,10.064169677734375,0.1268301441460848,0.015008622431010006,-0.043602081567607816
1761475526865147000,10.07414697265625,0.0982470237404108,-0.019200448097661138,-0.036282698464952405
1761475526875123700,10.084123779296876,0.03496259230971336,-0.009638619830459355,-0.09430610409490764
1761475526885100800,10.094100830078125,-0.02694529007077217,0.003924406902119517,-0.08480612555015832
1761475526895078000,10.104077880859375,-0.049506665968894956,0.05356207883954048,-0.006030512335896492
1761475526905054700,10.1140546875,-0.007646130838990211,0.09015183395966887,0.09409742978028952
1761475526915031800,10.12403173828125,0.04040156849324703,0.12806326613761485,0.16632738421075044
1761475526925009000,10.1340087890625,0.07341419577896595,0.12205467337258159,0.18560670623090117
1761475526934986000,10.143986083984375,0.05547989515960216,0.0804361303050071,0.1510119973855093
1761475526944962800,10.153962890625,0.01061900916993618,0.03354702642336488,0.09667107966057956
1761475526954940000,10.16393994140625,-0.02631692903935909,0.031146614218130707,0.0065559244494885205
1761475526964917000,10.1739169921875,-0.05905658460259437,0.034283450939133764,-0.02568484168089926
1761475526974894000,10.18389404296875,-0.04696984096765518,0.022224033702537418,-0.018958236839622257
1761475526984871000,10.193870849609375,-0.014637012639641761,0.007302578098326921,0.029652247474528846
1761475526994848000,10.203847900390626,0.031437925314903255,-0.015623174132779239,0.04193144494164735
1761475527004824800,10.213824951171874,0.03518529514968395,-0.02464687693528831,0.05558361126240342
1761475527014802000,10.223802001953125,-0.009102759388089179,0.018143851716816425,0.06898910934571176
1761475527024779000,10.233779052734375,-0.043567339047789574,0.0643386166587472,0.05565952604282647
1761475527034756900,10.2437568359375,-0.07089490643441676,0.06929543534852564,0.038596163039095695
1761475527044734000,10.25373388671875,-0.09333177917003631,0.06038081894367933,0.048373058829084034
1761475527054710800,10.263710693359375,-0.08499415893554688,0.07717975885756313,0.03628653438985348
1761475527064687900,10.27368798828125,-0.05378945785462856,0.04879530282914638,0.02331661471221596
1761475527074665000,10.2836650390625,-0.03863163621127605,0.04703128883130848,0.009556859831139445
1761475527084642000,10.29364208984375,-0.03394669326543808,0.04947868198342621,-0.0026735300581902264
1761475527094619100,10.303619140625,-0.023928572598099707,0.04275784929580986,-0.0066908759407699105
1761475527104596000,10.313595947265625,-0.002070961055159569,0.06775185916833579,-0.048213484353199595
1761475527114573000,10.323572998046876,0.03476619295477867,0.03734006203077733,-0.03780830059703439
1761475527124550000,10.3335498046875,0.08840718224942684,0.02072751153446734,-0.032367095923796295
1761475527134527000,10.34352685546875,0.12407529247999191,-0.0031185704119503495,-0.01833130058031529
1761475527144504000,10.353504150390625,0.1376519824117422,-0.005358823619410395,-0.05067165462765842
1761475527154481000,10.36348095703125,0.12846446734964848,0.013151815583184361,-0.06297076237164437
1761475527164458000,10.3734580078125,0.0816945328682661,0.01706752772219479,-0.020165347607061266
1761475527174434800,10.383434814453125,0.03809621416032314,0.038431437464058395,0.005767367887683212
1761475527184412000,10.393411865234375,0.044403789871931075,0.0315934812027961,-0.014948124415427446
1761475527194389000,10.403388916015626,0.0653600686609745,0.011259864356741308,-0.04847823623660952
1761475527204366000,10.413365966796874,0.1069090536236763,-0.0069713733825832605,-0.0553566341061145
1761475527214343200,10.42334326171875,0.09564940846264362,-0.016908756963908672,-0.02269906733576208
1761475527224320000,10.433320068359375,0.04137362839579582,0.0063315411090850825,0.024825083046406505
1761475527234297000,10.443297119140626,-0.03059036857485771,0.047131242074444885,0.05781677714195102
1761475527244274000,10.45327392578125,-0.11453238810896872,0.07745397268906236,0.04813592560496181
1761475527254251000,10.4632509765625,-0.15514321543872356,0.0846986831203103,0.013182685645483434
1761475527264227800,10.473227783203125,-0.18186521814763545,0.07571304730586707,0.0027552900575101374
1761475527274205000,10.483204833984376,-0.13579904802143572,0.03212495773099363,0.0014447189155966042
1761475527284182000,10.49318212890625,-0.09573591770231724,0.03536934647969901,0.01656290266830474
1761475527294158800,10.503158935546875,-0.11636135710179805,0.034187662414461376,0.04577197295259684
1761475527304136000,10.513135986328125,-0.15291267990767954,0.03510894197784364,0.05401606968473643
1761475527314113000,10.523113037109376,-0.14505261405706404,0.03426701126098632,0.013288520640134811
1761475527324090000,10.533090087890624,-0.11321955194473265,0.04412570358291268,-0.006861410202085971
1761475527334067000,10.54306689453125,-0.03241992208957672,0.020599208979681132,-0.011574117937684059
1761475527344044000,10.5530439453125,0.01676934849321842,-0.012044877254590391,-0.002434058746509254
1761475527354021000,10.563021240234375,0.0449473952293396,-0.006688537853211164,-0.02616886233817786
1761475527363998000,10.572998046875,0.010353051710128784,0.039703357096016405,-0.04915880237929523
1761475527373975000,10.58297509765625,-0.030964462584257123,0.08017952519543468,-0.055590150601044296
1761475527383952000,10.592951904296875,-0.018913374784588814,0.060329673278331754,-0.01396042855232954
1761475527393929000,10.602928955078125,0.005095277312397957,0.03778415253646671,0.04733425383325666
1761475527403907000,10.612906982421874,0.033815760362148284,0.03489230355247855,0.0539065083630383
1761475527413884000,10.6228837890625,0.021844167539477346,0.05086692147143185,0.040530090243741865
1761475527423861000,10.632861083984375,0.004698971471190453,0.08346212706267833,0.036187384864315386
1761475527433837800,10.642837890625,0.02924187657535076,0.09893274098224937,0.0029094211732968688
1761475527443815000,10.65281494140625,0.037732057023048396,0.07954729170650243,0.04866115505546331
1761475527453791700,10.662791748046875,0.06462240203619003,0.05569200354032218,0.09571560556665062
1761475527463768800,10.672768798828125,0.08973930763602256,0.06190459444485604,0.10098751808758824
1761475527473746200,10.68274609375,0.10053542693853378,0.056777387624233955,0.08468019761554896
1761475527483723000,10.692722900390624,0.10733750816881656,0.038747590741142625,0.09093494716137647
1761475527493700000,10.7027001953125,0.16282207950353622,0.03798917358927428,0.0986108886167407
1761475527503677000,10.712677001953125,0.0765706139832735,0.07220671968534588,0.04951178053542971
1761475527513654000,10.722654052734375,-0.05772679730355739,0.0007006225500255823,0.0280776185689494
1761475527523630800,10.732630859375,-0.12877601751685142,-0.007275982352346181,0.023464096891507503
1761475527533608000,10.74260791015625,-0.0841828425526619,0.01869637103304267,-0.05779873002860695
1761475527543585000,10.7525849609375,-0.003774257841706276,0.04438793471567332,-0.04502356573808938
1761475527553561900,10.762561767578125,0.07144786414206028,0.0994669209241867,-0.03176675541047007
1761475527563539000,10.7725390625,0.15048223789036272,0.05134900589995086,-0.008602737444080412
1761475527573515800,10.782515869140624,0.0420236167371273,0.016274550713598727,0.030064627667702733
1761475527583493000,10.7924931640625,-0.0599181698679924,0.07707461798265576,0.11165292368251829
1761475527593470000,10.802469970703125,-0.1399175892561674,0.08677110548019408,0.1852180722394958
1761475527603447000,10.812447021484376,-0.2523603116095066,0.14974128332994877,0.2518615683071315
1761475527613424000,10.822424072265624,-0.20654080972075461,0.16251863957755266,0.17341431026440113
1761475527623401000,10.83240087890625,0.07858662998080253,0.06559380435161292,-0.033264300491847094
1761475527633378000,10.8423779296875,0.1475339094787836,0.11219232778884469,-0.10193952158279716
1761475527643355000,10.85235498046875,0.12231412802636622,0.14559008193463086,-0.12989219859782605
