time,seconds_elapsed,z,y,x
1761476453914791000,0.086791015625,0.13707447478473186,0.020947437895461916,0.06144819244686514
1761476453924824000,0.096823974609375,0.12263619958758354,0.04896108785010874,0.057671048528328536
1761476453934857700,0.106857666015625,0.09834639246165752,0.07113993070404977,0.100446086420957
1761476453944891000,0.116890869140625,0.06552665739953517,0.042954321715980764,0.12810454799607396
1761476453954923800,0.126923828125,-0.030220950740575788,-0.0020854279719293117,0.08759139062082394
1761476453964958000,0.1369580078125,-0.14465163204073905,-0.017065408830344676,-0.019557371776551008
1761476453974990800,0.146990966796875,-0.16308511435389517,-0.028139906682819127,-0.13022471848782152
1761476453985024000,0.15702392578125,-0.09243395354747772,0.0049558323090896006,-0.1755500801840797
1761476453995057000,0.167056884765625,-0.03993687359094619,0.03716638596430421,-0.17220115334866568
1761476454005091000,0.177091064453125,-0.06218436123430728,0.07105795150902122,-0.10474036781508475
1761476454015124000,0.1871240234375,-0.05402502017617225,0.05757880366761237,-0.026982060150895267
1761476454025156900,0.197156982421875,-0.03136836721003056,0.016544928620196877,0.02320489796604961
1761476454035189800,0.207189697265625,0.03376841408908367,0.006968377707898616,0.037081593757681545
1761476454045224000,0.217223876953125,0.06730009681284427,0.028397315509989855,0.039319490611273794
1761476454055256800,0.2272568359375,0.06727963854670524,0.05932893527057022,0.03963233768641949
1761476454065290000,0.2372900390625,0.1052484269350767,0.0946110053256154,0.03392528515122831
1761476454075323000,0.247322998046875,0.17614508693516254,0.09618165217582136,0.032922026392817494
1761476454085357000,0.257357177734375,0.19587270071208476,0.08226783924419433,0.0035556831875815987
1761476454095390000,0.267389892578125,0.1629313850969076,0.07347498605549335,-0.012851645326521248
1761476454105422800,0.2774228515625,0.14405541971325875,0.06457659013308584,-0.029273915681429206
1761476454115456800,0.287456787109375,0.05815992802381515,0.07493387962691485,-0.05933900000685825
1761476454125490000,0.297489990234375,0.03275134600102901,0.06996493210792541,-0.07151137609863653
1761476454135522800,0.307522705078125,0.05559212336242199,0.061458713840879496,-0.02621248228419572
1761476454145556000,0.317555908203125,0.04464753549993038,0.05156878613047301,0.031930439805891365
1761476454155590000,0.32758984375,0.00163432320356369,0.04203486878350377,0.06108683005487546
1761476454165623000,0.337623046875,-0.04773965629637241,0.009664667587168514,0.04385159934926778
1761476454175656000,0.347656005859375,-0.03162029614448547,-0.035039639601297676,0.03327363457577303
1761476454185689000,0.357689208984375,-0.027031214788556097,-0.06276859086304902,0.01913425099365413
1761476454195722800,0.36772265625,-0.05534487060308456,-0.04617313763201236,0.00684175565354526
1761476454205756000,0.377755859375,-0.06792144358158111,-0.013429025089368224,0.011867109534889458
1761476454215788800,0.387788818359375,-0.08496142570972443,0.006049399699456989,0.021582831455860287
1761476454225823000,0.397822998046875,-0.018891747474670408,0.021712942375242707,0.007375807731319219
1761476454235856000,0.40785595703125,0.09646189388930797,0.018879509047605096,-0.015906813379749654
1761476454245889000,0.417888916015625,0.11541092450916766,0.015945209161378444,-0.020443744423333556
1761476454255922000,0.427921875,0.11870938153266906,-0.00828691296055913,-0.02480572075881064
1761476454265955800,0.437955810546875,0.10725918223559856,-0.03135682290270925,0.02214488578541204
1761476454275988700,0.44798876953125,0.03155716778039932,-0.03916146877165884,0.0476089243224822
1761476454286022000,0.45802197265625,-0.046239188605546946,-0.017804682890325784,0.04723979874914512
1761476454296056000,0.46805615234375,-0.0710153179436922,0.003236936094611883,0.020352559008542447
1761476454306089000,0.4780888671875,-0.06352642349302769,0.0006099851245060562,-0.013971278739906846
1761476454316121900,0.488121826171875,-0.0489250666886568,-0.01469363819770515,-0.04351593765411526
1761476454326155000,0.498155029296875,0.05162789590656757,-0.04287650723941624,-0.0447698832379654
1761476454336189000,0.50818896484375,0.13528349971473216,-0.07736644053608178,-0.04899109939588234
1761476454346221800,0.518221923828125,0.12371055082082748,-0.07963924430627375,-0.0462446136993356
1761476454356254700,0.528254638671875,0.09484335277676582,-0.07680624937005341,-0.010344430012255906
1761476454366289000,0.538288818359375,0.10122633181214331,-0.07877853582371026,0.0434132992635481
1761476454376322000,0.548322021484375,0.0454699577987194,-0.08200447560027241,0.09541143498830497
1761476454386355000,0.55835498046875,0.008725158247351646,-0.08575900582820177,0.12438187421113252
1761476454396387800,0.568387939453125,0.0027028292179107666,-0.07453508956767618,0.16385757829742506
1761476454406422000,0.578422119140625,0.030841712987422942,-0.07774846212361007,0.21701843765862286
1761476454416455000,0.588454833984375,0.06034428632557392,-0.08695004224367439,0.2244546703402884
1761476454426487800,0.59848779296875,0.09969897611439227,-0.10595325073618442,0.20251604771669954
1761476454436522000,0.60852197265625,0.0945563525289297,-0.11712141822148114,0.16421393572073428
1761476454446555000,0.618554931640625,0.12048866616487502,-0.09448014548756181,0.13836486165514214
1761476454456588000,0.628588134765625,0.06960662018954754,-0.05302289392892271,0.15666797732058912
1761476454466621000,0.638620849609375,-0.024736966371536252,-0.035427689070813354,0.1848176747450605
1761476454476655000,0.648655029296875,-0.09276654650270938,-0.03558898057974875,0.14739106694199144
1761476454486688000,0.65868798828125,-0.08832651822865009,-0.03270502264127135,0.07793240385577083
1761476454496721200,0.66872119140625,-0.03425473630130291,0.02459679071586579,-0.019642054385319352
1761476454506754800,0.6787548828125,0.0654424862474203,0.05599463974870741,-0.11592338580964133
1761476454516788000,0.6887880859375,0.17573124543726443,0.05285184821095317,-0.14773337757363914
1761476454526820900,0.69882080078125,0.20672142698466778,0.033074732736498115,-0.11823681385116651
1761476454536854000,0.70885400390625,0.1765565903455019,-0.01722523903455585,-0.05255268260128796
1761476454546888000,0.718887939453125,0.14940204143822192,-0.03541417200211435,0.032196579928789285
1761476454556921000,0.728921142578125,0.09087211105823516,-0.04515230668429285,0.09292040362386032
1761476454566954000,0.7389541015625,0.014353519523143768,-0.04065112280752509,0.08775830815294756
1761476454576988000,0.74898779296875,-0.016496376770734785,-0.038617899946868414,0.07041395451705902
1761476454587020800,0.759020751953125,-0.046692777591943735,-0.020266141100414095,0.06817572886990383
1761476454597054000,0.769053955078125,-0.028325346252322196,-0.011533676329441368,0.08731770651228725
1761476454607087900,0.779087890625,0.01748304972052574,-0.030558731327578425,0.0855226215227507
1761476454617121000,0.78912109375,0.0384422511190176,-0.04306125268917531,0.0630239355972968
1761476454627149600,0.799149658203125,0.029714754784107206,-0.0819111712936312,0.026341241496708242
1761476454637182500,0.809182373046875,0.045349546289443966,-0.11504852093756199,0.029210659453179685
1761476454647216600,0.819216552734375,0.06051321315169334,-0.12788118756897746,0.0164117489608936
1761476454657249500,0.82924951171875,0.020608488264679908,-0.11657598623316734,0.028437811917159706
1761476454667282700,0.83928271484375,-0.010620178213715553,-0.08423073681499808,0.04313594362689182
1761476454677316600,0.849316650390625,-0.004141922110319138,-0.045391266539320345,0.06288942249743268
1761476454687349500,0.859349609375,0.030329087290167808,-0.004790595277398824,0.044128754056524486
1761476454697382400,0.86938232421875,0.10598609355986117,0.004040105703659355,0.019153375819232314
1761476454707416600,0.87941650390625,0.13182429917156696,-0.007748385637067258,-0.030045466309506445
1761476454717449700,0.88944970703125,0.11169336529076099,-0.02477379125058651,-0.05043395514795557
1761476454727482600,0.899482666015625,0.106499303779006,-0.045369529631547625,-0.0069003357066772875
1761476454737516500,0.9095166015625,0.08483926063477992,-0.02935724658332765,0.010878938747756183
1761476454747549400,0.919549560546875,0.06723170775175094,0.012715725720860063,0.01775815860116854
1761476454757582600,0.92958251953125,0.04832300914227962,0.03404047249611467,0.012214333803672343
1761476454767615500,0.939615478515625,0.03587736906707287,0.025090565582178533,-0.002621726805716753
1761476454777649700,0.949649658203125,0.0038251112461090086,0.01938464555814862,-0.0002062996944412589
1761476454787682600,0.9596826171875,-0.02916647325158119,0.05580061501394957,0.019302903825137763
1761476454797715700,0.9697158203125,-0.01219663375020027,0.057753539180010555,0.006164513979107141
1761476454807749600,0.97974951171875,-0.05973229190707206,0.062217313655838366,-0.031625776037201285
1761476454817782500,0.989782470703125,-0.0946744259506464,0.06625698096808046,-0.05458691010894254
1761476454827815400,0.9998154296875,-0.05324526797533035,0.053929085521027445,-0.05545052293464541
1761476454837849600,1.009849609375,-0.034030864417552945,0.06776493784561753,-0.052746086281538006
1761476454847882500,1.019882568359375,-0.0008610007435083389,0.08557488143295049,-0.051333278607856477
1761476454857915600,1.02991552734375,0.029909400573372838,0.09944354004859923,-0.06510147252371534
1761476454867949600,1.039949462890625,0.006617372313141822,0.09791063139289617,-0.04825880306595936
1761476454877982700,1.049982666015625,-0.029275194323062893,0.10277326899319887,-0.00484497407944873
1761476454888015600,1.060015625,0.011897943064570426,0.1399518933845684,0.037992552856449036
1761476454898049500,1.070049560546875,0.046969256445765495,0.16969518014341592,0.03495446380218491
1761476454908082400,1.08008251953125,0.048830958664417265,0.1604118400240317,-0.00907967077344656
1761476454918115600,1.090115478515625,0.027923195192217826,0.13083134261146187,-0.043251843357831235
1761476454928149500,1.1001494140625,0.07866086426079273,0.11148801544439046,-0.053759501107782125
1761476454938182700,1.1101826171875,0.06936229003965855,0.072494414052926,-0.06966501757958904
1761476454948215600,1.120215576171875,0.0733463912397623,0.08207691978197544,-0.0718074729683809
1761476454958249500,1.13024951171875,0.0647369683265686,0.13324874248411506,-0.05078057662853971
1761476454968282400,1.140282470703125,0.00926525647342205,0.16308825615905223,-0.004348806326650083
1761476454978315500,1.1503154296875,-0.03156768917441368,0.17354451251532882,0.0540871073606424
1761476454988349400,1.160349365234375,-0.024508418312668798,0.1552840121489018,0.05192740857610479
1761476454998382600,1.170382568359375,-0.06352525444924831,0.22200320380125194,0.02407360709197819
1761476455008415500,1.18041552734375,-0.09488076217770576,0.2583308739190921,0.0276762894927524
1761476455018449700,1.19044970703125,0.017193711385130882,0.2178796210652217,0.024237656813580543
1761476455028482600,1.200482666015625,0.10597498764395713,0.22137743658572434,-0.025030834751576185
1761476455038515500,1.210515380859375,0.08474047643542289,0.22746592618655412,-0.0734179586386308
1761476455048549600,1.220549560546875,0.07450023745000361,0.2026515837298706,-0.09454413236817344
1761476455058582500,1.23058251953125,0.07181085223555564,0.17709862480033187,-0.08964121755640954
1761476455068615400,1.240615478515625,0.03466273258030415,0.1861241177011281,-0.07605413409480824
1761476455078649600,1.250649658203125,0.0492956535667181,0.19276329998727887,-0.077511730758287
1761476455088682800,1.260682861328125,0.005582768568396568,0.17462079997733235,-0.09232252906225621
1761476455098715600,1.270715576171875,-0.027182605957984923,0.15108634126335382,-0.10708691267492249
1761476455108749600,1.28074951171875,0.003995791637897491,0.1392822139620781,-0.08286794229550287
1761476455118782500,1.290782470703125,0.06965688907206058,0.13509049789328129,-0.05610005461825057
1761476455128815600,1.300815673828125,0.10781097089946269,0.12839702813662587,-0.02673911824049428
1761476455138849500,1.310849609375,0.09579963058829306,0.09759783911667763,-0.012936821125634013
1761476455148882700,1.320882568359375,0.06262333717346191,0.07671327385697513,0.025231197895575312
1761476455158915600,1.33091552734375,0.03924655323922634,0.06494195284675806,0.04410179298436269
1761476455168949500,1.340949462890625,-0.016302900025248528,0.0393320030329749,0.03895944339353591
1761476455178982400,1.350982421875,-0.004439443752169609,0.03577536999732256,0.024673454414959994
1761476455189015600,1.361015625,0.0512345126748085,0.04968929252680391,-0.004976765499264002
1761476455199049500,1.371049560546875,0.0204781398832798,0.03413578609675169,-0.011988690087944268
1761476455209082600,1.38108251953125,0.034628245788812635,-0.0032646643517538904,0.004700578906387091
1761476455219115500,1.391115478515625,0.057571899002790444,-0.024388481727428732,0.00465034655649215
1761476455229149700,1.401149658203125,0.0803133076429367,-0.04135415651034564,-0.008685995280742645
1761476455239182600,1.4111826171875,0.07126432426869869,-0.039664230662025506,-0.013260975046083331
1761476455249215500,1.421215576171875,0.014116203635931013,0.009136004070565104,-0.017325630669109523
1761476455259249400,1.43124951171875,-0.06534954726696014,0.05102868790440261,-0.0022897914376109837
1761476455269282600,1.441282470703125,-0.07739946602284908,0.06464439467228948,0.04108169624451548
1761476455279315500,1.4513154296875,-0.011048048236966132,0.07271697076242417,0.05866488187126815
1761476455289349600,1.461349609375,0.0483586649775505,0.04691434792075306,0.0038365459555760022
1761476455299382500,1.471382568359375,0.1028261682242155,0.046526298451237375,-0.03285550049524754
1761476455309415700,1.481415771484375,0.14778466936945914,0.06744359693676233,-0.03779916744250804
1761476455319449600,1.49144970703125,0.16482991219460963,0.09653916037660092,-0.032673641122318804
1761476455329482500,1.501482421875,0.17374854718744753,0.10308346745353192,-0.011276011773943901
1761476455339515400,1.511515380859375,0.1349509067595005,0.12055500939935446,0.02339782672226429
1761476455349549600,1.521549560546875,0.14034078310430048,0.12934453811980784,0.029342158612050116
1761476455359582700,1.531582763671875,0.11449673227369785,0.0969123045379296,0.04088372598700225
1761476455369615600,1.54161572265625,0.02682546308338642,0.09482132360804825,0.07497622093129902
1761476455379649500,1.5516494140625,-0.035901918986439706,0.08145414824113249,0.08780505163781345
1761476455389682400,1.561682373046875,-0.047615737655758855,0.06604246143456548,0.07224416561890393
1761476455399715600,1.571715576171875,-0.06693126350045203,0.05337134204041213,0.02507387017570436
1761476455409749500,1.58174951171875,-0.037571313503384586,0.05454067808073014,-0.009703684423305093
1761476455419782700,1.59178271484375,-0.04530278453826904,0.055707018446363506,0.010844598086737095
1761476455429815600,1.601815673828125,-0.04198912994563579,0.06529946104753762,0.02888860615827143
1761476455439849700,1.611849609375,-0.01491933671236038,0.08526274674385785,0.03979951094686985
1761476455449882600,1.621882568359375,-0.01454115104973316,0.0724640189146623,0.04297759299371391
1761476455459915500,1.63191552734375,-0.025277064597606657,0.04506510332487523,0.04375833157524466
1761476455469949400,1.641949462890625,-0.07703647792935371,0.004996748841367662,0.03106704617589712
1761476455479982600,1.651982666015625,-0.020853987458348273,0.0011148659067228435,-0.009033931935578584
1761476455490015500,1.662015380859375,0.06428630194962025,-0.0016991320680826902,-0.038013394715078176
1761476455500049700,1.672049560546875,0.10889350543916225,-0.005595006995461881,-0.04442315215952694
1761476455510082600,1.68208251953125,0.11891104158461094,-0.015466230005398391,-0.028076924449205398
1761476455520115700,1.69211572265625,0.09835925194323063,-0.02119253523033112,0.029972236676514146
1761476455530149400,1.7021494140625,0.10712941837608814,-0.01884279376640916,0.09092917500771582
1761476455540182500,1.7121826171875,0.0936374841183424,-0.02784969156458974,0.11425112348217517
1761476455550215400,1.72221533203125,0.05788403369188309,-0.040430502326786515,0.12289696941561996
1761476455560249600,1.73224951171875,0.05898936458528042,-0.057059675164334474,0.1339625898418948
1761476455570282500,1.742282470703125,0.07237783846855163,-0.08087032047118992,0.12847440422177314
1761476455580315600,1.752315673828125,0.07618015336096286,-0.08435735886935145,0.10050053828824311
1761476455590349300,1.762349365234375,0.05362286911606788,-0.06763550277967005,0.09987988563925028
1761476455600382500,1.772382568359375,0.0612730916082859,-0.04761109801325947,0.07945139358397572
1761476455610415400,1.782415283203125,0.04915010761618614,-0.029318485475517807,0.06929751770775765
1761476455620449500,1.792449462890625,0.020696166548132895,-0.02341397413946688,0.07501998700778931
1761476455630484000,1.80248388671875,0.0016635492980480193,-0.04829714404866099,0.05354885403178632
1761476455640516900,1.812516845703125,-0.042374914392828936,-0.052721901688352224,0.021785350024327636
1761476455650550800,1.82255078125,-0.08388298282325267,-0.01816778058167547,-0.004411277103610336
1761476455660583700,1.832583740234375,-0.07821078240573406,0.022219028733856973,-0.003444404832832515
1761476455670616800,1.842616943359375,-0.04136836769878864,0.04587115901075303,0.0036643311938270922
1761476455680650800,1.852650634765625,-0.02065758810341358,0.03325220819525421,-0.0166888671355322
1761476455690684000,1.862683837890625,0.06140577807724475,0.011973602116666733,-0.021864333544671533
1761476455700716800,1.872716796875,0.12819441823661326,0.014971432225778698,-0.028798662852495906
1761476455710750700,1.882750732421875,0.1649053155183792,0.00797368229292333,-0.02713938787076622
1761476455720783600,1.89278369140625,0.1932254010736942,0.01841919805947691,-0.006247114228643476
1761476455730816800,1.902816650390625,0.17635785290300846,0.018732319129258393,0.01909333446137607
1761476455740850700,1.9128505859375,0.1323889473170042,-0.0010483765417709946,0.0596582768227905
1761476455750883800,1.9228837890625,0.11863923890590668,-0.031340090963616965,0.10024809789713472
1761476455760916700,1.932916748046875,0.126113520309329,-0.06104268038589507,0.12904570130370557
1761476455770951000,1.942950927734375,0.11095979031920432,-0.08207045350857078,0.14878659468730912
1761476455780983800,1.95298388671875,0.06403671110272408,-0.10698358016461133,0.1663413031382486
1761476455791016700,1.9630166015625,0.08469663729369639,-0.1506163856640458,0.17229537097075953
1761476455801051000,1.97305078125,0.1501046367496252,-0.13458455766513944,0.19205957216471434
1761476455811083800,1.983083740234375,0.05775485435426235,-0.11564856918994337,0.11871590260500088
1761476455821118000,1.993117919921875,-0.011470657563209533,-0.1214680325910449,0.0813404039346613
1761476455831150800,2.00315087890625,-0.048430561169981956,-0.18487831889111547,0.09335930649777874
1761476455841184000,2.01318408203125,-0.026709143227338788,-0.21346637120023368,0.07697937744725496
1761476455851217700,2.0232177734375,-0.0837771843612194,-0.1769441283583641,0.14846311662029474
1761476455861250800,2.033250732421875,-0.11625146698653697,-0.12838007700182497,0.0779032142939046
1761476455871283700,2.04328369140625,-0.09558686462044716,-0.12703501906841994,0.07213871421674266
1761476455881318000,2.05331787109375,-0.11997720951139926,-0.14950415010582654,0.06390440822625533
1761476455891350800,2.063350830078125,-0.14827566775679588,-0.17720029507651924,0.07939743490703403
1761476455901384000,2.073384033203125,-0.13363339442014693,-0.15777133545260877,0.07150744884219021
1761476455911417600,2.08341748046875,-0.14695406376421452,-0.12236099937539546,0.02221866340767592
1761476455921450800,2.09345068359375,-0.14763795437514782,-0.12109759184345602,0.0019245748544111847
1761476455931483600,2.103483642578125,-0.0952624549716711,-0.13545965999923645,-0.009856865691021083
1761476455941517800,2.113517822265625,-0.04131400716304779,-0.11386325667575001,-0.017206095942668614
1761476455951550700,2.12355078125,0.038998715957999225,-0.09246230285912752,-0.016390980167500672
1761476455961583900,2.133583984375,0.10044014987051486,-0.09312617359533905,0.007316807553078979
1761476455971617800,2.14361767578125,0.1214525427609682,-0.08584858380779624,0.025722890402656046
1761476455981651000,2.15365087890625,0.1425754102885723,-0.11662037336416542,0.06409291653567925
1761476455991683800,2.163683837890625,0.09764262810647487,-0.14744940953310579,0.12747236930606887
1761476456001717800,2.1737177734375,0.02448445291519165,-0.14601196060851215,0.1841524705682881
1761476456011750700,2.183750732421875,-0.012557283756136893,-0.13286401748284696,0.18396405359040946
1761476456021783800,2.19378369140625,-0.02120703867971897,-0.13441332928407937,0.14453576884241773
1761476456031818000,2.20381787109375,-0.0027379005312919615,-0.13538812913298606,0.0939234431865625
1761476456041851000,2.213850830078125,0.009660977792739868,-0.11676533479280769,0.04646139825517311
1761476456051883800,2.2238837890625,-0.014558102184534072,-0.09286211583167314,0.029494609227403996
1761476456061917700,2.233917724609375,-0.00009293898046016692,-0.09338672422766685,0.043261140909139066
1761476456071950800,2.243950927734375,0.05783201124370098,-0.09255352480653672,0.05213661261368543
1761476456081983700,2.253983642578125,0.0644365240752697,-0.07240348436646163,0.0604403488448821
1761476456092018000,2.264017822265625,-0.0306213482350111,-0.057629584006778894,0.05536622391836717
1761476456102050800,2.27405078125,-0.026965163815021512,-0.029125739382393656,0.07246685019256546
1761476456112084000,2.284083984375,0.02982347585558891,-0.010506488706171511,0.053476446382701395
1761476456122117600,2.29411767578125,0.03887888897061348,0.006085311263054609,0.032713425143435594
1761476456132150800,2.30415087890625,0.036654783180356025,-0.004295541769452392,-0.0034603695869445798
1761476456142183700,2.31418359375,0.017930208966135976,0.013357530755735933,-0.004471702053956687
1761476456152217900,2.3242177734375,0.04663023374974727,0.017783238243497906,-0.025340850548818707
1761476456162250800,2.334250732421875,0.04389759391546249,0.041415092917345464,-0.03775591282267123
1761476456172284000,2.344283935546875,0.013010872742533684,0.05661759395264089,-0.032774799941852686
1761476456182317800,2.35431787109375,-0.003971826240420341,0.046694713820703324,-0.05983465630300343
1761476456192351000,2.36435107421875,-0.05482990681827068,0.04389529236052185,-0.07077259522899985
1761476456202384000,2.3743837890625,-0.10957388891875743,0.01961955029256642,-0.09089406716171651
1761476456212417800,2.384417724609375,-0.0884089358150959,0.03954579191412776,-0.12466741315424441
1761476456222450700,2.39445068359375,-0.09532616785764694,0.014910459286160766,-0.1319677262302488
1761476456232483800,2.40448388671875,-0.07498655966222285,-0.021852606574259695,-0.13644574842713772
1761476456242517800,2.414517822265625,-0.02834989617168903,-0.021576200785674154,-0.13543258932922034
1761476456252551000,2.424551025390625,-0.01865209349989891,-0.08601188461072742,-0.1469169100916013
1761476456262583800,2.434583740234375,-0.008184475499391556,-0.13188896190561353,-0.17023926042485982
1761476456272617700,2.44461767578125,-0.05675882905423641,-0.1284308208083734,-0.16022994411848485
1761476456282650600,2.454650634765625,-0.060040334942936896,-0.12454554034024476,-0.13306312025152145
1761476456292683800,2.464683837890625,0.009577975684404372,-0.12901863063368946,-0.13833422905486076
1761476456302717700,2.4747177734375,0.10096388148367404,-0.12231094968859106,-0.16637794535420833
1761476456312750800,2.484750732421875,0.15307517699301243,-0.12637882018201052,-0.18017547496240585
1761476456322783700,2.49478369140625,0.1786293049663305,-0.15685524352099744,-0.17472630617842078
1761476456332818000,2.50481787109375,0.17718612042069434,-0.17113211761135608,-0.14755440427754074
1761476456342850600,2.5148505859375,0.16387538794875145,-0.14941559503953902,-0.10932882811650634
1761476456352883700,2.5248837890625,0.1407803435653448,-0.12981822004616259,-0.06633044806309044
1761476456362918000,2.53491796875,0.0810889681905508,-0.13534882003590465,-0.030125344878993928
1761476456372950800,2.54495068359375,0.014231938970088958,-0.14314615938123315,-0.005984992693737149
1761476456382983700,2.554983642578125,-0.013241758888959884,-0.11613923878371715,0.04454586522374302
1761476456393017900,2.565017822265625,-0.014151859471201896,-0.06714947282839566,0.08538407156858593
1761476456403051000,2.575051025390625,-0.02561199564039707,-0.03997731519918889,0.10266045626848935
1761476456413084000,2.585083984375,-0.053069326886534686,-0.03689904026500881,0.1108158152712509
1761476456423117800,2.595117919921875,-0.03834755857288837,-0.04242050710022449,0.11416172816567122
1761476456433150700,2.605150634765625,-0.029945640930533406,-0.02584901926666498,0.10607921520341188
1761476456443185000,2.615184814453125,-0.0798643948316574,-0.03442961794417351,0.10460939837917685
1761476456453217800,2.6252177734375,-0.11488719289600849,-0.050364378776773806,0.09051299542225896
1761476456463251000,2.6352509765625,-0.05059913738071918,0.00022511399276554583,0.018406850034557283
1761476456473284600,2.64528466796875,-0.10965046128630637,0.07324621880091726,-0.021255882790125906
1761476456483317800,2.65531787109375,-0.1921592331469059,0.09075381844080985,0.013918525639362632
1761476456493350700,2.6653505859375,-0.26376784080862997,0.09052245737034827,0.1170996447810903
1761476456503384800,2.675384765625,-0.29037293913960455,0.10127868305388837,0.16518299994859845
1761476456513417700,2.685417724609375,-0.249584417155385,0.13965459093842655,0.12530172900240868
1761476456523451000,2.695450927734375,-0.21289514718353747,0.18749054721612482,0.09070460900422185
1761476456533484800,2.70548486328125,-0.2099701996475458,0.1777838671181351,0.07080145599730313
1761476456543518000,2.71551806640625,-0.18922727134823797,0.15574066987521945,0.05466492551490664
1761476456553550800,2.72555078125,-0.13510522053837776,0.15539488864485174,0.016331578130461273
1761476456563584800,2.735584716796875,-0.0869400323063135,0.17439619744122029,-0.022306780082546173
1761476456573617700,2.74561767578125,-0.044538229906558986,0.18233360284436492,-0.070677683487162
1761476456583650800,2.75565087890625,0.028200258567929265,0.186963472868409,-0.10127422607447951
1761476456593685000,2.76568505859375,0.07078793892860412,0.1771481630304828,-0.097568503424339
1761476456603718000,2.7757177734375,0.07790741554498672,0.1705693326294422,-0.055405405151285225
1761476456613750800,2.785750732421875,0.04614741866886615,0.17308306901603937,0.010276990799233316
1761476456623784700,2.79578466796875,-0.020477555361390114,0.18691676591616121,0.08354717499762773
1761476456633821700,2.80582177734375,0.012680617874860764,0.181988789728377,0.08572334999293088
1761476456643854800,2.815854736328125,0.10625672719478607,0.19216365359369664,0.06228595844525844
1761476456653888800,2.825888671875,0.10206044454872608,0.20443253059620037,0.05415686639491468
1761476456663922000,2.835921875,0.10049567945003508,0.17889880609009415,0.045959604479186233
1761476456673954800,2.845954833984375,0.17281038955450057,0.12025418155556544,0.03834222481064498
1761476456683988700,2.85598876953125,0.2245142733067274,0.11080284619182347,0.05734141471516341
1761476456694021600,2.866021728515625,0.19592823029160497,0.1217391594163142,0.10619232018906623
1761476456704054800,2.8760546875,0.13659282874763012,0.11210653093522414,0.14651961786970497
1761476456714089000,2.8860888671875,0.11493804630041121,0.12994754551425575,0.14412307812198996
1761476456724121900,2.896121826171875,0.19246143096387386,0.14304523802371694,0.10847155370004474
1761476456734154800,2.90615478515625,0.24743337660133838,0.16174182825246824,0.10321549633536488
1761476456744188700,2.916188720703125,0.1825251433610916,0.1338333557053469,0.12895714623741805
1761476456754221800,2.926221923828125,0.15977321332693098,0.07262728318497538,0.17267722816150635
1761476456764254700,2.936254638671875,0.19313304661512373,0.031746680736821145,0.17333474222216755
1761476456774289000,2.946288818359375,0.228914554092288,0.04137470610802993,0.14534936851393432
1761476456784321800,2.95632177734375,0.19177812487483023,0.08833272877372801,0.08613733762130141
1761476456794355000,2.96635498046875,0.08137479939460754,0.11981542481211944,0.03993259927462786
1761476456804388900,2.976388916015625,0.007368482941389084,0.1390673839013092,0.037647228283807635
1761476456814422000,2.986422119140625,0.01201367839872837,0.09994960814090445,0.09098364514131098
1761476456824455000,2.996454833984375,0.022752514556050298,0.07683713769866153,0.11421802493017166
1761476456834488800,3.00648876953125,-0.00694295100569725,0.10383817654466256,0.10094229070637374
1761476456844521700,3.016521728515625,-0.002267360410094261,0.1320716615287587,0.06971990783829242
1761476456854555000,3.026554931640625,0.002390110006928444,0.16765178294861688,-0.0006720540426671505
1761476456864588800,3.0365888671875,0.015900748965144155,0.1776303753231652,-0.08026311182565987
1761476456874622000,3.0466220703125,0.02048106249272823,0.1620654707162641,-0.1649012238651514
1761476456884654800,3.05665478515625,0.06915244668126105,0.15693269267138094,-0.18484054416399448
1761476456894688800,3.066688720703125,0.09639408935010432,0.12208570783166214,-0.14768475265894085
1761476456904721700,3.0767216796875,0.0730938777834177,0.07365167606296018,-0.08631850287448614
1761476456914754800,3.0867548828125,0.04965396548509597,0.03712821851153858,-0.09028353404793887
1761476456924788700,3.096788818359375,0.09705109195411205,0.022609215361531824,-0.07652220826428383
1761476456934822000,3.10682177734375,0.1102244617819786,0.016849208796396852,-0.09206884656213224
1761476456944854800,3.116854736328125,0.06984393607676029,0.054079289380367844,-0.1137477405373007
1761476456954888700,3.126888671875,-0.0033656770408153533,0.05628383195362985,-0.09565032177809625
1761476456964921600,3.136921630859375,-0.07259644965529441,0.012359651425341144,-0.041274150076694785
1761476456974955800,3.146955810546875,-0.08000935626029967,-0.02441876726783812,-0.0026167949022725223
1761476456984988700,3.15698876953125,-0.03152501907646656,-0.003098450072528794,0.021341880573146045
1761476456995021800,3.167021728515625,-0.014423077628016472,-0.009463208464626222,0.057024457720480856
1761476457005056000,3.177055908203125,0.01959142017662525,-0.02659296950176358,0.09050331427846103
1761476457015089000,3.1870888671875,0.05337970800995826,-0.022855554805416612,0.10756474105343222
1761476457025121800,3.197121826171875,0.05291852023899555,0.013663984622713178,0.15555840864349155
1761476457035155700,3.20715576171875,0.06952069547176361,-0.00528716488899663,0.16778496260792017
1761476457045188900,3.21718896484375,0.09215279851853847,-0.0096662567560561,0.13107972788196057
1761476457055221800,3.2272216796875,0.10742460193037986,0.0036218072263523933,0.08330467147864401
1761476457065256000,3.237255859375,0.1240840603083372,-0.00984033924790565,0.03988116134833544
1761476457075288800,3.247288818359375,0.15473346559405327,0.005973503185342997,0.00678355919290334
1761476457085322000,3.257322021484375,0.1596896266967058,0.000510022748215124,0.006024520986527204
1761476457095355600,3.267355712890625,0.11136077233552932,0.02613417461728677,0.00572988542150706
1761476457105388800,3.277388916015625,0.011644845086336135,0.061748741729441094,0.06005772446915507
1761476457115421700,3.287421630859375,-0.04307458709478378,0.11537784422347322,0.0786269619911909
1761476457125456000,3.297455810546875,0.039218496188521385,0.18244104527421295,0.07204224983863532
1761476457135488800,3.30748876953125,0.07251637015640736,0.2037405114777386,0.07218016047198325
1761476457145522000,3.31752197265625,0.07127543018460274,0.21438918513357638,0.08797021560426802
1761476457155555800,3.327555908203125,0.07579261534810065,0.17854977345671505,0.07532865109816193
1761476457165588700,3.337588623046875,0.13411153332591055,0.13268920890521257,0.021877631417661903
1761476457175621600,3.34762158203125,0.19404373171925543,0.0875496155720204,-0.019970921013504266
1761476457185655800,3.35765576171875,0.13748480915129183,0.07910903728655538,-0.02698985986486077
1761476457195688700,3.367688720703125,0.046108255702257156,0.06431103909865488,-0.03065214523207396
1761476457205721900,3.377721923828125,0.05870061077177524,0.09549091169899329,-0.01174560204707086
1761476457215755800,3.387755859375,-0.006641922232508659,0.14418654441279358,-0.015532317511551081
1761476457225789000,3.397788818359375,-0.1071001922816038,0.1767770098968409,-0.025326456697285175
1761476457235821800,3.40782177734375,-0.14943477466404437,0.18400672368835658,-0.02577211810555309
1761476457245855700,3.417855712890625,-0.12734452340900898,0.20934618599768726,0.011525383425131439
1761476457255888600,3.427888671875,-0.03556523437798023,0.21210775966551154,0.045557855277881025
1761476457265921800,3.437921875,-0.002712181568145752,0.185345333614666,0.0430882502939552
1761476457275956000,3.4479560546875,0.04642915821969509,0.15537364492742345,0.04323302905950695
1761476457285988900,3.45798876953125,0.06466799474358559,0.06260221675361972,-0.01435907248109579
1761476457296021800,3.468021728515625,0.05484861151874065,0.025006138701736926,-0.06355765888150781
1761476457306055700,3.4780556640625,0.08421966743171215,0.023144491282012312,-0.0831128752335906
1761476457316088800,3.4880888671875,0.11586743610501289,0.0428244391254615,-0.061017728607729076
1761476457326121700,3.498121826171875,0.09758183782994746,0.06423697378202341,-0.029968327686376868
1761476457336156000,3.508156005859375,0.07573708576858043,0.06132457976692821,-0.011503390789031983
1761476457346188800,3.518188720703125,0.11440496233701705,0.042921739187208,0.012662716891989112
1761476457356222000,3.528221923828125,0.15955284857451915,-0.015612027117679826,0.033817915786616505
1761476457366255900,3.538255859375,0.11758417689502239,-0.03783622065042146,0.03176372320316732
1761476457376288800,3.548288818359375,0.050687400186061854,-0.04091782005284913,0.05720854558311402
1761476457386321700,3.55832177734375,0.007076806518435477,-0.06081406839494593,0.08141016296893358
1761476457396355800,3.56835595703125,0.006264321091771125,-0.032301510741142556,0.09197791687566786
1761476457406388700,3.578388671875,0.011599836900830269,-0.005392917685257271,0.0967233213044703
1761476457416422000,3.588421875,0.0007698153287172317,0.00569873223141767,0.08800305842794477
1761476457426455800,3.598455810546875,-0.0005050269126892089,-0.016162222046079113,0.0840695183712989
1761476457436489000,3.608489013671875,-0.017237550526857374,-0.042720028902916235,0.07412453600540757
1761476457446521900,3.61852197265625,-0.03442833930253982,-0.07577688805600628,0.05119502091463655
1761476457456555800,3.6285556640625,-0.030044425129890442,-0.049458890437567606,0.03131857325155288
1761476457466588700,3.638588623046875,-0.044484453892707825,-0.032679824267933144,0.02123315950166434
1761476457476621800,3.648621826171875,0.04306698831021785,-0.04218663441226817,0.060823302014172076
1761476457486655700,3.65865576171875,0.07832301060855389,-0.060796514471946284,0.11870890660863369
1761476457496689000,3.66868896484375,0.08411679157912731,-0.14173678577365353,0.10051379962861537
1761476457506721800,3.6787216796875,0.09107844728529453,-0.16938963959189132,0.04602850499693304
1761476457516755700,3.688755615234375,0.13406477157473565,-0.15573438626490532,0.05182710827309638
1761476457526788600,3.69878857421875,0.11474223146736622,-0.17968414778150618,0.07566679701134563
1761476457536821800,3.70882177734375,0.04240881666243076,-0.1682949579566717,0.09749211371988058
1761476457546855700,3.718855712890625,0.09615677346289157,-0.1727096143274568,0.06014847149252891
1761476457556888800,3.728888916015625,0.15320552537441254,-0.14636595254479906,0.022194332684017718
1761476457566921700,3.738921630859375,0.10033552045226096,-0.10433155868533067,0.031460648603364824
1761476457576956000,3.748955810546875,0.13619009316563604,-0.2442055553949438,0.005338913342542946
1761476457586988800,3.75898876953125,0.15567045418322084,-0.2664987636098638,0.08833364208918064
1761476457597021700,3.769021728515625,0.14104396293759344,-0.25838519792221487,0.12037903177794068
1761476457607056000,3.779055908203125,0.165672208237648,-0.27390882067065686,0.14225439817328006
1761476457617088800,3.7890888671875,0.1892220106512308,-0.31982991977035996,0.11837459662035107
1761476457627117000,3.799116943359375,0.17192659245729444,-0.3158605412153527,0.11050437470190226
1761476457637151000,3.80915087890625,0.14403379240334033,-0.2670016350980848,0.11928170152790844
1761476457647184100,3.81918408203125,0.19130641570985316,-0.2781497644423507,0.11803582965265959
1761476457657218000,3.829218017578125,0.2449053194284439,-0.3003032901919447,0.13777111527938396
1761476457667251200,3.839251220703125,0.22620061895847318,-0.28161961424369364,0.12738628019150347
1761476457677284000,3.8492841796875,0.22200258274674414,-0.2743209086028859,0.13288706956487148
1761476457687317200,3.859317138671875,0.2832709981799125,-0.29214111785590646,0.09971782694533467
1761476457697351000,3.869350830078125,0.3028624183565378,-0.3003907127470709,0.06615626053996383
1761476457707384000,3.879384033203125,0.24825287629067896,-0.30119039349108934,0.04024886214956641
1761476457717418000,3.88941796875,0.2165226900309324,-0.3227659001570195,0.04159417581129819
1761476457727451100,3.899451171875,0.19402035084366798,-0.31706264701411124,0.0859914263445884
1761476457737484000,3.909484130859375,0.17057751593589782,-0.27905398327307773,0.12061843002438545
1761476457747518000,3.91951806640625,0.1358832191735506,-0.2680379193432629,0.13680515632405876
1761476457757550800,3.92955078125,0.12662673052847384,-0.21552520342618225,0.1143073471814394
1761476457767584000,3.939583984375,0.07828034051060676,-0.1343768788643647,0.0814987180352211
1761476457777617000,3.949616943359375,-0.025808394995331763,-0.14261534044016153,0.09220785317402333
1761476457787647000,3.95964697265625,-0.08342997835874558,-0.2059276827910915,0.11306282701306045
1761476457797681200,3.96968115234375,-0.13526187240481377,-0.19005378530025482,0.1265216992514208
1761476457807714000,3.979714111328125,-0.17555413530468938,-0.14879551777928135,0.15395166756659745
1761476457817747200,3.989747314453125,-0.12789455850720405,-0.12108173668719828,0.2040853793926537
1761476457827780900,3.99978076171875,-0.11240648199617861,-0.12284295593975111,0.20325280102603135
1761476457837814000,4.00981396484375,-0.11099778424203395,-0.07340116276745684,0.19172701574210077
1761476457847847000,4.019846923828125,-0.09783844293951988,-0.004789777860068716,0.17184680521935222
1761476457857881000,4.029881103515625,-0.11493161655962467,-0.003339601884642616,0.16970270586274563
1761476457867914000,4.0399140625,-0.09539923309385775,-0.055176368468650615,0.17356782032568008
1761476457877947100,4.049947021484375,-0.01209726502895355,-0.07133542587668634,0.15119170133396984
1761476457887981000,4.05998095703125,0.03549509175121784,-0.02330863690173719,0.09627411623224616
1761476457898014000,4.070013916015625,-0.04870879358947277,0.00016265234895981848,0.12309212666153907
1761476457908046800,4.080046875,-0.06630640960037708,0.0007503754093078896,0.19899280549399553
1761476457918081000,4.0900810546875,-0.08374503565728664,0.014379800175293347,0.2260831300586462
1761476457928114000,4.100114013671875,-0.16571838546693324,0.08117242695661261,0.21505307413609698
1761476457938147000,4.11014697265625,-0.2261824987798929,0.11808377871392294,0.20752289782697333
1761476457948181200,4.12018115234375,-0.15254735372662542,0.06554533470054157,0.1718466225562617
1761476457958214100,4.130214111328125,-0.06778875711262226,0.03932840457009151,0.110700792323146
1761476457968247000,4.1402470703125,0.04050444434583187,0.017028426404378842,0.03328311479017138
1761476457978281000,4.150281005859375,0.19445289704203605,-0.03193433052971959,-0.01936864427141845
1761476457988314000,4.160314208984375,0.22848259241580962,-0.04632034581666812,-0.010260423256922512
1761476457998347000,4.170346923828125,0.21706103469133375,-0.06555706623753067,0.030503457476384936
1761476458008381200,4.180381103515625,0.13610007679462433,-0.06886278868545778,0.08799271969702094
1761476458018414000,4.1904140625,0.10402969879508017,-0.0523193853020668,0.13348600357240065
1761476458028447200,4.200447265625,0.1618026733279228,-0.08307917389338836,0.11560277555314823
1761476458038481000,4.21048095703125,0.1641430989742279,-0.05458175900978967,0.06600517989778891
1761476458048514000,4.22051416015625,0.13480828341841697,-0.012893566505797207,0.05724543439424597
1761476458058547000,4.230546875,0.14093933351933954,0.02165675977517385,0.03799813321386464
1761476458068581000,4.2405810546875,0.14059212751686573,0.031078318771871272,0.002687321121525019
1761476458078614000,4.250614013671875,0.06968436160087585,0.053704108525579795,0.017575107351574113
1761476458088647200,4.260647216796875,-0.06655307783782481,-0.036877769148116926,0.023572484602848998
1761476458098681000,4.27068115234375,-0.16199088937640188,-0.11144938220074399,0.1144470844456926
1761476458108714000,4.2807138671875,-0.08521218560039996,-0.15343697777641938,0.18964871163070202
1761476458118747000,4.290746826171875,0.03226151665747166,-0.2068711924525909,0.16832741718785837
1761476458128781000,4.300781005859375,0.06981470998227596,-0.19990606614770368,0.1462097664692439
1761476458138814000,4.31081396484375,0.07233809098005295,-0.1359308759738691,0.07223127873786725
1761476458148847000,4.32084716796875,0.041030514046549796,-0.008588687227485934,0.04338000891529955
1761476458158881000,4.330881103515625,-0.07571721202433108,0.03537972174324095,0.06187040448088664
1761476458168914200,4.3409140625,-0.1483136616796255,0.05823642275955062,0.11556351212183945
1761476458178947000,4.350947021484375,-0.20205168160796164,0.03705705297146924,0.12815174813866614
1761476458188981000,4.36098095703125,-0.24547055209577082,-0.023409083335218017,0.11893590203123167
1761476458199014000,4.371013916015625,-0.26331074469089505,-0.00435729216884938,0.16523153353175146
1761476458209047000,4.381047119140625,-0.1916752490222454,0.011538416436640546,0.18132469979645682
1761476458219081200,4.391081298828125,-0.2316810961961746,0.00470060630585067,0.20333711830861864
1761476458229114000,4.401114013671875,-0.1729617807239294,0.012683312155446037,0.1709014506606385
1761476458239147000,4.41114697265625,-0.03829144447147846,0.0510513335610507,0.14634791456460952
1761476458249181000,4.421180908203125,0.04511632205545902,0.04154723596361,0.14019427817254326
1761476458259214000,4.431214111328125,0.06470248153507709,-0.005269921493250876,0.17629991217069327
1761476458269247000,4.4412470703125,-0.0020797288835048672,-0.012795887418137862,0.2267583259064704
1761476458279281200,4.45128125,-0.04847323126792907,0.058303537745587525,0.3062225241730921
1761476458289314000,4.46131396484375,-0.09223112445175648,0.1144463263938669,0.35951617960110305
1761476458299347200,4.47134716796875,-0.2573357619345188,0.139740177729493,0.44396490654833615
1761476458309381000,4.481381103515625,-0.4937924019694328,0.11353558649080805,0.5700942089486867
1761476458319414000,4.4914140625,-0.6393196478009223,0.1157649255786091,0.6080264647189527
1761476458329447000,4.501447021484375,-0.642097295820713,0.18867475203201173,0.540013689592108
1761476458339481000,4.511481201171875,-0.6225041220784187,0.23695940192528067,0.44890623540803787
1761476458349514000,4.521513916015625,-0.546435612398386,0.21378530095629392,0.3645365285137668
1761476458359547100,4.531547119140625,-0.5076765504151582,0.21121862880606204,0.28338435889389363
1761476458369581000,4.5415810546875,-0.5669143368035554,0.23232936750445513,0.23508673992119727
1761476458379615000,4.551614990234375,-0.6039730246096849,0.20568917959379032,0.22406305894050746
1761476458389648000,4.56164794921875,-0.5705529855668544,0.13830926814354025,0.19465662118690089
1761476458399682000,4.57168212890625,-0.49631402940154073,0.1406308246925939,0.14219032909427767
1761476458409715000,4.58171484375,-0.36483518266677856,0.16707049419563264,0.08748182929912582
1761476458419748000,4.591748046875,-0.30271745692789553,0.17122697455426678,0.055806204504519695
1761476458429782300,4.6017822265625,-0.29244623828232286,0.1119995999620296,0.08830663535124622
1761476458439815200,4.611815185546875,-0.24048399585485458,0.021831901712948455,0.1301302725368645
1761476458449848000,4.62184814453125,-0.15609832420647143,-0.03375093323132023,0.17660145240053535
1761476458459882000,4.631882080078125,0.01170914249420166,-0.04679665809152648,0.17995405076406895
1761476458469915100,4.6419150390625,0.14918343025147915,-0.0688060261300765,0.17524388204542918
1761476458479948000,4.651947998046875,0.1683341209232807,-0.04117637052433565,0.19837787019973618
1761476458489982200,4.661982177734375,0.2327051785469055,-0.009456888321693986,0.224722417898383
1761476458500015000,4.67201513671875,0.22635376369357108,0.04209651757655665,0.30684783473089333
1761476458510048300,4.68204833984375,0.1475683962702751,0.001310132750496268,0.39941885866150256
1761476458520082000,4.69208203125,0.09339549205601215,-0.07882356227552517,0.4502173910718411
1761476458530115000,4.702114990234375,0.11905308040380477,-0.12929165715510024,0.46625879061669107
1761476458540148000,4.71214794921875,0.2161006652265787,-0.1418248111169785,0.39803160555418576
1761476458550182100,4.72218212890625,0.315076003241539,-0.09304676994988695,0.2869613040652126
1761476458560215000,4.732215087890625,0.3040098348259926,-0.07272316304119303,0.20577198077272624
1761476458570248200,4.742248291015625,0.18921148925721645,-0.10201030353037639,0.22958251648172734
1761476458580281900,4.75228173828125,0.15854980901181698,-0.0852852873692289,0.3011673048764467
1761476458590315000,4.76231494140625,0.2841846058934927,-0.04295890655955299,0.2729323768539354
1761476458600348000,4.772347900390625,0.4113514346480369,0.008169350995495915,0.19883679294837636
1761476458610382000,4.782382080078125,0.3755219963759184,0.07248718059454112,0.14454336762698367
1761476458620415000,4.7924150390625,0.2846902173280716,0.04735186255518347,0.06150512853218242
1761476458630448600,4.80244873046875,0.2828898899078369,0.0014790230439975856,-0.01304588925698772
1761476458640482600,4.812482666015625,0.30454233426749705,0.009809044493921101,-0.07746730709467083
1761476458650515500,4.822515380859375,0.31913375419974327,0.006430544504150748,-0.12105961618693545
1761476458660548400,4.83254833984375,0.16909107677042484,0.036478988222032785,-0.050267567338794464
1761476458670582500,4.84258251953125,0.07166238367557526,0.07937138715032488,0.01345330101409927
1761476458680615700,4.85261572265625,0.1263888301193714,0.11120426659956574,-0.04013667047936469
1761476458690648600,4.862648681640625,0.18202187001407144,0.13255948157832026,-0.09764452780261636
1761476458700682800,4.872682861328125,0.1670662929445505,0.1517006007041782,-0.12666003000987694
1761476458710715600,4.882715576171875,0.19103169042170046,0.15750183432884513,-0.12889577143900097
1761476458720748500,4.89274853515625,0.03603811258673668,0.13599552044160662,-0.12534958673212676
1761476458730782500,4.902782470703125,-0.11106792686879634,0.10705496490038931,-0.08253182394262402
1761476458740815600,4.912815673828125,-0.07381810040473938,0.1340618489652872,-0.06322669162778183
1761476458750848500,4.9228486328125,0.049530631366372105,0.17762579047959298,-0.11350068870736285
1761476458760881700,4.932881591796875,0.07583645448982715,0.22519268402494488,-0.10604396122694015
1761476458770915600,4.94291552734375,0.05332885460555553,0.15584467823896556,-0.11189075102638453
1761476458780948700,4.95294873046875,-0.00988660324215889,0.10893444023774936,-0.059925111065432426
1761476458790981600,4.962981689453125,0.05958440786898136,0.0667734243239276,-0.09685613563759252
1761476458801015600,4.973015625,0.11671265475749969,0.08649760403474792,-0.10986744677154346
1761476458811048400,4.98304833984375,0.08610942670106887,0.1162016730280593,-0.11440103508057071
1761476458821081600,4.99308154296875,0.14659049114882944,0.08468291929559782,-0.08066617620121687
1761476458831115500,5.003115478515625,0.2422036592543125,0.0661242214338854,-0.037778672643750906
1761476458841148700,5.013148681640625,0.22810499127507208,0.1100560646788217,0.00735529466625303
1761476458851181600,5.023181640625,-0.08470657416582107,0.13578682786067947,0.029510665313061325
1761476458861215500,5.033215576171875,0.036700375887751574,0.13924570874343625,0.00900244081877172
1761476458871248400,5.043248291015625,0.22162264351844788,0.17115378145389257,-0.008583320357557385
1761476458881281500,5.053281494140625,0.27722411923110485,0.21059227706864475,0.01756857257951051
1761476458891315500,5.0633154296875,0.22584581417143343,0.19217433938449247,0.04901714715259149
1761476458901348600,5.0733486328125,0.03886252235770225,0.24082789565538987,-0.03383585330210626
1761476458911381500,5.083381591796875,0.1795148556292057,0.24256699440767987,-0.03552071938281878
1761476458921415700,5.093415771484375,0.3045440878331661,0.1837786870861426,-0.04442156299063935
1761476458931448600,5.103448486328125,0.28009529075324535,0.1628465746239759,-0.037556901385542005
1761476458941481500,5.1134814453125,0.16260755997002124,0.1884649634725414,-0.021456200268352404
1761476458951515400,5.123515380859375,0.13595336180031298,0.23206834194809198,-0.017635135009698568
1761476458961548500,5.133548583984375,0.07182838789224624,0.39447245176788415,-0.380779003588669
1761476458971581400,5.14358154296875,-0.15059914226830004,0.4923724887015298,-1.0548954221457243
1761476458981615600,5.15361572265625,-0.5483084205329418,-0.0716056667859666,-0.26479663586709645
1761476458991648500,5.1636484375,-0.2881552630901337,-0.16025412871167063,-0.4526205797560513
1761476459001681700,5.173681640625,-0.18807927035689354,0.09522442451622337,-0.7142163372226059
1761476459011715600,5.183715576171875,-0.29926760873496533,0.3091395258646458,-0.5737123263806104
1761476459021748500,5.19374853515625,-0.2584422618716955,0.2188820395734161,-0.7117489241957664
1761476459031781400,5.203781494140625,-0.11533201405405998,-0.07918306150399149,-0.5512033382568509
1761476459041814500,5.213814453125,-0.10742051027715206,-0.08863905477654188,-0.39721097335368394
1761476459051848700,5.2238486328125,-0.16103811869621276,0.06994454690702259,-0.5018740746814757
1761476459061881600,5.233881591796875,-0.16907354111373424,0.07170015840269625,-0.5022084212023764
1761476459071914500,5.24391455078125,-0.16664485266208648,0.004424136585183441,-0.44641368793994185
1761476459081948400,5.253948486328125,-0.1509007555633783,-0.10079312802664935,-0.45960342438071966
1761476459091981600,5.263981689453125,-0.12370645916759967,-0.10926431151293217,-0.3839421072620898
1761476459102014500,5.274014404296875,0.06699088473320007,-0.011187200979329645,-0.2548016586133279
1761476459112048600,5.284048583984375,0.09246259512007236,0.09763820765968412,-0.1206795490944758
1761476459122081500,5.29408154296875,-0.059140171232819554,0.12098211223762481,-0.04636128974840976
1761476459132114700,5.30411474609375,0.08165010920464992,0.13196874914355575,-0.1372181393054314
1761476459142148600,5.314148681640625,0.05462824676632881,0.02081851428616792,-0.2870544987739995
1761476459152181500,5.324181396484375,-0.03290624430179596,-0.16537439433485268,-0.35004363705255087
1761476459162214400,5.33421435546875,0.045243747827410696,-0.25778354223463684,-0.31211360977198926
1761476459172248600,5.34424853515625,-0.03003624182343483,-0.2525903940383345,-0.24763903697496278
1761476459182281500,5.354281494140625,-0.08799860144853591,-0.17053232508730143,-0.20520426388736812
1761476459192314600,5.364314697265625,-0.08184358595013617,0.13245541841564698,-0.23991540218666194
1761476459202348500,5.3743486328125,0.011877484798431396,0.022009002712368962,-0.36068858438134194
1761476459212381700,5.384381591796875,-0.14003332459032536,-0.14696014644512906,-0.34378468625564124
1761476459222414600,5.39441455078125,-0.44712534334063525,-0.41142102928552776,-0.31426928996853526
1761476459232448500,5.404448486328125,-0.3974450743705034,-0.5047555849345401,-0.06822207049597054
1761476459242481400,5.4144814453125,-0.26575696879923344,-0.4067828115582466,0.1165216256974265
1761476459252514600,5.4245146484375,-0.22323475489020347,-0.20994928472368046,0.1273169778149575
1761476459262548500,5.434548583984375,-0.2627852595120668,0.04323259066808968,0.031099560206010936
1761476459272581600,5.44458154296875,-0.2676420518934727,0.2788037531053647,-0.07784834230151028
1761476459282614500,5.454614501953125,-0.21850421923696994,0.40604671583604063,-0.02362400016095489
1761476459292647700,5.464647705078125,-0.22792846566438674,0.38783027380704876,0.133867349306494
1761476459302681300,5.474681396484375,0.018272154271602628,0.3765609475022182,0.21523813011310994
1761476459312714500,5.484714599609375,0.34796821901798247,0.4944967873791232,0.29253767942544073
1761476459322747400,5.494747314453125,0.43758010088205335,0.6591535714965313,0.20498850224483758
1761476459332781600,5.504781494140625,0.626367811769247,0.7614435139521956,0.18060955553073435
1761476459342814500,5.514814453125,0.7146884847790003,0.8275629496131092,0.03982844478040933
1761476459352847600,5.52484765625,0.7709048775196075,0.7480085705786943,-0.0279844603927806
1761476459362881500,5.534881591796875,0.9492360763221979,0.7149019813992082,-0.02404936769986525
1761476459372914400,5.54491455078125,0.9163251558452844,0.5720186742052435,-0.17502320676576344
1761476459382947300,5.554947265625,0.6182131468862295,0.47404257636070246,-0.4652331738959998
1761476459392981500,5.5649814453125,0.1476817935168743,0.39885830216929313,-0.721217813482508
1761476459403014700,5.5750146484375,0.08141863853633403,0.24203385564535854,-0.5447433849951252
1761476459413047600,5.585047607421875,0.3862251766979694,0.10850684420913458,-0.25867219817005094
1761476459423081700,5.595081787109375,0.8142658803403378,0.16406243495345116,-0.15522590701980515
1761476459433114600,5.605114501953125,0.9994090972453356,0.32283640810996295,-0.11836717136572114
1761476459443147800,5.615147705078125,0.3085346187740564,0.3317364845328033,-0.1709305671572685
1761476459453180700,5.6251806640625,0.08400456337630748,0.2595107678860426,-0.23001447815820572
1761476459463214600,5.635214599609375,0.11698504195809363,0.2043392080232501,-0.2164498439904302
1761476459473247500,5.64524755859375,-0.03375263199806213,0.19534962668605146,-0.215280434884876
1761476459483280600,5.65528076171875,-0.1828214959591627,0.1764162320267409,-0.15629486969187856
1761476459493314600,5.665314453125,0.0354793096601963,0.17573204915486276,-0.15083134358897804
1761476459503347700,5.67534765625,0.032335750937461855,-0.0038462270993739364,-0.11954327507354319
1761476459513380600,5.685380615234375,-0.18125614633858203,-0.06557809532582759,-0.07300352348568849
1761476459523414500,5.69541455078125,-0.260492764660716,0.00989456735290587,-0.26262665315056216
1761476459533447400,5.705447509765625,-0.07667407435774802,-0.07898636988811195,-0.13177172873411327
1761476459543480600,5.71548046875,0.1363315474629402,-0.1333334616255015,-0.06432877111816779
1761476459553514500,5.725514404296875,0.08081424290239811,-0.23974998249188065,-0.006130374247487634
1761476459563547600,5.735547607421875,-0.01529459976553917,-0.34772637308612464,0.09881981865968555
1761476459573580500,5.74558056640625,0.0021101240217685697,-0.278015415739268,0.1319625203321688
1761476459583614500,5.755614501953125,-0.04001344595849514,-0.29746267820484934,0.13880476917605847
1761476459593647400,5.7656474609375,0.13142448619902133,-0.2767152198608965,0.08313797314222901
1761476459603680500,5.775680419921875,0.21790566882193088,-0.21069573744311929,0.028977964942157267
1761476459613713400,5.78571337890625,0.1410328570216894,-0.2782099153980613,0.008839724537730216
1761476459623747600,5.79574755859375,0.09522212296128273,-0.37091939795129,0.05902761423643678
1761476459633779700,5.80577978515625,-0.059061260777711865,-0.5178638171043247,0.15136024456759914
1761476459643812900,5.815812744140625,-0.28223405634760856,-0.6499861493743956,0.18982704560598357
1761476459653846800,5.8258466796875,-0.25846155109405516,-0.6105863052695989,0.20533821073165162
1761476459663880000,5.8358798828125,-0.01677636275589466,-0.40683118074461816,0.18711789624514058
1761476459673912800,5.845912841796875,0.04992869077324867,-0.257399255624786,0.12275778014063835
1761476459683946800,5.85594677734375,0.4629711472481489,0.0005856909334659576,-0.053706145219039166
1761476459693979600,5.865979736328125,-0.08242343166470527,-0.17735139398500321,0.023093966671172528
1761476459704012800,5.8760126953125,-0.19563713839054106,-0.1639980644803494,0.1945620199723169
1761476459714046700,5.886046630859375,-0.0806751266926527,-0.10327785751447081,0.11706745954453944
1761476459724079900,5.896079833984375,-0.2733043154388666,-0.2511224403776228,0.08267406369121745
1761476459734112800,5.90611279296875,-0.2698620660305023,-0.21016711045913397,0.13012629961464553
1761476459744147000,5.91614697265625,-0.14024199890494346,-0.03110829150173813,0.15883202348668127
1761476459754179800,5.926179931640625,0.015970891591906546,0.12948537136260418,0.09450757235060446
1761476459764212700,5.936212646484375,-0.12424421930611133,0.1892079455932602,0.10284172198637388
1761476459774245600,5.94624560546875,-0.173977095246315,0.14593082166370003,0.14094581805905326
1761476459784279800,5.95627978515625,-0.23066344358623025,0.004622947092913091,0.21875275063794106
1761476459794312700,5.966312744140625,0.035543607068061825,0.0878628097070381,0.16216001713192088
1761476459804345900,5.976345947265625,-0.03053600803911686,0.08161631653290241,0.06875607690797186
1761476459814379800,5.9863798828125,-0.007693477112054824,0.03869571442343294,0.01211368187421467
1761476459824413000,5.996412841796875,-0.004590834921598434,0.04600790060032159,0.055553567750588985
1761476459834445800,6.00644580078125,-0.0019125556230545043,0.08394625731781125,0.06230416995538398
1761476459844479700,6.016479736328125,-0.04493687383532524,0.15203246300704776,0.08393670403817668
1761476459854512600,6.0265126953125,-0.12413082205951213,0.19104301553331315,0.14941127505744806
1761476459864545800,6.0365458984375,-0.13101122922301292,0.15889445773102343,0.1632151887406595
1761476459874580000,6.046580078125,-0.1321142220288515,0.0957715004723519,0.09781427661264315
1761476459884612900,6.05661279296875,-0.04661211357116699,0.05348689471147954,0.0682250159383053
1761476459894645800,6.066645751953125,0.06926876653730869,0.04875438629686832,0.09619487698357551
1761476459904679000,6.076678955078125,0.1988373957365751,0.11582776168175041,0.08752914817272685
1761476459914712800,6.086712890625,0.301577054721117,0.18481983016952871,-0.0027538835517130792
1761476459924745700,6.096745849609375,0.2636830851346254,0.2307669039607048,-0.11289312386880627
1761476459934778600,6.106778564453125,0.12001169630289077,0.21468203060030935,-0.17237809908445922
1761476459944812800,6.116812744140625,0.042051673787832256,0.17504669723920524,-0.15799918939173221
1761476459954846000,6.126845947265625,0.06163549517989158,0.15022738634645938,-0.11988091866322792
1761476459964878800,6.13687890625,0.05459726710617542,0.13668021477013825,-0.056754965729871765
1761476459974912800,6.146912841796875,0.13084347144067288,0.19974435451366007,-0.05032545327218249
1761476459984945700,6.156945556640625,0.21655016255974768,0.24864151028208434,-0.13012448211689479
1761476459994978800,6.166978759765625,0.24457681812644003,0.20543204476125537,-0.18003789312262086
1761476460005012700,6.1770126953125,0.26256547928154467,0.1688382710531354,-0.21519799903212114
1761476460015046000,6.1870458984375,0.14574877962768076,0.08246566337123512,-0.24397866957020012
1761476460025078800,6.197078857421875,0.05014321030676364,-0.0060408145342022174,-0.26093977777585387
1761476460035113000,6.207113037109375,0.07308160282373428,0.04890358550921082,-0.251518289561104
1761476460045145900,6.217145751953125,-0.023823358657956123,0.07604622478298842,-0.2124231640239246
1761476460055179000,6.227178955078125,-0.1891267335832119,0.05357150425501168,-0.1025773993612267
1761476460065211600,6.237211669921875,-0.15054945790767668,0.06568403991833328,-0.09173622620743699
1761476460075245800,6.247245849609375,-0.20086451765000818,0.05330401242524385,-0.10971060310886241
1761476460085278700,6.25727880859375,-0.16257950291931628,0.03900339213311672,-0.12844755274746567
1761476460095312000,6.267311767578125,-0.0818517692565918,0.020726196360215544,-0.19515147376544772
1761476460105345800,6.277345703125,-0.09280044877231121,-0.03643010757900774,-0.20473865566961466
1761476460115379000,6.28737890625,-0.09089315384626388,-0.004666603571549057,-0.23248320635929703
1761476460125411800,6.297411865234375,-0.19650982957184313,-0.023806042196974155,-0.2615661477795802
1761476460135445800,6.30744580078125,-0.23925240823328495,-0.06055727148912847,-0.2423951084394939
1761476460145478700,6.317478759765625,-0.1906038203984499,-0.002131970527395606,-0.23075678442548958
1761476460155511800,6.32751171875,-0.19030162258148192,0.04896474111191928,-0.18904027914246543
1761476460165544700,6.337544677734375,-0.050564650589227676,0.02543773505203426,-0.1898770039612427
1761476460175579000,6.347578857421875,0.13011165003478525,-0.008268135194852947,-0.23452271283026782
1761476460185611800,6.35761181640625,0.23446283586919306,-0.07140855504497885,-0.2772675565140322
1761476460195645000,6.36764501953125,0.2720329803287983,-0.08329371169321238,-0.336601569818519
1761476460205678600,6.3776787109375,0.2127285584449768,-0.054846273431181904,-0.3483026386041194
1761476460215711700,6.387711669921875,0.13569441860318182,0.006214928992092609,-0.32487273624315854
1761476460225744600,6.39774462890625,0.07779810995161533,0.0508686019718647,-0.284386430342216
1761476460235778800,6.40777880859375,0.1061637882143259,0.05793079544305801,-0.2680074876723811
1761476460245811700,6.417811767578125,0.04657528869211673,0.020446575701236723,-0.2668178029637784
1761476460255844900,6.427844970703125,-0.05792378118038177,-0.02765022346973419,-0.26501068047657605
1761476460265877800,6.437877685546875,-0.03412146531045437,-0.020467107032611963,-0.2764101359670982
1761476460275912000,6.447911865234375,0.0156722009062767,0.005389803279563784,-0.3112984574642032
1761476460285944600,6.457944580078125,0.054062429577112193,0.019494097281992435,-0.31983839533776043
1761476460295977700,6.467977783203125,0.06286825184524059,0.000569397385790944,-0.3173095344472676
1761476460306012000,6.478011962890625,-0.013816343906521797,0.003585968727990985,-0.27224888810180126
1761476460316044800,6.488044921875,-0.024481530305743217,0.021371508526429533,-0.22014493564870208
1761476460326077700,6.49807763671875,-0.06890577844381332,0.01669270306043327,-0.20274729918930678
1761476460336111900,6.50811181640625,-0.12551555441617965,0.017087474531680344,-0.20401077978648244
1761476460346145000,6.51814501953125,-0.1379261231780052,0.058985638258233664,-0.20648780089188365
1761476460356178000,6.528177978515625,-0.09812135153412818,0.0778870303440839,-0.18541202390901743
1761476460366210800,6.5382109375,-0.04660626835227012,0.06840250509679317,-0.16021754129463806
1761476460376244700,6.54824462890625,-0.02181961762011051,0.04926628134176135,-0.1199385123356711
1761476460386278000,6.55827783203125,0.019825813454389572,0.031168533788993952,-0.10164545227335765
1761476460396310800,6.568310791015625,0.05178162516355514,0.03022548078522086,-0.12852151303282006
1761476460406345000,6.578344970703125,0.005196984121203422,0.028222032008320092,-0.1385034390087705
1761476460416377900,6.5883779296875,-0.07209902152717113,0.014393340076878666,-0.1241909730152227
1761476460426411000,6.598410888671875,-0.10198796383440493,0.04098375229537487,-0.09432832505987025
1761476460436444700,6.608444580078125,-0.04973112237453461,0.049761298317089676,-0.09122085143066942
1761476460446477800,6.618477783203125,-0.013539280530810355,0.08717990547679365,-0.11135088112917728
1761476460456510700,6.6285107421875,0.05894318735599517,0.09669285310097038,-0.14385208829403853
1761476460466543900,6.6385439453125,0.04332885411679745,0.07888846247158944,-0.16424296088581905
1761476460476577800,6.648577880859375,0.045510289809107776,0.06010726269930601,-0.1697313839679584
1761476460486611000,6.65861083984375,0.03459142090976238,0.07582337581254542,-0.15698603029381483
1761476460496643800,6.668643798828125,0.030670448073744774,0.09930595820881426,-0.12254050239445641
1761476460506677800,6.678677734375,0.04892448216676712,0.11743811948783694,-0.13762891206340863
1761476460516710700,6.688710693359375,0.11494389151930809,0.09484474101625383,-0.17310613936437294
1761476460526743800,6.698743896484375,0.11035364111959933,0.05949307632371783,-0.20007292888090014
1761476460536776700,6.708776611328125,0.06381576182842254,0.05713591873832047,-0.19224935911577193
1761476460546811000,6.718810791015625,0.03825520411431789,0.05401603315211832,-0.15829926831685007
1761476460556843800,6.72884375,0.02078969005048275,0.07736198355667293,-0.13310842069797216
1761476460566877000,6.738876953125,0.0021352584630250928,0.10675152497440576,-0.12008270657933316
1761476460576910800,6.748910888671875,0.025972645646333694,0.11642010155171155,-0.09792965575377456
1761476460586943700,6.75894384765625,0.029879005435109136,0.10580123851224779,-0.09000172143187374
1761476460596976600,6.7689765625,0.03504150276482105,0.0731201812684536,-0.11473409382668323
1761476460607009800,6.779009765625,0.021921908950805664,0.06233560627326369,-0.14259279981479048
1761476460617043700,6.789043701171875,-0.0090104049295187,0.04267645462267101,-0.11616704923924989
1761476460627076900,6.799076904296875,-0.03557750933766365,0.03254771318770945,-0.04426493852366693
1761476460637110300,6.8091103515625,-0.017159224593639374,0.01641673566326499,0.02281166086476296
1761476460647144200,6.819144287109375,0.02091127060353756,-0.016204408086836337,0.059473851033439856
1761476460657177000,6.829177001953125,0.08391513152718544,-0.024048911042138934,0.07718777776723727
1761476460667210200,6.839210205078125,0.08956219750344753,0.05897431314662099,0.10205198724763467
1761476460677243100,6.8492431640625,0.017877017474174497,0.14987762306071817,0.13441433393107727
1761476460687277300,6.85927734375,0.04816635727584362,-0.1476406577888876,0.18504764757603406
1761476460697310200,6.869310302734375,0.09323124140501021,-0.1462526374965906,0.27919857937553894
1761476460707343400,6.87934326171875,0.06593406915664672,-0.06659574793577194,0.26318233253825457
1761476460717377300,6.889377197265625,0.06430676021575928,0.0019639935493469237,0.27933387792669234
1761476460727410400,6.899410400390625,0.0725227998971939,0.005050999779254198,0.3310810893639922
1761476460737443300,6.909443359375,-0.015028642305731773,-0.04355491795763373,0.40604894432574506
1761476460747476200,6.919476318359375,-0.08809329399466514,-0.06735489574000239,0.4404745071493089
1761476460757510100,6.92951025390625,-0.06062076517939567,-0.08131780851036309,0.45381132391057905
1761476460767543300,6.939543212890625,-0.009676759883761406,-0.09730777012892067,0.46229452662821857
1761476460777576200,6.949576171875,-0.030600305446982383,-0.11379216420091688,0.4932980791138485
1761476460787609300,6.959609375,-0.04616203171610832,-0.10779518880844116,0.5255358495695516
1761476460797643300,6.969643310546875,0.003212532305717468,-0.07515921281538904,0.5171595412924885
1761476460807676400,6.979676513671875,0.014429507368803024,-0.07113287990875541,0.529648070661351
1761476460817709300,6.989709228515625,0.011386486411094665,-0.08646898072846233,0.5430578065283597
1761476460827743200,6.9997431640625,0.015136778855323791,-0.1058228658221662,0.5476765889028087
1761476460837776100,7.009776123046875,-0.0038280338555574415,-0.10002214365415274,0.5645535259563476
1761476460847809300,7.019809326171875,0.00483282698392868,-0.09356719536110758,0.5865619441468268
1761476460857842200,7.02984228515625,0.026429157242178914,-0.07344057232923805,0.6194849203877151
1761476460867876400,7.03987646484375,0.042404725009202955,-0.05120367914512753,0.6442302161961794
1761476460877909500,7.049909423828125,0.08210954340994357,-0.06274849792309105,0.6349295230831951
1761476460887942400,7.0599423828125,0.07934475487172603,-0.08106719475015997,0.6207130008779466
1761476460897976300,7.069976318359375,0.05391746814846992,-0.11000161281153559,0.5740643546886742
1761476460908009200,7.08000927734375,0.023511223968863487,-0.11456417148672043,0.5275153329489752
1761476460918042400,7.09004248046875,0.030840543943643568,-0.07994381674341856,0.4752611949028447
1761476460928075300,7.1000751953125,0.04220540304481983,-0.054828810839727515,0.4504376096937805
1761476460938109400,7.110109375,0.028903438401222226,-0.04726400160863995,0.46042022065632043
1761476460948142300,7.120142333984375,0.03728139064610004,-0.040471272728592154,0.4475351297179237
1761476460958175500,7.130175537109375,0.0027870003700256347,-0.04786474398076534,0.4000828024629503
1761476460968208400,7.14020849609375,-0.043429976403713225,-0.04945471658594906,0.3709172425268218
1761476460978242300,7.1502421875,-0.056979778328537935,-0.03189334093220532,0.3281917976632714
1761476460988275200,7.160275146484375,-0.017425766575336454,-0.037752734484896064,0.28983263998413455
1761476460998308400,7.170308349609375,-0.0036871640801429744,-0.04083133821263909,0.2568078656028956
1761476461008341200,7.18034130859375,-0.020108722048997878,-0.03947955827750265,0.2577868667028844
1761476461018375400,7.19037548828125,-0.03896306012272834,-0.03441650273427367,0.2668879638568498
1761476461028408300,7.200408203125,-0.02879354828596115,-0.024153759656101465,0.2765769987002946
1761476461038441500,7.21044140625,-0.019676175850629807,-0.0009120733436197042,0.2539539192101918
1761476461048474400,7.220474365234375,0.0018254618614912033,-0.016946385560557244,0.2061279363372363
1761476461058508300,7.23050830078125,0.015661679512262345,-0.031759923810884355,0.1887727507800795
1761476461068541200,7.240541259765625,-0.0009200374543666839,-0.02760046604387462,0.19246205201838165
1761476461078574300,7.25057421875,0.0002887538135051727,-0.010651523200049995,0.21611169807724653
1761476461088608300,7.260608154296875,0.021594576692581177,0.021143618054687976,0.23855770396739243
1761476461098641400,7.270641357421875,0.0057137014716863626,0.013707988161221147,0.229935202376917
1761476461108674300,7.28067431640625,0.018949030619859693,0.009194821585714816,0.20868647997993975
1761476461118707500,7.29070751953125,0.028840894559025762,0.008035933874174951,0.18062756611146033
1761476461128741400,7.300741455078125,0.01559036784172058,-0.015005626756325363,0.17899852187121285
1761476461138774300,7.310774169921875,0.02208382151424885,-0.0206334035102278,0.17416838003471494
1761476461148807200,7.32080712890625,0.013231237494945525,-0.015191285521537064,0.14584626691909505
1761476461158840300,7.33084033203125,-0.010589198553562164,0.01250021980665624,0.13334091427959502
1761476461168874200,7.340874267578125,-0.005491583153605461,0.03414177744612098,0.12041611238531767
1761476461178907400,7.350907470703125,0.03664835343956947,0.041094665323942896,0.11922771545150317
1761476461188940300,7.360940185546875,0.07743687542378902,0.025897169257327914,0.11246208464093506
1761476461198973400,7.370973388671875,0.05244447298645973,0.008339227669686079,0.09778987282374874
1761476461209007400,7.38100732421875,0.032304186755418775,0.03431896064393222,0.09664286734624765
1761476461219040500,7.39104052734375,0.040649990296363826,0.0702996439550072,0.07770199263337998
1761476461229073400,7.401073486328125,0.05052607214450836,0.09113193103820084,0.046351069748494775
1761476461239106300,7.411106201171875,0.07498129896521567,0.09976013171710073,0.023494263700908048
1761476461249140200,7.42114013671875,0.0647983431249857,0.09632584641948341,0.02090678622466512
1761476461259173400,7.43117333984375,0.036300562915205954,0.1121552106488496,0.02537537387292832
1761476461269206300,7.441206298828125,0.029576807618141174,0.1314613841433078,0.0069481751700863235
1761476461279239400,7.451239501953125,0.028977672681212423,0.13656111843511462,-0.03505727572268806
1761476461289273300,7.4612734375,-0.018512392768263816,0.11256057657934725,-0.07148122755554505
1761476461299306500,7.471306396484375,-0.04390460817813873,0.07729951277971267,-0.08856410811049863
1761476461309339400,7.48133935546875,-0.04719312832951546,0.07676701333820819,-0.09582464629854075
1761476461319372300,7.491372314453125,-0.030758710879087447,0.10531725438758731,-0.08451063146861269
1761476461329406200,7.50140625,-0.001762333497405052,0.13171842764429748,-0.08190418443041853
1761476461339439400,7.511439453125,0.01271685823202133,0.12819222627952695,-0.131668186161248
1761476461349472300,7.52147216796875,0.00898293240070343,0.08116554055809974,-0.1886668061875738
1761476461359505400,7.53150537109375,0.023917466682195663,0.03126549135744572,-0.20467286042440683
1761476461369539300,7.541539306640625,0.01892448070049286,0.016893924720957874,-0.20836130314618348
1761476461379572500,7.551572509765625,0.0123784200578928,0.01579794617779553,-0.2273803119960241
1761476461389605400,7.56160546875,-0.0004161795854568481,0.008947641891613602,-0.27164803613182154
1761476461399638500,7.571638427734375,-0.0322463190883398,0.018008900225535033,-0.288849218437355
1761476461409672200,7.581672119140625,-0.03143383366167545,0.034606399283185596,-0.27894254052154716
1761476461419705300,7.591705322265625,0.02772562679350376,0.062469900177419185,-0.265788021524623
1761476461429738200,7.60173828125,0.06658288845419884,0.07155614682212472,-0.2722470249382779
1761476461439771400,7.611771484375,0.077886372756958,0.04620572472736239,-0.304347542347759
1761476461449805300,7.621805419921875,0.07401683784723281,0.01926817957162857,-0.31161570671983063
1761476461459838500,7.63183837890625,0.08870996458828449,0.00982910090126097,-0.318349033562839
1761476461469871400,7.641871337890625,0.1267600015193224,0.0024591566551476715,-0.3374559946907684
1761476461479904500,7.651904541015625,0.1544482189118862,0.012007102527469397,-0.37762978231012817
1761476461489938200,7.661938232421875,0.1392775377869606,0.0019314795192331075,-0.3958973700044676
1761476461499971300,7.671971435546875,0.11112170288264751,0.002070814924687147,-0.391397610899806
1761476461510004200,7.682004150390625,0.035821254965662956,0.04716558273546397,-0.38860849163793026
1761476461520037400,7.692037353515625,-0.028285598763823507,0.07683072622418403,-0.36610184160172937
1761476461530071300,7.7020712890625,-0.04379296449720859,0.0986575042374432,-0.3319504926096648
1761476461540104400,7.7121044921875,-0.051126960647106166,0.10257767335586249,-0.33346542721725997
1761476461550137300,7.722137451171875,-0.048909284597635265,0.053024757092446084,-0.3600261749498546
1761476461560170500,7.73217041015625,-0.08826046725511551,0.022367606891691684,-0.33834092429913576
1761476461570204200,7.7422041015625,-0.10229951400160789,0.039557957275956866,-0.3406444885337725
1761476461580237300,7.7522373046875,-0.12109539988636969,0.04105130110625178,-0.35133137530814856
1761476461590270200,7.762270263671875,-0.11880582764446734,0.0310277736114338,-0.33929128382652995
1761476461600303400,7.772303466796875,-0.10983107855021954,0.031004977257736027,-0.33432043661139904
1761476461610337300,7.782337158203125,-0.08594751413762569,0.044207500114850695,-0.3277184810630977
1761476461620370400,7.792370361328125,-0.04025952967405319,0.05015606978833675,-0.3328335955871269
1761476461630403300,7.8024033203125,0.0065963295251131055,0.041547888984158635,-0.3260932179488241
1761476461640442600,7.812442626953125,0.002527472651004791,0.0403264208978042,-0.3044116936251521
1761476461650476500,7.8224765625,0.021855273455381394,0.04403411630932241,-0.28149255379792304
1761476461660509700,7.832509765625,0.05904840129613876,0.03835354992225766,-0.2621193429492414
1761476461670542600,7.84254248046875,0.06698036333918571,0.03218121796287596,-0.24011600279267875
1761476461680575500,7.852575439453125,0.044373979255557056,0.030521723785437643,-0.20868015983700752
1761476461690608400,7.8626083984375,0.010106383472681045,0.025553981842845675,-0.19363571717394515
1761476461700642600,7.872642578125,-0.012602876463532448,0.004807838673144578,-0.17914308144105598
1761476461710675500,7.882675537109375,-0.04979132812917232,-0.011747538275830447,-0.1524953586779069
1761476461720708600,7.89270849609375,-0.09323533305823803,-0.018145130358450112,-0.09345010832007974
1761476461730741500,7.902741455078125,-0.07215045945346354,-0.010319185973145068,-0.06632875842950306
1761476461740775700,7.912775634765625,-0.06526479159295559,-0.010677424826286733,-0.06376611400041729
1761476461750808600,7.92280859375,-0.04701426463127136,-0.019419461143203077,-0.08669929148615338
1761476461760841700,7.932841796875,-0.027912673798203468,-0.03330127150136977,-0.09710793670788406
1761476461770874600,7.94287451171875,0.009507248535752296,-0.04461071062088012,-0.08642964423191733
1761476461780908500,7.952908447265625,0.053608256068825716,-0.03550261747054755,-0.08565922611500136
1761476461790940400,7.9629404296875,0.04590484208464622,-0.033595432142354546,-0.07497842202153988
1761476461800973600,7.9729736328125,0.029523616126179694,-0.010066416788473725,-0.06855259022512472
1761476461811006500,7.98300634765625,-0.0013595979154109954,-0.009678221188485622,-0.0497987716501113
1761476461821039400,7.993039306640625,-0.03402209658920765,-0.013375358673371375,-0.040253090800112114
1761476461831073500,8.003073486328125,-0.028946693021059035,-0.00700553138051182,-0.03504127215266926
1761476461841106700,8.013106689453124,-0.004101005578041076,0.02428140462376177,-0.03539989688158966
1761476461851139600,8.0231396484375,-0.010980243697762489,0.042837746131606395,-0.005738977476838045
1761476461861172500,8.03317236328125,0.03407937973439693,0.032795842729881404,0.0025173120165942237
1761476461871206400,8.043206298828125,0.03653028001785278,-0.011609883370809256,-0.011624225848348577
1761476461881239600,8.053239501953126,0.04127250610888004,-0.0377124755397439,-0.015521312060346825
1761476461891272400,8.0632724609375,0.06193827751874923,-0.03830762842129916,0.009502275533112697
1761476461901305300,8.073305419921875,0.06741290953755379,-0.005192636739648878,0.038143964575475545
1761476461911338500,8.08333837890625,0.02059270617365837,0.013306713883951306,0.03412607527020154
1761476461921372700,8.09337255859375,-0.000879120922088623,0.008828362893499433,0.005757023448537802
1761476461931405600,8.103405517578125,-0.004796002104878425,0.003291625423915684,0.009864711070759221
1761476461941438500,8.1134384765625,0.02123451120853424,0.024393304033018648,0.0273365018950426
1761476461951471600,8.1234716796875,-0.0009381576329469681,0.027882534388266503,0.053103699513594615
1761476461961505500,8.133505615234375,0.02218377475738525,0.04251837798412889,0.07971366124935447
1761476461971538400,8.143538330078124,-0.005877952122688293,0.1571870327586308,0.08918546401239
1761476461981571300,8.1535712890625,0.065081251719594,0.1065229769155383,0.08530360847720876
1761476461991604500,8.1636044921875,0.1503448752462864,-0.03813468300718814,0.13019110847916454
1761476462001638700,8.173638671875,0.09967793332636356,-0.03909381036292761,0.13379019241705536
1761476462011671600,8.183671630859376,0.0805266581326723,0.015135755942016839,0.07790930610797367
1761476462021704400,8.193704345703125,0.13809797261357307,0.08577310741879045,0.07083844070655759
1761476462031737600,8.203737548828125,0.13205869244933127,0.1165979788692668,0.061343457997334185
1761476462041770500,8.2137705078125,0.09758768304884433,0.1164845450900495,0.04431911182973999
1761476462051804400,8.223804443359375,0.08063479468226432,0.06978139223456382,0.047723102453793395
1761476462061837300,8.23383740234375,0.05473346070647239,0.003989215766638517,0.07930011201240122
1761476462071870500,8.243870361328124,0.018967735320329665,-0.007428177239373326,0.10788717794083058
1761476462081903400,8.2539033203125,-0.013345803785324096,0.026741401529125866,0.12153587366286664
1761476462091936500,8.2639365234375,-0.032501170632243156,0.06337320569269358,0.10692944795773364
1761476462101970400,8.273970458984374,-0.006477671581506729,0.05882803654372692,0.09347065791776403
1761476462112003600,8.284003662109376,-0.04165127629339695,0.023281360735744237,0.118955255185673
1761476462122036500,8.294036376953125,-0.07214227614700794,-0.010270816786773503,0.15262714096456764
1761476462132069600,8.304069580078124,-0.12155892574489116,-0.004886055008508265,0.21520634673535824
1761476462142103600,8.314103515625,-0.15996552102863787,0.051562319857068356,0.2732922596748918
1761476462152136400,8.324136474609375,-0.18153437875807285,0.10998473474197089,0.29054140930799766
1761476462162169300,8.33416943359375,-0.19601766214072702,0.14237038923576473,0.3016766243717633
1761476462172202500,8.344202392578126,-0.16292144822478294,0.1350704780185595,0.31812706137523056
1761476462182235400,8.3542353515625,-0.14632862534224986,0.08563315095882862,0.32269838787876065
1761476462192269600,8.36426953125,-0.14505144501328468,0.04179996404908597,0.2893798912479542
1761476462202302500,8.374302490234374,-0.13368833947777747,-0.004631386127695441,0.23065374417612328
1761476462212335600,8.384335693359375,-0.03145604549348354,-0.037844175628013905,0.17334544627927242
1761476462222368500,8.394368408203125,0.09645897127985954,-0.0752974157096818,0.10652303171446546
1761476462232402700,8.404402587890624,0.17124036375880242,-0.13374562262296677,0.032671330434223635
1761476462242435300,8.414435302734375,0.21117606830596922,-0.16209504387062043,-0.04839499666625634
1761476462252468500,8.424468505859375,0.20612463013529778,-0.09887607889156788,-0.09711644880790263
1761476462262501400,8.43450146484375,0.3104875064074993,-0.19705876869149505,-0.09077055951305664
1761476462272534500,8.444534423828125,0.3677098613202572,-0.27705405989382414,-0.08596057454859837
1761476462282568400,8.454568359375,0.3233031488388777,-0.25273612265195694,-0.14345671403459273
1761476462292601600,8.4646015625,0.3123515467137098,-0.24597919573765248,-0.19546850382536649
1761476462302634500,8.474634521484376,0.30087212132215496,-0.2149185793025419,-0.19864167223507537
1761476462312667600,8.484667724609375,0.18604513418078422,-0.1963915004217997,-0.19792093847878275
1761476462322701600,8.49470166015625,-0.06777472858726978,-0.2008146140936762,-0.12813607564549892
1761476462332734500,8.504734375,-0.11865794360637665,-0.1863419982355088,-0.07642060648675542
1761476462342767400,8.514767333984375,-0.07327800217866898,-0.1364152436910197,-0.0637631731246598
1761476462352800500,8.524800537109375,0.005867430728673934,-0.11377791647985577,-0.09085598190734162
1761476462362833400,8.53483349609375,0.07497954539954661,-0.09702694389354437,-0.04824945528230164
1761476462372867600,8.54486767578125,0.05807867948114872,-0.061855531138740476,0.012127329090365674
1761476462382900500,8.554900390625,-0.023225392764806747,-0.05089015621654689,0.06734762574899941
1761476462392933600,8.56493359375,-0.17207038484215736,-0.07128818006832152,0.10518868697131983
1761476462402966500,8.574966552734375,-0.3702332423180342,-0.09015713118929415,0.14416469790716654
1761476462412999700,8.584999755859375,-0.4959966340154409,-0.07916256670523435,0.1570304174248129
1761476462423033600,8.59503369140625,-0.4892740477621555,-0.048706820828095077,0.12629198214877396
1761476462433066500,8.60506640625,-0.36924890745580197,-0.004671864268556237,0.056797060439083724
1761476462443099400,8.615099365234375,-0.2189893724054098,0.02749050286337733,0.01318669281703187
1761476462453132500,8.625132568359374,-0.1631312915831804,0.03569883416239172,0.05358122649800498
1761476462463165400,8.63516552734375,-0.14641221197247503,0.04312007020432502,0.15434945297883823
1761476462473199600,8.64519970703125,-0.12030045011639594,0.02299695430379361,0.25194486267641186
1761476462483232500,8.655232421875,-0.07144727962017058,0.01128675236366689,0.30944610759578645
1761476462493265700,8.665265625,0.010911854636669159,0.023363997517898676,0.3147972593653947
1761476462503298600,8.675298583984375,0.05853928273022174,0.050866336949542165,0.30698695094063877
1761476462513331700,8.685331787109375,0.048421208819746965,0.09433299210183321,0.33335919036380945
1761476462523365400,8.695365478515624,0.1347071611315012,0.10685600826218723,0.33944464775733646
1761476462533398500,8.7053984375,0.2327227142035961,0.13083448441661893,0.30074560886565593
1761476462543431400,8.715431396484375,0.29222411996424197,0.18210158418677747,0.2897473363208584
1761476462553464600,8.725464599609374,0.297977568924427,0.1424152147581801,0.27975486155143003
1761476462563498500,8.73549853515625,0.3954226286321878,0.0925655075052753,0.25535890890359875
1761476462573531600,8.74553173828125,0.35668811656832694,0.08734638461750001,0.23224530595019457
1761476462583564500,8.755564453125,0.2717529943436384,0.07967559426128863,0.15034524057246743
1761476462593597700,8.76559765625,0.2520885089308023,0.07089399311896413,0.11791342711569741
1761476462603630600,8.775630615234375,0.25393968975543973,0.1032724141543731,0.08377959551401436
1761476462613664500,8.78566455078125,0.1472293735742569,0.16055767823550848,0.043036885432899
1761476462623697400,8.795697509765626,0.16352584385871885,0.22948062700983135,0.034236890117358414
1761476462633723600,8.8057236328125,0.18760814571380613,0.2549756452070549,0.009356715882848948
1761476462643756500,8.815756591796875,0.16598726553618906,0.22105755698159335,-0.03434586691716686
1761476462653789700,8.825789794921874,0.139700147113204,0.15678404144831,-0.09879194427207112
1761476462663823600,8.83582373046875,0.1268067632704973,0.08941577477008104,-0.1352282441298477
1761476462673856800,8.845856689453125,0.0807271491408348,0.04593713691905141,-0.13130796541357412
1761476462683889700,8.8558896484375,0.018329437416791914,0.0110606519902125,-0.14264305043099448
1761476462693922800,8.8659228515625,-0.06653495765924454,-0.00433481433391571,-0.1332452170864679
1761476462703955700,8.875955810546875,-0.10491408041417598,0.010679141859337687,-0.08449844784047454
1761476462713989600,8.88598974609375,-0.08608838391304016,0.03135810154434293,-0.05229940195996314
1761476462724022500,8.8960224609375,-0.01487140591740608,0.03482599685061723,-0.07144490499999374
1761476462734055700,8.9060556640625,0.029721184524893758,0.018485906620137393,-0.1001716351274401
1761476462744088600,8.916088623046875,-0.005703764599561691,-0.024804149856232104,-0.07853524685343727
1761476462754121700,8.926121826171874,-0.07215805823802948,-0.053533145006000996,-0.033819797216448934
1761476462764155600,8.93615576171875,-0.11335223841369152,-0.08376998743545264,0.017722447966970502
1761476462774188800,8.946188720703125,-0.1295961017280817,-0.1193725581491366,0.0470317820216529
1761476462784221700,8.9562216796875,-0.12849720057547093,-0.14701562122572212,0.05004552208594978
1761476462794254800,8.9662548828125,-0.14429741177558897,-0.1562121233118698,0.052245753810275346
1761476462804287700,8.976287841796875,-0.14584697930514812,-0.13695826452653853,0.04904538686638698
1761476462814321700,8.98632177734375,-0.09589373861253261,-0.10141589956749231,0.06320628816056996
1761476462824354600,8.9963544921875,-0.03428454691767693,-0.07772193944286554,0.0856792368565686
1761476462834387700,9.0063876953125,0.02924187657535076,-0.03328161695282906,0.0729521677577868
1761476462844420600,9.016420654296875,0.026602175721526143,-0.010229717591404914,0.04999238539291546
1761476462854453500,9.02645361328125,0.04282791885733604,-0.005987403846532106,0.0076613466744311146
1761476462864487700,9.03648779296875,0.08498714467287063,-0.0017172887792810797,-0.02551956811659038
1761476462874520800,9.046520751953125,0.10493220059275626,-0.017422259443998337,-0.06748939057355746
1761476462884553700,9.0565537109375,0.0927916809439659,-0.009281440423242747,-0.0714625685208477
1761476462894586600,9.066586669921875,0.06770517048239708,0.015827026141807435,-0.08676496800035238
1761476462904619800,9.076619873046875,0.028140052813291547,0.03189421771503985,-0.0887900988860987
1761476462914652700,9.086652587890624,-0.042269115930795666,0.051942368683218956,-0.08303743537720293
1761476462924686600,9.0966865234375,-0.06138765789866447,0.0670417016049847,-0.08189533440368249
1761476462934719500,9.106719482421875,-0.046270752787590026,0.0808534058690071,-0.07556432301755994
1761476462944752600,9.116752685546874,-0.02052197902500629,0.05068531782682985,-0.09509241390069946
1761476462954785500,9.12678564453125,0.011245616635680198,0.018224442672356962,-0.11365825388925149
1761476462964818700,9.136818603515625,0.030779169145226475,0.00957673357538879,-0.12157584034707397
1761476462974852600,9.1468525390625,0.06409457876980304,-0.0011086188290268181,-0.1306024474927224
1761476462984885800,9.1568857421875,0.0690028090775013,-0.01491959244068712,-0.14041293502505867
1761476462994918700,9.166918701171875,0.043270986449718475,-0.03966985668521374,-0.13355850255303084
1761476463004951800,9.176951904296875,0.01903670890331268,-0.06509085979815572,-0.13353545047100632
1761476463014984700,9.186984619140626,-0.030675124248862266,-0.06785356597714126,-0.11285650905231014
1761476463025018600,9.1970185546875,-0.06623685149550437,-0.053901612992212175,-0.09546111934892833
1761476463035051500,9.207051513671875,-0.08454758421182632,-0.028333383428305384,-0.07209726796150207
1761476463045084700,9.217084716796874,-0.07152911268472671,-0.01699643524736166,-0.060678103123512114
1761476463055117600,9.22711767578125,-0.05677987184226513,-0.04802132278196514,-0.0620197087245062
1761476463065150700,9.237150634765625,-0.08979366817176342,-0.09625237932447343,-0.0616069084062241
1761476463075184600,9.2471845703125,-0.08151040847301483,-0.11787757035102694,-0.044211829230096186
1761476463085217800,9.2572177734375,-0.08805939172506332,-0.10624565781150012,-0.012400339628756045
1761476463095250700,9.267250732421875,-0.07817512657046317,-0.06986410208195447,0.01144592498075217
1761476463105283800,9.277283935546874,-0.07816109804511069,-0.03890928410887718,0.01261653966270387
1761476463115316700,9.287316650390625,-0.06854571295976639,-0.003128288088366389,0.0058921815774403506
1761476463125350000,9.297349853515625,-0.022252163818478582,0.014196465797908604,-0.001671129816304892
1761476463135383600,9.307383544921874,-0.01288987671136856,0.025758929830417037,-0.00832222173595801
1761476463145416700,9.317416748046876,-0.038812253475189205,0.021540362287312743,-0.02138937297668308
1761476463155449600,9.32744970703125,-0.04527706557512283,0.024233181567862628,-0.028138755905348804
1761476463165482800,9.337482666015624,-0.04204232143759727,0.033778314428590236,-0.037861218094360084
1761476463175515600,9.347515625,-0.041831309035420414,0.05183068846967071,-0.04478729103049263
1761476463185549800,9.3575498046875,-0.01680909598171711,0.05105546631347388,-0.060621915956865995
1761476463195582700,9.367582763671875,0.020032149681448935,0.03482252625189721,-0.0796415458612144
1761476463205615900,9.377615966796874,0.0299590849339962,0.031809717769362034,-0.07985756323207169
1761476463215648800,9.387648681640625,0.03945464303195476,0.038300979484803974,-0.06949008113779127
1761476463225681700,9.397681640625,0.058085693743824954,0.04719875435270369,-0.098115049657505
1761476463235715600,9.407715576171874,0.03601648527681827,0.026783742833510038,-0.09846218259474263
1761476463245748700,9.417748779296875,-0.02823006918430328,0.03515723809897899,-0.07762061622655018
1761476463255781600,9.42778173828125,-0.03243628870248794,0.06058408643081784,-0.06401115653635933
1761476463265814800,9.437814697265624,-0.021173720932006836,0.08706526612117886,-0.053074715447705235
1761476463275847700,9.44784765625,-0.007477204012870788,0.09780099700596183,-0.06352764733573421
1761476463285880600,9.457880615234375,0.028653263032436368,0.10174213584717362,-0.0971940714882221
1761476463295914800,9.467914794921874,0.0369347691655159,0.10705887389052658,-0.1182413530289661
1761476463305948000,9.477947998046876,0.007912088298797608,0.10408029647115617,-0.11661551452595739
1761476463315980800,9.487980712890625,0.017893384087085722,0.10229297466296702,-0.12180355728887952
1761476463326013400,9.498013427734374,0.07646072386801242,0.11032050603497773,-0.1352021050415933
1761476463336046600,9.508046630859376,0.10359598355293273,0.11867368916478008,-0.1107471248160582
1761476463346079500,9.51807958984375,0.12433014402389525,0.1115713098136708,-0.09455401444137096
1761476463356113700,9.52811376953125,0.10952595812380313,0.0828137461565435,-0.0817985412320122
1761476463366146600,9.538146484375,0.07415420049130916,0.04094714661203325,-0.07400501954527572
1761476463376179700,9.5481796875,0.08415537002384663,0.0017500220051035284,-0.08353082665102556
1761476463386212600,9.558212646484375,0.08576105165481566,-0.006789112150855362,-0.0773702581946738
1761476463396245800,9.568245849609376,0.09287819018363952,-0.01864745385739952,-0.09649540343326515
1761476463406279700,9.57827978515625,0.09024550359249114,-0.023452881377749143,-0.1033495253780391
1761476463416312600,9.5883125,0.07981120333969592,-0.042821927507966755,-0.09606335955839604
1761476463426345500,9.598345458984374,0.06395663160383701,-0.06913235374130308,-0.0712910478788428
1761476463436378600,9.608378662109375,0.037760114073753355,-0.08056600376237183,-0.030978381511755287
1761476463446411500,9.61841162109375,0.05286123709380627,-0.08326390107683837,-0.02973545964541845
1761476463456444700,9.628444580078124,0.07394085000157356,-0.0863546701664105,-0.03523697053799405
1761476463466478600,9.638478515625,0.08182897290289401,-0.07243311231974511,-0.026878088319767266
1761476463476511700,9.64851171875,0.05259527963399887,-0.05860284948572516,-0.0009193798672407865
1761476463486544600,9.658544677734374,0.031150340545177457,-0.05748433031719177,0.025946004234580322
1761476463496577800,9.668577880859376,0.0029687866777181626,-0.028233320587314665,0.06195896411375142
1761476463506610700,9.678610595703125,0.005156067588925361,-0.009267448430508375,0.05879358628485352
1761476463516643800,9.688643798828124,-0.005102291575074196,-0.003424494555965066,0.052206225517485286
1761476463526677500,9.698677490234376,0.04176934971511364,-0.005882847493514419,0.029302922580204904
1761476463536710700,9.708710693359375,0.1061287169009447,0.0010303294284269213,0.0281464825540781
1761476463546743600,9.71874365234375,0.07936287505030631,0.020300847087614236,0.03836364205800928
1761476463556776700,9.728776611328126,0.03331950127780437,0.061466385690681635,0.07943321860646829
1761476463566809600,9.7388095703125,0.030096447578072547,0.09502382391020656,0.12481633837195112
1761476463576842800,9.7488427734375,0.017646715849637985,0.12621161038894205,0.15489406298324465
1761476463586876700,9.758876708984374,-0.006718494600057602,0.10349822226688266,0.14497530190399846
1761476463596909800,9.768909912109375,-0.04811316578388214,0.05420771979931742,0.14563492572335526
1761476463606942700,9.778942626953125,-0.0897983443468809,0.027321429906785488,0.1637570222660899
1761476463616976000,9.788975830078124,-0.10426233850717544,0.002560425072535872,0.1852138709884137
1761476463627008800,9.7990087890625,-0.12487842555642127,-0.011441175740398466,0.19573013216992838
1761476463637046300,9.80904638671875,-0.08639818051457404,0.007771656914800405,0.18106325411498544
1761476463647080400,9.81908056640625,-0.043866614255309105,0.011173355117067693,0.163395239748992
1761476463657113300,9.82911328125,-0.003567337092757225,0.004691884143278003,0.13999372323229908
1761476463667146200,9.839146240234374,0.0770019911378622,0.004834763212688267,0.12618797378502786
1761476463677179400,9.849179443359375,0.1324269412398338,0.01199416998066008,0.11197846584245562
1761476463687212300,9.85921240234375,0.09700491472482681,0.019350377962365745,0.09507115191696211
1761476463697245400,9.869245361328124,0.09506488657295703,0.02526263421345502,0.11022373112961649
1761476463707279000,9.879279052734375,0.10952771168947219,0.03716572837717831,0.125872295431979
1761476463717312300,9.889312255859375,0.06695113724470138,0.0329969913251698,0.14026908784126862
1761476463727345200,9.89934521484375,0.02827157023847103,0.02383636427000165,0.13792184886168687
1761476463737378300,9.90937841796875,0.02839139722585678,-0.020185513612255453,0.13952563992966896
1761476463747411200,9.9194111328125,0.011218728628754615,-0.06112093325387686,0.11730766150858253
1761476463757444400,9.9294443359375,0.0016296470284461973,-0.07111209284905344,0.09790514236702583
1761476463767478300,9.939478271484376,-0.0006879822641611098,-0.08399502836298196,0.08905638513946905
1761476463777511400,9.949511474609375,-0.03260872265994549,-0.04974452984537929,0.08065987432459369
1761476463787544300,9.95954443359375,-0.04482113850116729,-0.016439276288636027,0.052121821469929996
1761476463797577500,9.969577392578126,-0.04083119208216667,0.011065839621983467,0.03852427597981877
1761476463807610400,9.9796103515625,-0.041921909928321836,0.02658796453308314,0.04828599246698431
1761476463817643500,9.9896435546875,-0.05435585956573486,0.03622567104808986,0.0642224292334402
1761476463827677200,9.99967724609375,-0.041864042261242865,0.05205518140792846,0.07852969389548525
1761476463837710300,10.00971044921875,-0.0022796353697776793,0.053939460784569376,0.08589775671176612
1761476463847743200,10.0197431640625,0.0481669417977333,0.044978630617819725,0.08072311228653416
1761476463857776400,10.0297763671875,0.06446107399463653,0.01573065309524536,0.05002975369466003
1761476463867809300,10.039809326171875,0.09016834670305252,-0.0013156857084482907,0.027954750241106375
1761476463877842200,10.04984228515625,0.09710311440229415,0.0058654944999143475,0.025915604529739355
1761476463887876400,10.05987646484375,0.08713760070502757,0.02533310563378036,0.031881887956429274
1761476463897909500,10.069909423828125,0.04630407053530216,0.06056227645780891,0.043818856990290804
1761476463907942400,10.0799423828125,0.021706804895401,0.07673859096132218,0.05070954808578826
1761476463917975300,10.089975341796874,-0.011060907718539237,0.07889986064843833,0.08619051084695384
1761476463928008200,10.10000830078125,-0.02535539053082466,0.06130987995471805,0.0957050293737091
1761476463938041000,10.110041015625,-0.032934301352500917,0.019877470576390624,0.07393322838412132
1761476463948074200,10.12007421875,-0.009052490505576133,-0.025670776622928677,0.04885055841403082
1761476463958108200,10.130108154296876,0.02103402020037174,-0.039578050215914845,0.04052246405971236
1761476463968141300,10.140141357421875,0.03698386900424957,-0.057196855145320295,0.04851521181270946
1761476463978174200,10.15017431640625,0.024717677149176595,-0.039198987770453095,0.057321732767159114
1761476463988207400,10.160207275390626,0.023514731100201604,-0.004422784878313541,0.07739108178699389
1761476463998240300,10.170240234375,-0.012586509850621222,0.01726527878399938,0.09817032350869849
1761476464008273400,10.1802734375,-0.04273088822364807,0.018057305944524704,0.09156650479687377
1761476464018307300,10.190307373046876,-0.024428923335671423,0.008733597282133996,0.07649268077570014
1761476464028340200,10.20034033203125,0.005524900901317596,-0.01915799719542265,0.07523138756903354
1761476464038373000,10.210373046875,0.03294248465895652,-0.033628311498649414,0.05898886226178147
1761476464048406300,10.22040625,0.06844225258529185,-0.03713281248826533,0.02362566696165595
1761476464058439200,10.230439208984375,0.07597440165579318,-0.025766345951892432,0.009456436230544932
1761476464068472300,10.240472412109375,0.07975918089151382,-0.0014887041877955198,0.01889700817167759
1761476464078506200,10.25050634765625,0.04732523027658462,0.017521993491426108,0.05588566751547623
1761476464088539400,10.260539306640625,0.030880875954031942,0.02637903449013829,0.061032725247461346
1761476464098572300,10.270572265625,0.020269465568661688,0.021842194778099656,0.062317613958846774
1761476464108605400,10.28060546875,0.01999240219295025,0.008581037068925797,0.04074634507661685
1761476464118638300,10.290638427734375,0.052341012611985205,-0.010387648099474608,0.021285771038313396
1761476464128671500,10.30067138671875,0.04727613043785095,-0.009882438523694873,0.02041458682750817
1761476464138704400,10.310704345703124,0.016910802790522574,0.009676504155434668,0.03205022112750448
1761476464148738300,10.32073828125,0.025441899770498273,0.03130567723736167,0.03386740835099481
1761476464158771200,10.330771240234375,0.0339455242216587,0.036368330921791495,0.032002660225308496
1761476464168804400,10.340804443359374,0.03555822011530399,0.03523768292404711,0.03081121738445945
1761476464178837200,10.350837158203126,0.03630465456843376,0.028663236437179145,0.059756102040922264
1761476464188870100,10.3608701171875,0.03454875081181526,0.04593582174479961,0.08301392663745209
1761476464198903300,10.3709033203125,0.06634615708887577,0.06856467338856309,0.08201559064933098
1761476464208936200,10.380936279296876,0.04740764786303043,0.07257277651876211,0.08075724288499914
1761476464218970400,10.390970458984375,-0.006283610314130782,0.06712539783306419,0.0803885100373067
1761476464229003300,10.401003173828125,-0.07526596112549304,0.051108584740199144,0.10317338335984386
1761476464239036400,10.411036376953126,-0.08054068665802479,0.04854757514577359,0.11002353238239884
1761476464249069300,10.4210693359375,-0.0877636236488819,0.010705518409609795,0.09061565207913518
1761476464259102500,10.4311025390625,-0.08237316278219223,-0.02077295811139047,0.07167237534662708
1761476464269135400,10.44113525390625,-0.05464052172601223,-0.05802209045570343,0.06127188603188842
1761476464279168300,10.451168212890625,0.00004325461983680725,-0.061738736358657474,0.022064943283842876
1761476464289202200,10.4612021484375,0.05500818599462509,-0.048435383475571865,-0.0042136356396600605
1761476464299235300,10.4712353515625,0.0979722984522581,-0.02862268523108214,-0.025410171191673724
1761476464309268200,10.481268310546875,0.10618424648046493,-0.005264569464698434,-0.022048887198185547
1761476464319301400,10.49130126953125,0.09238076205551624,0.019360862823762,-0.0111970282536
1761476464329334300,10.501334228515624,0.08305120817422866,0.021781331436336038,-0.011393546339543535
1761476464339367400,10.511367431640625,0.0395879140228033,0.014379238486289978,-0.022830940953968093
1761476464349401300,10.5214013671875,0.008108487653732298,0.009961604707129298,0.00032307620821520684
1761476464359434200,10.531434326171874,0.004781973579525947,0.015537870469503104,0.016123652734514327
1761476464369467100,10.541467041015625,-0.06001870763301849,-0.014844262182153761,0.0012880305165424942
1761476464379500300,10.551500244140625,-0.08380582593381404,-0.0376692939851433,-0.014344240238144993
1761476464389533200,10.561533203125,-0.05661386762559414,-0.020157200833223757,-0.023279707634774965
1761476464399566300,10.57156640625,-0.03514730122685432,0.023104250603169202,-0.019749305018922313
1761476464409599200,10.58159912109375,-0.044373979255557056,0.044556861541792746,0.0013753708732780069
1761476464419633400,10.59163330078125,-0.03938976110219955,0.056465727859176695,0.003353612143686041
1761476464429666300,10.601666259765626,-0.03845277251303196,0.04307239513769746,-0.01707539136824198
1761476464439699500,10.611699462890625,0.052393035060167306,0.04594064405038953,-0.03255696507324465
1761476464449732400,10.621732421875,0.09954816946685313,0.04181227554138749,-0.021185968492226676
1761476464459765200,10.63176513671875,0.06144669460952282,0.038011129692755635,-0.023445520055200904
1761476464469798400,10.64179833984375,0.03883095817565918,0.034827056296542286,-0.02172087908652611
1761476464479831300,10.651831298828125,-0.00929448256790638,0.027584830083325504,-0.03270651134545915
1761476464489865200,10.661865234375,-0.014875497570633887,0.014139182652719318,-0.04086258273427375
1761476464499898000,10.671898193359375,0.03654781567454338,0.032446006378903984,-0.06345835409234278
1761476464509931300,10.68193115234375,0.037215924194455144,0.04359156017359346,-0.09564517981209791
1761476464519964200,10.691964111328126,0.04652911146283149,0.04041344159413129,-0.11500897437846287
1761476464529997300,10.701997314453125,0.04385141668617725,0.032929442514292896,-0.10519948235996998
1761476464540030200,10.7120302734375,0.016185411125421524,-0.006678820176795125,-0.12311253012875094
1761476464550063400,10.7220634765625,-0.0066869304180145256,-0.03569576542247087,-0.1427436429949477
1761476464560096300,10.73209619140625,-0.03645721478164196,-0.029033092662878332,-0.13088536522048524
1761476464570130400,10.74213037109375,-0.02869242599904537,0.007188450199365615,-0.13027116971174255
1761476464580163300,10.752163330078124,-0.008064063990116119,0.006011369244009256,-0.14732264134828
1761476464590196500,10.762196533203126,-0.023041268369555473,-0.02058846838995814,-0.13382438694760201
1761476464600229400,10.7722294921875,-0.015579846447706222,-0.019446312617510557,-0.10680029601957648
1761476464610262300,10.78226220703125,-0.004248889616131782,0.009689692430570721,-0.11353870089650153
1761476464620295200,10.792295166015625,-0.035417350339889526,0.014721074193902313,-0.12697970868460834
1761476464630328300,10.802328369140625,0.0009054244071245193,0.017253478748351335,-0.14342304009385407
1761476464640365600,10.812365478515625,0.04291910427212715,-0.005396306085586547,-0.13146724762851372
1761476464650398700,10.822398681640625,0.038602410116791726,0.003923931978084147,-0.12552421264667063
1761476464660431600,10.832431640625,-0.01398351716697216,0.0012600099984556436,-0.12532569439988583
1761476464670464800,10.84246484375,0.0012298340559005736,0.01283938863314688,-0.14269799548862502
1761476464680497700,10.85249755859375,-0.026547815185785292,0.020632636325247585,-0.10387715684818104
1761476464690530800,10.86253076171875,0.07820669075250625,0.07995017341896891,-0.09507875070152803
1761476464700563700,10.872563720703125,0.19317571671307085,0.17375852059219032,-0.04675278241718188
1761476464710596600,10.8825966796875,-0.18875848479270935,0.11869177281074225,0.02272882315320894
1761476464720630500,10.892630615234374,-0.1603396150380373,-0.054834071536734696,-0.018820910728164015
1761476464730663700,10.90266357421875,-0.012878770795464515,-0.1565275094039738,-0.09034757572747766
1761476464740696600,10.912696533203125,0.07394377261102199,-0.10582023547366261,-0.08585592686403543
1761476464750729500,10.9227294921875,0.03617605975270271,-0.07514291926771402,-0.07369116782313212
1761476464760762600,10.9327626953125,-0.04402268159985542,-0.04947718414608389,-0.0434990047856234
1761476464770795500,10.94279541015625,-0.05763853449821472,0.03334014220703393,0.011428115329425781
1761476464780828700,10.95282861328125,-0.06727963854670524,0.058728631289862096,-0.015725209735147655
1761476464790862600,10.962862548828125,-0.09368599943518638,0.0038954000033438203,-0.0693136833912693
