time,seconds_elapsed,z,y,x
1761476492481426700,0.1104267578125,0.5899842467457056,0.31506438586898144,0.21710390571868046
1761476492491459600,0.12045947265625,0.4271598291546106,0.29072949749231336,0.22272030256204306
1761476492501492700,0.13049267578125,0.3767278650343418,0.3057489701109007,0.20383308513201773
1761476492511525600,0.140525634765625,0.3995966994464397,0.3959551280736923,0.18645981592889874
1761476492521558500,0.15055859375,0.40894554255008697,0.41337146923355755,0.14586504468480124
1761476492531591700,0.160591796875,0.3496276766628027,0.3530683917012065,0.09029573594238609
1761476492541624600,0.17062451171875,0.27828678002655505,0.3041215515721589,0.07955527408355846
1761476492551657700,0.18065771484375,0.18551321926116943,0.2696706351116299,0.07315660428870469
1761476492561690600,0.190690673828125,-0.024295067822933194,0.19083163780495524,0.11032825095001607
1761476492571723800,0.200723876953125,-0.123657359328866,0.05037753051929175,0.16633359475582837
1761476492581756700,0.210756591796875,-0.06094751291573047,-0.1254185237824917,0.1701109213374555
1761476492591789800,0.220789794921875,0.007460837399959563,-0.3227168003182858,0.1502888342101127
1761476492601822700,0.23082275390625,0.09021510845422744,-0.4677352929100394,0.06734967157561332
1761476492611855600,0.240855712890625,0.28602935697734355,-0.5857859913382679,-0.007133687804825603
1761476492621888500,0.250888427734375,0.33768589445650576,-0.6581259820144623,-0.09306454306859523
1761476492631921400,0.26092138671875,0.1957008512765169,-0.9111917384795845,-0.2933433697851375
1761476492641954600,0.27095458984375,0.2361170328170061,-1.0926192227970808,-0.214997635888122
1761476492651987500,0.280987548828125,0.15928338398337363,-1.0084751048196106,-0.1384506585087627
1761476492662023400,0.2910234375,-0.016708558216691018,-0.8850278080448508,-0.1680909598171711
1761476492672056600,0.301056640625,-0.09107786276340483,-0.9517216825928538,-0.1240124563768506
1761476492682089500,0.31108935546875,-0.5300847815781832,-1.1806216236378997,-0.10693616082631051
1761476492692122600,0.32112255859375,-1.3215420332610606,-1.2465613188177347,-0.09453289858810603
1761476492702155500,0.331155517578125,-1.5671511170446872,-1.1286001983691005,0.17414762950763105
1761476492712188700,0.341188720703125,-1.2992232339471579,-1.0191028818178922,0.38295536124706264
1761476492722221600,0.3512216796875,-1.3303285663068294,-0.9436634638216346,0.5176511972669512
1761476492732254500,0.36125439453125,-1.1570488056749104,-0.9385871104054152,0.3933277387121692
1761476492742287600,0.37128759765625,-0.6701940940141677,-0.6350590677469968,0.25214937227256595
1761476492752320500,0.381320556640625,-0.5384779313921928,-0.4406081434663385,-0.07169062338937074
1761476492762354700,0.391354736328125,-0.6764350342303515,-0.23228830484170465,-0.3040310968097299
1761476492772387600,0.4013876953125,-0.6134855338424444,-0.0597865063123405,-0.2790852369278669
1761476492782420700,0.411420654296875,-0.3162117292732,-0.08359864945653825,-0.051130175517499446
1761476492792453600,0.42145361328125,-0.26443068863153457,-0.1548727279342711,-0.029731139663327483
1761476492802486800,0.43148681640625,-0.23277824378311632,-0.14614786194786428,-0.1271476125974208
1761476492812519400,0.44151953125,-0.0992535704344511,-0.13550010160747913,-0.13212868894562124
1761476492822552600,0.451552490234375,0.08903846589028835,-0.15750314950309693,-0.08850092494748532
1761476492832585500,0.46158544921875,0.21190672066807745,-0.15453816221766173,-0.09587877850541844
1761476492842618600,0.47161865234375,0.2506254506409168,-0.21830624897945672,-0.047027653835806996
1761476492852651500,0.481651611328125,-0.03691431089937687,-0.16684877773635087,-0.15154229573677294
1761476492862684700,0.4916845703125,-0.08947510374188422,0.046278789963573215,-0.13422804497820323
1761476492872717600,0.501717529296875,-0.2387666705429554,0.39476146130971607,-0.18274470439590512
1761476492882750500,0.51175048828125,-0.043325346985459326,0.5137115562630817,-0.07509008396877907
1761476492892783600,0.52178369140625,0.0011766425639390945,0.4839062371186912,-0.08546895510675385
1761476492902816500,0.53181640625,0.16922084062993525,0.32384587741345167,-0.09787183375246822
1761476492912849700,0.541849609375,0.5204360787451267,0.17899455808214843,-0.1635787065571174
1761476492922882600,0.551882568359375,0.8537520875543355,0.09597191841527819,-0.21969574884278698
1761476492932915700,0.561915771484375,0.7494400646865368,0.04886380148809403,-0.13970515208188444
1761476492942948600,0.571948486328125,0.2841998034626245,0.09649214289709925,-0.031594485849794
1761476492952981800,0.581981689453125,-0.10641396358311175,0.1901258276231587,0.10308210661350749
1761476492963014700,0.5920146484375,-0.19362930569946765,0.23897340862881392,0.1725298921126872
1761476492973047800,0.6020478515625,-0.08253332177996635,0.17467684101350606,0.18990549940336496
1761476492983080700,0.612080810546875,-0.11327040534913539,0.05253821568451821,0.13350059835333378
1761476492993113600,0.622113525390625,0.011155015742778777,-0.05586860221624374,-0.02125301497960463
1761476493003146800,0.632146728515625,0.3415232806622982,-0.09069799660034478,-0.06796086227651685
1761476493013179600,0.6421796875,0.4780892214030027,-0.11808544094804674,-0.12963656160263343
1761476493023212500,0.652212646484375,0.44473523333370685,-0.24742066325023768,-0.025294326259661465
1761476493033245400,0.662245361328125,0.3322556861013174,-0.28709716887194664,-0.028097254851181058
1761476493043278600,0.672278564453125,0.38013328956365583,-0.22849508657120166,-0.016541129227913915
1761476493053311500,0.6823115234375,0.2567775435298681,-0.25569584924038496,-0.0020639102598652244
1761476493063344600,0.6923447265625,-0.14977029022872448,-0.24437318531312047,0.02592785665653646
1761476493073377500,0.70237744140625,-0.3996902229487896,-0.1617019894324243,-0.029571619986370205
1761476493083411700,0.71241162109375,-0.49817397805452346,-0.1304270726595074,-0.05562942316550761
1761476493093444600,0.722444580078125,-0.5442886634975671,-0.09219068284351378,-0.12182462747637182
1761476493103477800,0.732477783203125,-0.5311024341881275,-0.09206848123595118,-0.15387787167802452
1761476493113510700,0.7425107421875,-0.5052069454312325,-0.13274298491906375,-0.15535035538338124
1761476493123543800,0.752543701171875,-0.41909108898937697,-0.14962379443012178,-0.09765841019749641
1761476493133576700,0.76257666015625,-0.2577192082941532,-0.16497852688506245,-0.07518171690814196
1761476493143609600,0.772609619140625,-0.005381108516454697,-0.18514358223117888,-0.16500209042374045
1761476493153642800,0.782642822265625,0.1786614536702633,-0.2064225901685655,-0.230582596902363
1761476493163675600,0.792675537109375,0.21208032366931437,-0.2038937292780727,-0.3028718072393909
1761476493173708800,0.802708740234375,0.23390929363965987,-0.16077113832309842,-0.3470013102145865
1761476493183741700,0.81274169921875,0.27255729646384713,-0.05566599231623113,-0.32443467361945655
1761476493193774600,0.822774658203125,0.19258242699503897,0.03144625475183129,-0.33352851904872804
1761476493203807500,0.832807373046875,-0.04440963509082794,0.09775902102775871,-0.30319099272377786
1761476493213840600,0.842840576171875,-0.25099369943141936,0.1488869315229356,-0.2548158880680799
1761476493223873500,0.85287353515625,-0.3178197489917278,0.168059395635128,-0.26781667780801655
1761476493233906400,0.862906494140625,-0.21130232503414154,0.20549276197254657,-0.3242498916370794
1761476493243939600,0.872939697265625,0.004656885895133018,0.21674385850094258,-0.3978197163691744
1761476493253972500,0.882972412109375,0.139925772562623,0.2004656545255333,-0.4210635946387425
1761476493264005600,0.893005615234375,0.11347732609808445,0.18804178789071738,-0.37316089326776564
1761476493274038500,0.90303857421875,0.004904138654470444,0.19059834050573407,-0.31274869280513373
1761476493284071700,0.91307177734375,-0.07929682407677173,0.20211305640637872,-0.23315021890066562
1761476493294105600,0.923105712890625,-0.09684124859571457,0.20598631764315067,-0.17367358225509524
1761476493304138800,0.933138671875,-0.0703226595044136,0.206652891793102,-0.15461798598822205
1761476493314171600,0.943171630859375,0.017492986592650413,0.1773155189540237,-0.1527576720090583
1761476493324204800,0.953204833984375,0.1343850895702839,0.12897723917737602,-0.12767423028741032
1761476493334237700,0.96323779296875,0.2182540438681841,0.08411131168641149,-0.06980163130499423
1761476493344270600,0.9732705078125,0.21444646827876568,0.06794979289323091,-0.017004655086435377
1761476493354303500,0.983303466796875,0.20830898843705653,0.08317271566204726,0.008300064703077077
1761476493364336600,0.993336669921875,0.2454056701660156,0.09930727338306605,0.02974737841207534
1761476493374369500,1.00336962890625,0.3208177617639303,0.11653875949531793,0.024170089736394583
1761476493384402400,1.01340234375,0.37396249197423453,0.12838197669796644,0.0334945290511474
1761476493394435600,1.023435546875,0.42440731557607647,0.14118863210529087,0.0448873356051743
1761476493404468500,1.033468505859375,0.45709904034435744,0.12792495364546774,0.06337832025922835
1761476493414501600,1.043501708984375,0.3628291035413742,0.08229965915456414,0.08003788823504
1761476493424534500,1.053534423828125,0.23776187741458416,0.05385784691572189,0.10342373225856571
1761476493434567700,1.063567626953125,0.09742460144162178,0.038278658055141565,0.12947010072823614
1761476493444600600,1.0736005859375,0.014734043273329734,0.033446780919283624,0.14831446539722382
1761476493454633700,1.0836337890625,0.060737669557332986,0.04211085662916302,0.1518240078881383
1761476493464666600,1.09366650390625,0.18511808246374128,0.04577873148694634,0.11890570782236755
1761476493474699800,1.10369970703125,0.3050765872746706,0.008901099336147307,0.06832246213052422
1761476493484733700,1.113733642578125,0.3603250117659569,-0.04103701685257256,0.020909845831431448
1761476493494766600,1.1237666015625,0.2746019540339708,-0.0724242348935455,0.006514788721501827
1761476493504799500,1.133799560546875,0.11217676489353179,-0.0725133014164865,0.028795484514720738
1761476493514832600,1.14383251953125,0.01135141509771347,-0.07837422933913767,0.03745013480912894
1761476493524865500,1.153865478515625,-0.03432370988428592,-0.1117393233243376,0.032430480016209184
1761476493534898400,1.1638984375,-0.0634469285160303,-0.09698964409045875,0.02889014052823186
1761476493544931600,1.173931640625,-0.0918202055633068,-0.0754593648057431,0.03382292075529694
1761476493554964500,1.183964599609375,-0.14173369876742362,-0.053978185359761115,0.009571509410999714
1761476493564997600,1.19399755859375,-0.08140285644531249,-0.04273673344254494,-0.038777328292280436
1761476493575030500,1.204030517578125,-0.03428162430822849,-0.031431714769825335,-0.0906948182625696
1761476493585063700,1.214063720703125,0.011448445731401443,-0.05188165147192776,-0.12325889806319028
1761476493595096600,1.2240966796875,0.030329087290167808,-0.057135772607848044,-0.12606898704785852
1761476493605129700,1.234129638671875,0.0036667058140039442,-0.08727576706670225,-0.11005253928117453
1761476493615162600,1.24416259765625,-0.004139584022760391,-0.10704597787633538,-0.08596318663079291
1761476493625195500,1.254195556640625,0.03515548453330993,-0.13101144841872156,-0.0857673717977479
1761476493635228700,1.264228759765625,0.08637538416087627,-0.14695084889382123,-0.09891907778307794
1761476493645261600,1.274261474609375,0.10819091012775897,-0.1252216129709035,-0.11915632158257067
1761476493655295500,1.28429541015625,0.12222294261157512,-0.1039150594394654,-0.14831325982082635
1761476493665332500,1.29433251953125,0.1411515149652958,-0.08272709078639745,-0.18559110680297017
1761476493675365600,1.30436572265625,0.13509937531948088,-0.04643200776390731,-0.2012797108547762
1761476493685398500,1.3143984375,0.05613046802282333,-0.012521920181810855,-0.17681779856495558
1761476493695431700,1.324431640625,0.054441784283518785,0.041547012201324104,-0.13725713787525892
1761476493705464600,1.334464599609375,0.10384849700927734,0.05044643103703856,-0.11619275906924158
1761476493715497700,1.344497802734375,0.1346592303365469,0.014987141251564026,-0.09713146371394395
1761476493725530600,1.354530517578125,0.154256495732069,-0.05380494768470526,-0.07959938721992076
1761476493735563500,1.3645634765625,0.1542395445972681,-0.134387208462134,-0.05616900993492454
1761476493745596700,1.3745966796875,0.13086685231626033,-0.17308080399371684,-0.0434291726861149
1761476493755629600,1.384629638671875,0.11821019983887672,-0.15200404063016176,-0.04447521114032715
1761476493765662700,1.394662841796875,0.009514262798428534,-0.10929412212930618,-0.030247473421320316
1761476493775695600,1.404695556640625,-0.15421967085301874,-0.060429188130050895,-0.0052708165423944586
1761476493785728800,1.414728759765625,-0.1844604953378439,-0.0014647387903183697,0.018578991731069982
1761476493795761700,1.42476171875,-0.17673311595618724,0.020238120582327244,0.03200111215561628
1761476493805794800,1.434794921875,-0.1683475649267435,-0.003229191179573536,0.04174012362062931
1761476493815828500,1.444828369140625,-0.1538432387560606,-0.029207901240512726,0.06650401453170925
1761476493825861600,1.454861572265625,-0.14022154063880443,-0.053318333211541176,0.10552340795155614
1761476493835894500,1.46489453125,-0.13093699494302272,-0.07301745154634118,0.12664959994740782
1761476493845927700,1.474927734375,-0.051344987311959266,-0.0674663932904601,0.12302793885152787
1761476493855960600,1.484960693359375,-0.015405074402689933,-0.08279745260886848,0.11427541767321527
1761476493865993700,1.49499365234375,-0.038894671061635015,-0.09242357828393578,0.12068733054213225
1761476493876026600,1.505026611328125,-0.04603109881281853,-0.08067191182225943,0.14332988191768525
1761476493886059500,1.5150595703125,-0.0882388399451971,-0.07221512218751013,0.1786129018208012
1761476493896092700,1.5250927734375,-0.09872224003672599,-0.05976334463246166,0.20523235747069118
1761476493906125600,1.53512548828125,-0.03963292220830917,-0.049828153008222575,0.19452705825679004
1761476493916158700,1.54515869140625,0.030759295400977132,-0.04281440178863704,0.15252072144802659
1761476493926191600,1.555191650390625,0.09418050495386122,-0.01769428131841123,0.13721892475672065
1761476493936224800,1.565224853515625,0.1194657528579235,0.002308203877136111,0.14781115551758556
1761476493946257700,1.575257568359375,0.128773094907403,0.027603461718559263,0.15290073374155908
1761476493956290800,1.585290771484375,0.10542202993631362,0.031551395626738664,0.15491510577127338
1761476493966323700,1.59532373046875,0.07662906617224216,0.04436228881776333,0.14729706851560623
1761476493976357600,1.605357666015625,0.04735270280539989,0.07614179411195218,0.19022070283237844
1761476493986390500,1.615390625,0.03474281207919121,0.0693889588508755,0.21767894739396867
1761476493996423700,1.625423583984375,0.01516249781847,0.06360518781766294,0.20881902031842617
1761476494006456600,1.63545654296875,0.0032850130200386047,0.06635616702623665,0.20725560692660508
1761476494016489500,1.645489501953125,0.0068085109710693354,0.07742920357398689,0.21584767684619874
1761476494026522600,1.655522705078125,0.04114215772747993,0.0740444565065205,0.20995913026425986
1761476494036555500,1.665555419921875,0.07817804917991161,0.056596843425557014,0.19940321292579172
1761476494046588700,1.675588623046875,0.11684008052945136,0.03133585317991674,0.18508140371516346
1761476494056621600,1.68562158203125,0.18659341571331023,-0.0004259703271090984,0.17550518159642814
1761476494066654700,1.69565478515625,0.21384148812294004,-0.01120316573344171,0.15849278159495442
1761476494076687600,1.7056875,0.2230979767680168,-0.01832351913265884,0.1324794386120513
1761476494086720800,1.715720703125,0.15341361516714094,-0.026123525359109043,0.13336210319809616
1761476494096753700,1.725753662109375,0.0032978725016117095,-0.025083222525939343,0.1590746000709012
1761476494106786800,1.735786865234375,-0.10165712444484233,-0.023114187475293875,0.19959906429145485
1761476494116819700,1.74581982421875,-0.11066519128680229,-0.027143735252320764,0.20954112404789774
1761476494126853600,1.755853515625,-0.03669219258129597,-0.012045096450299024,0.18937614176701753
1761476494136886500,1.765886474609375,0.07390402512252331,0.007694938416779041,0.16768358459267765
1761476494146919700,1.775919677734375,0.1491547886788845,-0.007422916542366147,0.1267095134411007
1761476494156952600,1.78595263671875,0.1761596999824047,-0.017729352631792424,0.11712565600518136
1761476494166985500,1.7959853515625,0.17020517549216746,-0.033016280547529454,0.13027045732568948
1761476494177018600,1.8060185546875,0.09949965415000915,-0.05912460833750665,0.15305965063031762
1761476494187051500,1.816051513671875,0.04062719394266605,-0.0651501522373408,0.16343462191130964
1761476494197084700,1.826084716796875,0.024880174234509465,-0.044821284631639716,0.15300799350831656
1761476494207117600,1.83611767578125,0.05635609347224235,-0.012625307491049169,0.12590630729943514
1761476494217150700,1.846150634765625,0.09831073662638663,0.023744521268084642,0.0834956640060991
1761476494227183600,1.85618359375,0.12248130128681659,0.04906191787607968,0.054097793151438235
1761476494237216800,1.866216796875,0.07414426361918448,0.06243322142884135,0.07204257863219828
1761476494247249700,1.876249755859375,0.007622165441513061,0.043398996743559834,0.08253854594435542
1761476494257282800,1.88628271484375,-0.03788403271436691,0.007385287945717573,0.06990732016917317
1761476494267315700,1.896315673828125,-0.04266133011877536,0.000918356953933835,0.07044782025404274
1761476494277348600,1.9063486328125,0.004931026661396026,-0.00446260543204844,0.053293089172430336
1761476494287382500,1.916382568359375,0.05891746839284896,-0.022801906655728815,0.05032846721317619
1761476494297415700,1.926415771484375,0.0783043059080839,-0.028233137924224137,0.03984503058902919
1761476494307448600,1.936448486328125,0.14473346510529517,-0.04188493891879916,0.028367833687178788
1761476494317481500,1.9464814453125,0.14250176053047178,-0.029792496195435524,0.025116467208415268
1761476494327514600,1.9565146484375,0.07299626262784004,-0.006674728523567318,0.022907887780852614
1761476494337547500,1.966547607421875,0.03310322817862034,0.01460669056661427,0.033876148779876526
1761476494347580700,1.97658056640625,-0.004568038567900657,0.044338177289813756,0.047204636104218656
1761476494357613600,1.986613525390625,-0.07153261981606483,0.035035073024034497,0.049306686417385934
1761476494367646700,1.996646728515625,-0.11008300748467445,-0.007615735700726508,0.05899714603293687
1761476494377679600,2.0066796875,-0.14208207381367682,-0.012189546422287822,0.06172025085389614
1761476494387712800,2.016712646484375,-0.14247311895787715,0.009926204600185156,0.045690176420658826
1761476494397745700,2.02674560546875,0.019729951864480972,0.017024126971885562,0.001770041879825294
1761476494407778800,2.03677880859375,0.06621580870747566,0.04492547565847635,-0.03517287405952811
1761476494417811700,2.046811767578125,0.11407120033800601,0.04399389389678836,-0.05005352272931486
1761476494427844600,2.0568447265625,0.14116203635931016,0.020615502527356146,-0.042560609690658745
1761476494437878500,2.06687841796875,0.12381634928286075,0.007930792999267577,-0.003765855339542031
1761476494447911700,2.07691162109375,0.10568331122100352,-0.02130655353143811,0.011423238224908708
1761476494457944600,2.086944580078125,0.178926826608181,-0.03922967516966164,-0.021387254084832965
1761476494467977500,2.0969775390625,0.2528571552157402,-0.034472762966156006,-0.0720840066211298
1761476494478010600,2.1070107421875,0.28108722440004347,-0.04043766271993517,-0.07368990744780748
1761476494488043500,2.11704345703125,0.1603092198997736,-0.012120061382651329,-0.036732232330739495
1761476494498076700,2.12707666015625,0.07112929971218108,0.021388678856939077,-0.003065598115697503
1761476494508109600,2.137109619140625,0.02913724715709686,0.007881473964825272,-0.008653846576809883
1761476494518142700,2.147142822265625,0.022324060010910033,-0.0215603090967983,-0.03959876421038061
1761476494528175600,2.157175537109375,0.06548983252048492,-0.0249614227771759,-0.07679729887861758
1761476494538208800,2.167208740234375,0.0793114371240139,-0.0010214520022273064,-0.10615461852718144
1761476494548241700,2.17724169921875,0.03329787396788597,0.012637070994079113,-0.11181951242107897
1761476494558274600,2.187274658203125,-0.03785071496665478,0.01516425138413906,-0.09062157036326825
1761476494568307700,2.1973076171875,-0.049015083059668535,0.044822819001600143,-0.07117050850540399
1761476494578341600,2.207341552734375,-0.0014227262794971466,0.07303389122448861,-0.05933609566371888
1761476494588374500,2.21737451171875,0.05626958423256874,0.08835742482356726,-0.07916322429236024
1761476494598407400,2.227407470703125,0.17596563871502877,0.07637107282318174,-0.11189831327833234
1761476494608440600,2.237440673828125,0.245123346093297,0.00547375523597002,-0.15006660629417745
1761476494618473500,2.247473388671875,0.1857926207244396,-0.07683123768083751,-0.15911938906069845
1761476494628506600,2.257506591796875,0.09079846130013465,-0.09867767024263739,-0.1568090297590941
1761476494638539500,2.26753955078125,0.017056933262944222,-0.10482062997706233,-0.15909973451215773
1761476494648572700,2.27757275390625,0.020744097343087194,-0.08377353109940885,-0.1501046732822433
1761476494658605600,2.28760546875,0.016568857485055922,-0.08703954715803265,-0.1546439241470769
1761476494668635100,2.29763525390625,0.03239303408265114,-0.1295455405846238,-0.1817057167369872
1761476494678668300,2.307668212890625,0.014693126741051672,-0.19959917388930914,-0.20792185228299348
1761476494688701200,2.317701171875,-0.08120937969982624,-0.22817330727092922,-0.21415859124809503
1761476494698734000,2.327734130859375,-0.07811550533771515,-0.19555778954401612,-0.19697565698530523
1761476494708767200,2.337767333984375,-0.04417991798818111,-0.15062559188380836,-0.19340331492386756
1761476494718800100,2.347800048828125,-0.008674304842948913,-0.10951010296754539,-0.20277674447949975
1761476494728834000,2.357833984375,0.01485094765126705,-0.07553593717329203,-0.22424247062802313
1761476494738867000,2.367866943359375,0.03923369375765323,-0.09149857239350676,-0.22877255180571227
1761476494748900000,2.377900146484375,-0.01073883615732193,-0.13886260031051934,-0.24836367972139267
1761476494758933000,2.38793310546875,-0.07297989601492881,-0.12722301592119037,-0.2520397744182497
1761476494768966100,2.397966064453125,-0.08891220916211605,-0.09026303924918175,-0.20912870732210576
1761476494778999000,2.4079990234375,-0.09375964919328689,-0.056388534437119955,-0.2056975638296455
1761476494789032200,2.4180322265625,-0.07648994996249675,-0.03445405826568603,-0.2308014272848144
1761476494799065000,2.428065185546875,-0.06440086823999881,0.00802687378488481,-0.23561262695882468
1761476494809098200,2.43809814453125,-0.054906479185819625,0.008354498304054141,-0.2343159382117912
1761476494819131100,2.448131103515625,-0.05057926363646984,-0.07535020534284412,-0.2501259036209434
1761476494829164300,2.458164306640625,-0.066480012601614,-0.1478884220048785,-0.2512310153186321
1761476494839197200,2.468197265625,-0.046021161940693854,-0.18468984711430966,-0.23146252154204994
1761476494849230000,2.47822998046875,-0.002966448590159416,-0.1937998399607837,-0.2003460832664743
1761476494859263200,2.48826318359375,0.085956281965971,-0.19399375509768724,-0.20103625748772172
1761476494869297200,2.498297119140625,0.12101532038748264,-0.2122377061881125,-0.2183986034380272
1761476494879330000,2.508330078125,0.0466249730527401,-0.18579240152873097,-0.20931235679332166
1761476494889363000,2.518363037109375,-0.05543430245220661,-0.11193871835395693,-0.17895170532111077
1761476494899396000,2.52839599609375,-0.18865911607146263,-0.033614246440678834,-0.1287912516186014
1761476494909429000,2.538428955078125,-0.21758710439205167,0.04017864645756781,-0.08844996194522828
1761476494919462100,2.548462158203125,-0.13881810358166694,0.06653970689959823,-0.07439447552058845
1761476494929495000,2.5584951171875,-0.04519347894489765,0.03297222221009433,-0.08362279751710593
1761476494939528200,2.568528076171875,0.018369184905290603,-0.053235111907497044,-0.12865863821487872
1761476494949561000,2.57856103515625,0.03229308083951473,-0.13687836769074202,-0.15344408337064086
1761476494959594200,2.58859423828125,0.02282441074848175,-0.16332177265398204,-0.14702866337038575
1761476494969627100,2.598627197265625,0.0477922632664442,-0.1365725166119635,-0.12293927418738602
1761476494979660300,2.608660400390625,0.05880933184325695,-0.09224157278053462,-0.0871634292660281
1761476494989693200,2.618693115234375,0.05046411282420158,-0.058497197154164314,-0.06735917005632072
1761476494999726000,2.62872607421875,0.009418985730409621,-0.04437551362551748,-0.04771711567100137
1761476495009760300,2.63876025390625,-0.02922317187488079,-0.006743409845605492,-0.030470906913653013
1761476495019793200,2.648793212890625,-0.054957917112112044,0.013132818621769547,0.006897139102593064
1761476495029826000,2.658825927734375,-0.09962474183440208,0.018489231088384985,0.013339227914065123
1761476495039859000,2.66885888671875,-0.06250993992686271,-0.0007404431037604808,-0.008280117893591522
1761476495049892000,2.67889208984375,-0.06325052916109561,-0.02893558710515499,-0.04619330363720655
1761476495059925000,2.688925048828125,-0.008174538627266883,-0.06538812571167946,-0.0739424939693883
1761476495069958100,2.698958251953125,0.08636252467930317,-0.07113865206241607,-0.04962526911357418
1761476495079991000,2.708990966796875,0.17861936809420584,-0.09311375250518321,-0.06286629735017195
1761476495090024200,2.719024169921875,0.2627735690742731,-0.13419972306601702,-0.05763475337224081
1761476495100057000,2.72905712890625,0.25899463505744935,-0.1799773585744202,-0.05350581860765814
1761476495110090200,2.73909033203125,0.16489420960247517,-0.21949754112325606,-0.060227217550855125
1761476495120123100,2.749123046875,0.06368950510025025,-0.18463921290561555,-0.04837499505784362
1761476495130156300,2.75915625,0.015096446844935416,-0.09124408617578446,-0.007737371052708476
1761476495140190200,2.769190185546875,0.01135492222905159,0.012843553351610899,-0.004582341087888926
1761476495150223400,2.779223388671875,-0.015395722052454947,0.10499956674054264,-0.01766255273958668
1761476495160256300,2.78925634765625,-0.02113689605295658,0.1547579424481839,-0.0555260358562693
1761476495170289200,2.7992890625,-0.04212415450215339,0.1624878791131079,-0.09038403528034686
1761476495180322000,2.809322021484375,-0.046507484152913094,0.10123100798726081,-0.07360438458882272
1761476495190355000,2.81935498046875,-0.06351765566468238,0.02924808712042868,-0.0628190789412707
1761476495200388000,2.82938818359375,-0.02939911296367645,-0.02155344096459448,-0.05656885944008827
1761476495210421000,2.8394208984375,0.06529401768743992,-0.027205036985501644,-0.053149515983276066
1761476495220454100,2.8494541015625,0.13703706538379193,-0.020316592646017668,-0.07931903590857982
1761476495230487000,2.859487060546875,0.1946072108209133,-0.017467632955685257,-0.11307780538648367
1761476495240520200,2.869520263671875,0.20185119059979914,-0.0010118073910474776,-0.13510291898343713
1761476495250553000,2.879552978515625,0.14165712639987468,0.017838000638037917,-0.14989318595603107
1761476495260586200,2.889586181640625,0.0866354964017868,0.049753407271578905,-0.13593611840456724
1761476495270619100,2.899619140625,0.08443652505278587,0.0804644796166569,-0.12269834157098083
1761476495280653300,2.9096533203125,0.14768530064821242,0.07048954050391912,-0.15751699536535888
1761476495290686200,2.919686279296875,0.19428689282536504,0.051831601785123346,-0.1989743930544704
1761476495300719400,2.92971923828125,0.23776655358970164,0.04765168575197458,-0.20564163239132613
1761476495310752300,2.939752197265625,0.2577238844692707,0.015265300605818629,-0.2095861322334036
1761476495320785200,2.94978515625,0.23115678006112575,-0.04899016781412065,-0.1891261125287041
1761476495330818300,2.959818359375,0.13476912045180797,-0.09532273379154503,-0.14153759167343377
1761476495340851000,2.969850830078125,0.054798927158117294,-0.11194631713852286,-0.1253038844268769
1761476495350884000,2.979884033203125,-0.006452537140250206,-0.11253873007372021,-0.1263212082432583
1761476495360917000,2.9899169921875,-0.03412847957313061,-0.09832228093370794,-0.14429708298202604
1761476495370950100,2.9999501953125,-0.08391863865852356,-0.056972617935389276,-0.14474895493537188
1761476495380983000,3.009983154296875,-0.10418167448639869,-0.04868504738770425,-0.15434629290737212
1761476495391016200,3.02001611328125,-0.14439561145305632,-0.05834017996154725,-0.1351833272758871
1761476495401049000,3.030049072265625,-0.21020751553475855,-0.05665368817932903,-0.10971790049932896
1761476495411083300,3.040083251953125,-0.20178981580138206,-0.07694916497208178,-0.08268047516569495
1761476495421116200,3.0501162109375,-0.1404664553105831,-0.11106390828080474,-0.0769074812548235
1761476495431149300,3.0601494140625,-0.07684884640276432,-0.15581629239469766,-0.08002871854789555
1761476495441182200,3.07018212890625,-0.0007943652480840683,-0.1941953420843929,-0.07857548753228039
1761476495451215400,3.08021533203125,0.0013514146089553833,-0.20337357786148785,-0.06888097279611975
1761476495461248300,3.090248291015625,-0.019725860211253166,-0.1571560165658593,-0.028828363871015606
1761476495471281200,3.10028125,-0.029358780953288078,-0.09184826261401176,-0.007863061525300145
1761476495481314300,3.110314208984375,-0.0350567003339529,-0.04558583926334977,-0.0028998130947351453
1761476495491347200,3.12034716796875,0.015028642305731773,-0.00152246032692492,0.019907719584181905
1761476495501380000,3.130380126953125,0.05327157146036625,0.003004807839170098,0.0413188294686377
1761476495511413000,3.1404130859375,0.07549567822813988,-0.03747384447827935,0.05111764482948929
1761476495521446100,3.150446044921875,0.06207505564093589,-0.05541033705472946,0.056587454542703926
1761476495531479000,3.16047900390625,0.027070962277054786,-0.06297675372101366,0.05480217856112867
1761476495541513200,3.17051318359375,-0.00793897630572319,-0.03595942132733762,0.06518091270178555
1761476495551546000,3.180546142578125,-0.04322305565476417,0.011287409950792788,0.08227350180000066
1761476495561579300,3.190579345703125,-0.055684477820992465,0.04384513307586312,0.09832629952169954
1761476495571612200,3.200612060546875,-0.08780804731249808,0.056231078853085634,0.11598412128724157
1761476495581645300,3.210645263671875,-0.11181085419058799,0.055051294483989474,0.13969718797113745
1761476495591678200,3.22067822265625,-0.10877835462689399,0.04917063894756138,0.16165453356150536
1761476495601711400,3.23071142578125,-0.08734627501964569,0.031268340901657934,0.17919599893838167
1761476495611744300,3.240744140625,-0.03419979124367237,0.03978884342238307,0.19392843477651475
1761476495621777200,3.250777099609375,-0.007178513327240944,0.07119995379559696,0.2296982152832672
1761476495631810300,3.260810302734375,-0.006786883661150932,0.06645743544362485,0.24499957358315586
1761476495641843200,3.27084326171875,-0.015734160226583478,0.03918992768116295,0.25278584354519845
1761476495651876000,3.2808759765625,-0.048966567742824554,0.025940058550983667,0.26759631305560466
1761476495661909000,3.290908935546875,-0.014466916769742965,0.004473053760826588,0.2698532251369208
1761476495671946800,3.30094677734375,0.03787877201735973,-0.016727116786688565,0.27704518246762455
1761476495681979600,3.310979736328125,0.05043254864215851,-0.005655541543662547,0.2907661397082731
1761476495692012800,3.3210126953125,0.11419628802239894,0.012253113177791238,0.29548882084861394
1761476495702045700,3.331045654296875,0.18214461961090564,0.027082725780084728,0.2798101171363145
1761476495712078800,3.341078857421875,0.18526479745805263,0.025207506492733955,0.2614819583611563
1761476495722111700,3.35111181640625,0.15107085143327711,0.04636003850623965,0.28495073142778127
1761476495732145000,3.361144775390625,0.14240356085300446,0.04214760844297707,0.3134133307263255
1761476495742177800,3.371177734375,0.1584001714080572,0.012723507168516515,0.30297734997309744
1761476495752211000,3.3812109375,0.1617939054995775,-0.0181355953451246,0.2884276502907276
1761476495762243800,3.391243896484375,0.10416706143915652,-0.04723170677423477,0.2795886564053595
1761476495772276700,3.40127685546875,0.030440730971097944,-0.032577450738847255,0.3056635203171521
1761476495782310000,3.411309814453125,0.0342857159614563,0.005719254429638386,0.31518092492073774
1761476495792342800,3.4213427734375,0.05613222158849239,0.02833557538539171,0.30492585369236763
1761476495802376700,3.431376708984375,0.07576631186306476,0.015246668970584869,0.30179687148425727
1761476495812409600,3.44140966796875,0.04748480475246906,-0.003899272460862994,0.30381997480969875
1761476495822442800,3.45144287109375,0.02646598212122917,0.01904978758059442,0.3055408803181723
1761476495832475600,3.4614755859375,0.015398060140013693,0.020482085406035185,0.30938345415573565
1761476495842508800,3.4715087890625,-0.04443593857586384,0.047674262909963724,0.3064261021874845
1761476495852541700,3.481541748046875,-0.03910100728869438,0.046034459813684224,0.29022790464572606
1761476495862574800,3.491574951171875,-0.0927092633575201,0.05172090795226395,0.294368036657758
1761476495872607700,3.501607666015625,-0.08737257850468158,0.06765614370889961,0.3258544042242691
1761476495882641000,3.511640869140625,-0.032874680119752885,0.042078854055702684,0.31829529408160595
1761476495892673800,3.521673828125,0.029547581523656843,-0.00022847499363124369,0.26379790715333074
1761476495902707000,3.53170703125,0.045861587464809415,0.011228884696587919,0.24891104793846605
1761476495912739800,3.54173974609375,0.05626432353556156,0.05335165095925331,0.26579452433064576
1761476495922772700,3.551772705078125,0.0601882189810276,0.10167626753672956,0.2729857510089874
1761476495932806700,3.561806640625,0.06427285794615745,0.14025814632214606,0.2592855442954227
1761476495942839800,3.57183984375,0.11857494149804114,0.11610818605832755,0.1956097754595801
1761476495952872700,3.581872802734375,0.16901976509988306,0.08282762855142355,0.1537128538420424
1761476495962905600,3.591905517578125,0.17589608061015605,0.03552512156330049,0.14277984681949019
1761476495972938800,3.601938720703125,0.1496077931433916,-0.008719970615580677,0.1275054495917633
1761476495982971600,3.6119716796875,0.12726619747579096,-0.03228752788156271,0.1428183156663552
1761476495993004800,3.6220048828125,0.09931611427664756,-0.036289018607884645,0.13453878229465335
1761476496003037700,3.63203759765625,0.11251987924277781,-0.01697188532799482,0.1047940707636997
1761476496013070800,3.64207080078125,0.1273123747050762,0.002926408840715885,0.06682641488648951
1761476496023103700,3.652103759765625,0.1531499957948923,0.013405059691891073,0.04081164713148028
1761476496033137000,3.662136962890625,0.17298633064329624,0.012522577768936753,0.0472501192137599
1761476496043169800,3.672169677734375,0.17262743420302867,-0.01655899367816746,0.04062149485424161
1761476496053202700,3.68220263671875,0.1466097803711891,-0.03145465725399554,0.015015271367505191
1761476496063236600,3.692236572265625,0.12346622067093849,-0.049610710865259165,0.009020926323533058
1761476496073269800,3.702269775390625,0.12986030562222003,-0.022437384192273018,0.0017568536046892404
1761476496083302700,3.712302734375,0.11932722117006778,-0.017808263086900113,-0.008075242971256376
1761476496093335600,3.72233544921875,0.10150690231919288,-0.0215880008213222,-0.019970044230669736
1761476496103368700,3.73236865234375,0.06266834535896777,-0.028388328485935924,-0.021716303376108408
1761476496113401600,3.742401611328125,0.0150666362285614,-0.024467501780390737,-0.040705921734683216
1761476496123434800,3.752434814453125,-0.01007306572496891,0.0044049569606781,-0.0594280482634902
1761476496133467600,3.762467529296875,-0.045834114935994145,0.019999270325154066,-0.05890376866105944
1761476496143500800,3.772500732421875,-0.09355097487866879,0.04288564039394259,-0.03916950594764203
1761476496153533700,3.78253369140625,-0.10566051486730575,0.04824745968803763,-0.02585205147396773
1761476496163566800,3.79256689453125,-0.10466390504539012,0.05686192410252988,-0.0114015743823722
1761476496173599700,3.802599853515625,-0.09383739060461521,0.04873743516206741,0.008152399860695004
1761476496183634000,3.812634033203125,-0.1032096145838499,0.02262479652315378,0.010046579576842487
1761476496193666800,3.822666748046875,-0.1864811875104904,0.006379033512622118,0.013945413646288216
1761476496203699700,3.83269970703125,-0.2438064182758331,-0.00013940847069025038,0.033687530872598286
1761476496213732600,3.842732666015625,-0.21963585361540316,-0.0016295739632099866,0.062431358265317975
1761476496223765800,3.852765869140625,-0.16276362731456756,-0.016382102741301058,0.07805617636591196
1761476496233798700,3.862798583984375,-0.08747077818214893,-0.02074723914824426,0.07347147892415523
1761476496243831600,3.87283154296875,-0.009676175361871719,0.00848309311978519,0.06903645561877637
1761476496253864700,3.88286474609375,0.04317220225036144,0.042637218590825796,0.06022683395836502
1761476496263897600,3.892897705078125,0.10489128406047821,0.05552833741120994,0.04233407092578709
1761476496273930800,3.9029306640625,0.10126374121308326,0.02210807917267084,0.02413706424962729
1761476496283963600,3.912963623046875,0.08991992489993572,0.0053068742364645,0.028048538604937494
1761476496293996800,3.922996826171875,0.11340367633998394,-0.023155104007571935,0.05295676989015192
1761476496304029700,3.93302978515625,0.15233926393389702,-0.09228687322698532,0.06659640552289783
1761476496314064000,3.94306396484375,0.23324235416352748,-0.16823504446297882,0.044578708047419785
1761476496324096800,3.9530966796875,0.2733516617119312,-0.24111527949571607,0.00303735840190202
1761476496334130000,3.9631298828125,0.29706045407950876,-0.2679224032048136,-0.023857735851593315
1761476496344162800,3.973162841796875,0.24044015671312807,-0.2458815440494567,-0.04620061016082763
1761476496354195700,3.98319580078125,0.164019764855504,-0.2000369807846844,-0.0713055330619216
1761476496364228600,3.993228515625,0.05772679730355739,-0.17021387025527654,-0.10391622848324478
1761476496374261800,4.00326171875,-0.04582593162953853,-0.13341697519049048,-0.12958941625896842
1761476496384294700,4.013294677734375,-0.07761340103447437,-0.11994023850187659,-0.16175982056688518
1761476496394324700,4.02332470703125,-0.03864391117095947,-0.14742416549399495,-0.21110925014745444
1761476496404357600,4.033357666015625,-0.005917699611186981,-0.18395861023031174,-0.2416088716989383
1761476496414390800,4.043390869140625,-0.015182371562719343,-0.2153257353313267,-0.23578553584031758
1761476496424423700,4.053423583984375,-0.03247778975665569,-0.24021694241650401,-0.21709398711286484
1761476496434456800,4.063456787109375,-0.07927285867929458,-0.2643107885789126,-0.21736334210615604
1761476496444489700,4.07348974609375,-0.1124251866966486,-0.2544720430664718,-0.25006281178947537
1761476496454523000,4.08352294921875,-0.14214637122154236,-0.21955277844183146,-0.2694656505914405
1761476496464555800,4.0935556640625,-0.18680559715926645,-0.15900865869522093,-0.25708763239234683
1761476496474588700,4.103588623046875,-0.24597207187712192,-0.0855797037385404,-0.2398306830452755
1761476496484621800,4.113621826171875,-0.2843804207265377,-0.07031571830697357,-0.23334402443971483
1761476496494654700,4.12365478515625,-0.28643384612500666,-0.0742415134485811,-0.24311321184728293
1761476496504688600,4.133688720703125,-0.26529402746260167,-0.09295315511599182,-0.24967231463454662
1761476496514721500,4.143721435546875,-0.2525514502674341,-0.10332608057036995,-0.2636271171636879
1761476496524754700,4.153754638671875,-0.18109832542836665,-0.07563311393745244,-0.25719229834321883
1761476496534787600,4.16378759765625,-0.09094985246956348,-0.05757438322082162,-0.26582689223028716
1761476496544820700,4.17382080078125,-0.03483165940642357,-0.04654547807574272,-0.2373996930386871
1761476496554853600,4.183853515625,0.006546060642600059,-0.024151056242361663,-0.21072478087451307
1761476496564886800,4.19388671875,0.02221826154887676,0.0029588498055934903,-0.19321330877710133
1761476496574919700,4.203919677734375,0.044236032089591024,0.03302994374670088,-0.18456549008227885
1761476496584952800,4.213952880859375,0.09727496383786201,0.04787716507092118,-0.2014357051340863
1761476496594985700,4.22398583984375,0.13261340372264385,0.045278380749374625,-0.21212401668056843
1761476496605019000,4.234018798828125,0.143320091176033,0.03926818054914474,-0.20350370704717932
1761476496615051800,4.2440517578125,0.15711188516318797,0.012743600108474492,-0.20095398603174836
1761476496625084700,4.254084716796875,0.15232348184287547,-0.01521298589669168,-0.18964626394528894
1761476496635118800,4.264118896484375,0.1124509056597948,-0.02738580037988722,-0.14696717897411435
1761476496645151700,4.27415185546875,0.07962649442255497,-0.04078136159107089,-0.1343237513044849
1761476496655184600,4.2841845703125,0.10628478424549102,-0.030198227452114222,-0.14278167345039547
1761476496665217500,4.294217529296875,0.1285106445789337,-0.0005911708261817693,-0.15238861950095742
1761476496675244800,4.304244873046875,0.14182020800709724,0.03230798614770174,-0.1482130508493632
1761476496685277700,4.314277587890625,0.15268588541448117,0.04204743600413203,-0.13276278559807686
1761476496695310800,4.324310791015625,0.1148778405457735,0.0322867972292006,-0.14563856071885675
1761476496705343700,4.33434375,0.07089432191252708,0.00830919785760343,-0.15003127925246953
1761476496715377000,4.344376953125,0.013537526965141296,-0.01689282874241471,-0.12775387139488012
1761476496725409800,4.354409912109375,-0.0032820904105901718,-0.043179654904454946,-0.10968772455677389
1761476496735442700,4.364442626953125,0.024848610052466392,-0.0590979395262897,-0.10763988864887505
1761476496745475800,4.374475830078125,0.05038812497854232,-0.0924203634135425,-0.10509144627507776
1761476496755508700,4.3845087890625,0.05951192715466022,-0.11681275413110852,-0.09486991199012845
1761476496765542000,4.3945419921875,0.005696750336885452,-0.11806048916988074,-0.09814696089942007
1761476496775575600,4.404575439453125,-0.019794249272346496,-0.08437113166637718,-0.1056027567980811
1761476496785608700,4.414608642578125,-0.03385784593820572,-0.04034611197896301,-0.11661847366802394
1761476496795641600,4.4246416015625,-0.027413492104411123,-0.009679244101792573,-0.12161430919393897
1761476496805674800,4.4346748046875,0.004719429737329483,0.017100626274198293,-0.12291560105085372
1761476496815707600,4.444707763671875,0.05658639509677887,0.0315725114800036,-0.12185407276656478
1761476496825740800,4.45474072265625,0.0745318016320467,0.028964009482041,-0.1277881755232811
1761476496835773700,4.464773681640625,0.0335620778620243,0.023676570598408577,-0.11974851532205938
1761476496845806800,4.474806884765625,-0.007618658310174942,0.04410108059830963,-0.11592669201157986
1761476496855839700,4.48483984375,-0.004555763608217239,0.05806728130429983,-0.10424155144747346
1761476496865873000,4.494872802734375,0.009991232660412788,0.04135280480347574,-0.10057331126350909
1761476496875905800,4.50490576171875,0.03955401175320148,-0.02701207169666886,-0.11863372248057276
1761476496885938700,4.514938720703125,0.02205751802921295,-0.08844488391131163,-0.11057016994711011
1761476496895971800,4.524971923828125,-0.022039982372522353,-0.10755816518217325,-0.08465488051120192
1761476496906004700,4.535004638671875,-0.03658931672871112,-0.08748604881651699,-0.05769282196871936
1761476496916038700,4.54503857421875,-0.04535831411778927,-0.05003602360524237,-0.027263635304942725
1761476496926071600,4.555071533203125,-0.0002484218031167984,-0.04829195641689002,-0.0035355171823874113
1761476496936104700,4.565104736328125,0.09884791224300861,-0.0320431246664375,-0.013242306878231466
1761476496946137600,4.5751376953125,0.21151099934875964,-0.04216638620868325,-0.026400917528383434
1761476496956170800,4.585170654296875,0.2880909656822681,-0.04559942939728498,-0.047129817302338776
1761476496966203600,4.59520361328125,0.29557167682647706,-0.061000339081510896,-0.039892048068530854
1761476496976236800,4.60523681640625,0.267936066403985,-0.08217471760064363,-0.060384618335962294
1761476496986269700,4.615269775390625,0.2030722568273544,-0.09677928927540778,-0.03747062960788607
1761476496996302800,4.625302734375,0.07629764226078986,-0.09004545097574591,-0.033520686405710876
1761476497006335700,4.635335693359375,0.012580664631724357,-0.05860628355182707,-0.0360402680112049
1761476497016368600,4.64536865234375,-0.03797112647593021,-0.04146306024491787,-0.0446395713891834
1761476497026401800,4.65540185546875,-0.03145078479647636,-0.01916143126152456,-0.049721477763354775
1761476497036434700,4.6654345703125,-0.0032809213668107983,0.000057721536606550215,-0.049544732956960796
1761476497046467800,4.6754677734375,-0.017761282140016554,-0.014954042699560521,-0.04669595592971891
1761476497056501800,4.685501708984375,-0.03804828336536884,-0.044284985797852276,-0.04378532918002456
1761476497066534700,4.69553466796875,-0.026762334719300267,-0.052652416648715734,-0.0339569589311257
1761476497076567600,4.705567626953125,-0.00006079027652740478,-0.04556662310622632,-0.03536609507668763
1761476497086600700,4.7156005859375,-0.02400339139997959,-0.054355421174317596,-0.054079636440239845
1761476497096633600,4.725633544921875,-0.056440849146246905,-0.0511406969115138,-0.07815696985926479
1761476497106666800,4.735666748046875,-0.12429624175429344,-0.02352934414744377,-0.0752832410538569
1761476497116699600,4.74569970703125,-0.1440349614471197,0.019338906720280647,-0.06541559824049473
1761476497126732800,4.75573291015625,-0.10726678102016449,0.06380735932625829,-0.06756236447822302
1761476497136765700,4.765765625,-0.09495207384824753,0.09023410541564225,-0.05556205701772123
1761476497146798800,4.775798828125,-0.11112345644831657,0.08550532332807778,-0.01331639502774924
1761476497156831700,4.785831787109375,-0.14113924000561237,0.05543496003933251,0.0035890374679118393
1761476497166864600,4.79586474609375,-0.2161012497484684,0.009677709731832147,-0.009652429160103202
1761476497176897800,4.805897705078125,-0.2307312481254339,0.0022937369603663682,-0.007378164085187018
1761476497186930700,4.8159306640625,-0.2168810019493103,-0.03605710954815149,0.03532631105557084
1761476497196964900,4.82596484375,-0.20089958896338939,-0.09288301248922944,0.059356261668913064
1761476497206997800,4.835997802734375,-0.07448971605598927,-0.07887377635911107,0.052031763999722896
1761476497217030700,4.84603076171875,0.057365562775731085,0.004541881213337182,0.06670775694288313
1761476497227063600,4.8560634765625,0.11681903774142265,0.04513765710443258,0.05869809002112597
1761476497237096700,4.8660966796875,0.1320481710553169,0.030606077600643038,0.0509192361805588
1761476497247129600,4.876129638671875,0.14341244563460348,-0.037489480438828465,0.011600677151046693
1761476497257162800,4.886162841796875,0.1525666429489851,-0.17120127385742961,-0.011574117937684059
1761476497267195600,4.896195556640625,0.12657763068974018,-0.2316458056870848,0.07845116703286767
1761476497277228800,4.906228759765625,0.22204466832280156,-0.19596037899553775,0.14373707447908818
1761476497287261700,4.91626171875,0.2343260577470064,-0.12779928143918515,0.13673881308957933
1761476497297294800,4.926294921875,0.26333587913215156,-0.12539061286225914,0.006844020675867796
1761476497307327700,4.93632763671875,-0.000886135184764862,-0.1457334359280765,-0.10866912209875881
1761476497317360600,4.946360595703125,0.12339841613173484,-0.03581029518023133,0.28970724177248774
1761476497327393800,4.956393798828125,0.025700258445739744,0.10702500815354286,0.21764073427543043
1761476497337428000,4.966427978515625,-0.20481354753673076,0.14413374564647674,0.17222035123948007
1761476497347460900,4.9764609375,-0.17105156318843365,0.197878049185127,0.20089133259169756
1761476497357493800,4.98649365234375,-0.1335655898809433,0.21744038939774035,0.17748802597671745
1761476497367526700,4.996526611328125,-0.1978536453962326,0.10177994710691272,0.16574403136484325
1761476497377559600,5.0065595703125,-0.14657704714536665,0.03106010497845709,0.10278400958292186
1761476497387592700,5.0165927734375,-0.03531856614053249,0.006166048349067569,0.06666344287712127
1761476497397625600,5.02662548828125,0.01690612661540508,-0.10050393582172691,0.07271759181693196
1761476497407658800,5.03665869140625,0.06760229462981224,-0.1945078420996666,0.12321641062833368
1761476497417691600,5.046691650390625,0.1657026033759117,-0.2555353614490479,0.15150321496855468
1761476497427724800,5.056724853515625,0.2484030984163284,-0.3088551559653133,0.10799648353420198
1761476497437757700,5.0667578125,0.16221709934771059,-0.29622948314808306,0.0528628445290029
1761476497447790800,5.076790771484375,-0.0672252780109644,-0.16934958157613872,0.0005663651784881949
1761476497457823700,5.08682373046875,-0.31089374912083145,-0.008241174122691155,0.0912955971673131
1761476497467856600,5.096856689453125,-0.40328035639524457,0.19152875322364268,0.27982546083591875
1761476497477890800,5.106890869140625,-0.3519230941236019,0.2680449336059391,0.2877368184823543
1761476497487924000,5.116924072265625,-0.17564356715381144,0.25941717131845654,0.20221907406412065
1761476497497956900,5.126956787109375,-0.05733341407179832,0.18997728599794209,0.13926171916332095
1761476497507989800,5.13698974609375,0.021544892331957815,0.10964973063394427,0.13060571716204286
1761476497518022700,5.147022705078125,0.05613865132927894,0.03292714095935225,0.17821082382593303
1761476497528055600,5.1570556640625,0.012103110247850418,-0.06133000942729413,0.18873576150424778
1761476497538088700,5.167088623046875,-0.05318506222069263,-0.14894231497198343,0.17615418355707077
1761476497548121600,5.17712158203125,-0.11539280433058738,-0.15561623977795241,0.18914792250171303
1761476497558154800,5.18715478515625,0.024725275933742522,-0.12027158934809266,0.22144487579874694
1761476497568187600,5.197187744140625,0.21835691972076893,-0.1558542863175273,0.2382443271692842
1761476497578220800,5.207220703125,0.3404547746479511,-0.17245909189879893,0.15609832420647143
1761476497588253700,5.217253662109375,0.4292594317823648,-0.12132307116240262,0.11343114886879921
1761476497598286600,5.22728662109375,0.37303017956018447,-0.08663323137946426,0.1048487966256216
1761476497608319700,5.23731982421875,0.010587444987893104,-0.04226341684237122,0.11913984537180512
1761476497618354000,5.24735400390625,-0.231898538339138,0.09441730938442051,0.1948239223115146
1761476497628386800,5.25738671875,-0.12263853767514228,0.21111878516077995,0.2671872207980603
1761476497638419700,5.267419677734375,0.09086100514233111,0.2681007554464042,0.2404652911543846
1761476497648452900,5.277452880859375,0.2982131312459707,0.27823950681872667,0.12994319813270122
1761476497658485800,5.28748583984375,0.500450106292963,0.23106975936479865,-0.013765965426154434
1761476497668518700,5.2975185546875,0.5752057798087596,0.159249554779008,-0.10837835899125783
1761476497678550300,5.30755029296875,0.452017791557312,0.08289353339448571,-0.11981160715352743
1761476497688583200,5.317583251953125,0.2654085937529802,0.09325491454154253,-0.05445555708054453
1761476497698616300,5.3276162109375,0.08332944059371948,0.09635375733971595,0.040040352231729776
1761476497708649200,5.337649169921875,-0.05759644892215728,0.04038695544600487,0.1064676665317267
1761476497718682400,5.347682373046875,-0.08595745100975036,-0.0031719080343842504,0.15342210900085046
1761476497728715300,5.35771533203125,-0.05022504337131977,-0.07275865447968244,0.1241066192000173
1761476497738748400,5.36774853515625,-0.013351649004220962,-0.1471308816358447,0.06264562207050621
1761476497748781300,5.37778125,-0.0029682021558284756,-0.0975536346487701,0.0582824584249407
1761476497758814200,5.387814208984375,0.03305062120854854,0.030221462197229265,0.09433715682029724
1761476497768848100,5.39784814453125,0.10992752466201781,0.0608896452486515,0.10090718286037445
1761476497778881300,5.40788134765625,0.17238485761880873,0.018492811284959314,0.01397204592488706
1761476497788914200,5.4179140625,0.11916238599717616,-0.025382570798695086,-0.04307940940037369
1761476497798947300,5.427947265625,-0.014534136787056923,-0.03699292909353971,-0.007693130052182823
1761476497808980200,5.437980224609375,-0.08152735960781574,-0.07016454633325338,0.06946737611563876
1761476497819013400,5.448013427734375,-0.11291209343075752,-0.14272658226229248,0.09299023572336881
1761476497829046300,5.45804638671875,-0.056204702302813526,-0.18825959535986184,0.07077201070711016
1761476497839079200,5.4680791015625,0.03802314892411232,-0.18619703680686653,0.019489969096146524
1761476497849112300,5.4781123046875,0.1000683939486742,-0.12675905167125165,-0.07791627470487729
1761476497859145200,5.488145263671875,0.0768365714430809,-0.13040705278478562,-0.08860560916466638
1761476497869178400,5.498178466796875,0.015042086309194564,-0.2908994472317397,-0.009017583588976412
1761476497879211300,5.508211181640625,-0.12454115642607211,-0.3830553875554353,0.039488947160355746
1761476497889244400,5.518244384765625,-0.210788530293107,-0.349414983760193,0.0865737380108796
1761476497899277300,5.52827734375,-0.15037117873132227,-0.2288592802410945,0.15626370736863462
1761476497909310500,5.538310546875,0.03248012784421444,-0.09058923899624496,0.1947787679955363
1761476497919344000,5.54834423828125,0.2329758121818304,-0.02131977833919227,0.06068252357030287
1761476497929377300,5.558377197265625,0.3855570681780576,-0.003709302846714854,-0.10457737753940746
1761476497939410200,5.56841015625,0.3844493991971016,-0.02535761902052909,-0.18131781339794395
1761476497949443300,5.578443359375,0.1921621557563543,-0.06584840016718954,-0.1933541785525158
1761476497959476200,5.588476318359375,-0.05511573802232742,-0.07158551904708146,-0.10490992482886649
1761476497969509400,5.59850927734375,-0.14202946684360504,-0.07049900245200842,-0.04360437398939393
1761476497979542300,5.608542236328125,-0.053714639052748675,-0.03357325684316456,-0.019250566283124496
1761476497989575200,5.6185751953125,0.11863748534023762,-0.06661178575512021,-0.018947583014867268
1761476497999608300,5.6286083984375,0.2741442733943462,-0.15197886965628712,-0.08577151824990287
1761476498009641200,5.63864111328125,0.3498848662942648,-0.1877381287690252,-0.18615460417093707
1761476498019674400,5.64867431640625,0.2450496963351965,-0.18877591085154563,-0.18588223523665218
1761476498029707300,5.658707275390625,0.033873043507337566,-0.11331822654623537,-0.16310486023398116
1761476498039740400,5.668740478515625,-0.16812018591165542,-0.00563570433203131,-0.15280829708459787
1761476498049773300,5.678773193359375,-0.2730933030366897,0.08028554285317659,-0.18673852327242493
1761476498059806500,5.688806396484375,-0.2972264582961798,0.1288002386426553,-0.1699486251815222
1761476498069840100,5.698840087890625,-0.2944195841819048,0.09659874507673084,-0.1640648461062461
1761476498079873300,5.708873291015625,-0.25916005475223064,0.03846267285253852,-0.13163024703734555
1761476498089906200,5.71890625,-0.14761340445578097,-0.02918908694218844,-0.1031704516172409
1761476498099939300,5.728939208984375,0.0025058453410863875,-0.07560629899576306,-0.10342281894311309
1761476498109972200,5.73897216796875,0.09272913710176944,-0.0761028138084337,-0.14759380470616743
1761476498120005000,5.749005126953125,0.08293722640573978,-0.06857914030533284,-0.19058679619841276
1761476498130038300,5.759038330078125,-0.01027472577691078,-0.016378559077344833,-0.18392978599462656
1761476498140071200,5.7690712890625,-0.09277531433105468,0.05049834388736635,-0.16514959086934103
1761476498150104300,5.779104248046875,-0.18290566711127756,0.06655380849018692,-0.10632844072412699
1761476498160137200,5.78913720703125,-0.16794775195419787,0.0714109661977738,-0.039612153414916244
1761476498170170400,5.79917041015625,-0.02034779150187969,0.06316690599825232,-0.003681067699496634
1761476498180203300,5.809203369140625,0.1949690298706293,0.010646737427078187,-0.005540788023616187
1761476498190236400,5.819236328125,0.38565117620229716,-0.10662515864837914,-0.02819108888078481
1761476498200269300,5.829269287109375,0.4355518099248409,-0.19770353286843745,-0.10969930539671331
1761476498210302500,5.839302490234375,0.32473288938105105,-0.20362258418649434,-0.13320752455773763
1761476498220336000,5.849336181640625,0.14426058689653873,-0.12389889473346992,-0.07005208523499314
1761476498230369300,5.859369384765625,0.017276713493466378,-0.03195741914436221,-0.02513196617164649
1761476498240402200,5.869402099609375,-0.039620062726736065,0.021564272885862736,-0.02874018326406367
1761476498250435300,5.879435302734375,-0.008168693408370018,0.0613662497844547,-0.014661553425854072
1761476498260468200,5.88946826171875,-0.032015432941913606,0.055929867416806514,-0.01736805417188443
1761476498270501000,5.899501220703125,-0.04258358870744705,0.055674212155304846,-0.04225754879058804
1761476498280534300,5.9095341796875,-0.028005028256773947,0.04500438611358404,-0.057529831693042065
1761476498290567200,5.919567138671875,-0.036570612028241155,0.02187861779835075,-0.049764211793383584
1761476498300600300,5.929600341796875,-0.030694413471221923,-0.0018324761241674422,-0.03531763912534807
1761476498310633200,5.93963330078125,-0.053471477946639055,-0.024887188497185707,-0.02369188461526064
1761476498320666400,5.949666259765625,-0.047014849153161044,-0.016499080184474588,-0.008671571746456903
1761476498330699300,5.95969921875,-0.008515314888954162,-0.03398512557968497,-0.016512099496251903
1761476498340732400,5.969732421875,-0.03630465456843376,-0.0788882067432627,-0.022642549092264378
1761476498350765300,5.979765380859375,-0.08627718448340892,-0.06457735731806606,0.007734925650584045
1761476498360798500,5.989798583984375,-0.12285305720865726,0.003332030499540269,0.02943115435304353
1761476498370831400,5.999831298828125,-0.1634153692215681,0.07230393298212438,0.02146546813690802
1761476498380865300,6.009865234375,-0.11161270126998424,0.11965999678838997,0.023347108031890818
1761476498390898200,6.019898193359375,-0.016635492980480192,0.08537570559903979,-0.02113591880542226
1761476498400931300,6.029931396484375,0.13399813607931135,0.030582185268402097,-0.05222664268442895
1761476498410964200,6.039964111328125,0.26852701803445816,-0.056697344657965,-0.01828814185860101
1761476498420997000,6.0499970703125,0.30904081473052497,-0.1431066310884431,-0.05847090280228294
1761476498431030300,6.0600302734375,0.2598877845048904,-0.1497225420968607,-0.06347902698761318
1761476498441063200,6.070063232421875,0.1482785903662443,-0.1290939243596047,-0.015115345624939071
1761476498451096300,6.080096435546875,0.032995676150918,-0.12784776022341102,0.016970252776623236
1761476498461129200,6.090129150390625,-0.0029500819772481915,-0.10726108193174004,0.031550032503425605
1761476498471162400,6.100162353515625,0.04052840974330902,-0.10578881742209195,0.01578764740442275
1761476498481195300,6.1101953125,0.05296703555583954,-0.13215722092036158,0.015973494540946556
1761476498491228400,6.120228515625,0.05842763904929161,-0.15673841220829635,0.019887553578987718
1761476498501261300,6.13026123046875,-0.03349953401982784,-0.12513546905741094,-0.004039380759518826
1761476498511294500,6.14029443359375,-0.09950900650024413,-0.056300600425340235,-0.0019442105658206855
1761476498521327400,6.150327392578125,-0.09494564410746097,-0.03853478824067861,0.01769686828443082
1761476498531360300,6.1603603515625,-0.07300444593429566,-0.04854260670971125,0.0015416981752903666
1761476498541393400,6.170393310546875,-0.06564531534314155,-0.07860453096367419,-0.004365073616505833
1761476498551427300,6.18042724609375,-0.02947802341878414,-0.0858477435575798,0.015806040435994508
1761476498561460200,6.190460205078125,0.017808628413081166,-0.10485504370331764,0.0013809809134458192
1761476498571493000,6.2004931640625,0.022602292430400846,-0.10276260146871209,-0.03488001945964061
1761476498581526300,6.2105263671875,0.015716040048003196,-0.07387998665980994,-0.0075781915857573035
1761476498591559200,6.22055908203125,0.046669981238245964,-0.05022522603441029,0.006970788860693573
1761476498601592300,6.23059228515625,0.030022797819972035,-0.060378115529939526,0.009159818770992569
1761476498611625200,6.240625244140625,-0.009186930540204048,-0.09237904502246529,0.0032763730558566747
1761476498621658400,6.250658447265625,-0.0012064531803131103,-0.05912869999073445,-0.00386523776052054
1761476498631691300,6.260691162109375,-0.015914777490496634,-0.03239741799682379,0.04937576959822327
1761476498641724400,6.270724365234375,0.00010229133069515228,-0.026716084424778817,0.045053773646685294
1761476498651757300,6.28075732421875,0.058630468145012854,-0.009997004814073443,0.027677444836799986
1761476498661790200,6.290790283203125,0.13284078273773192,0.001254639703594148,0.03980707776539493
1761476498671823600,6.30082373046875,0.16748773322701452,-0.009937931570596992,0.02031789868711494
1761476498681856800,6.310856689453125,0.12589140199124813,-0.03215696030445397,-0.019571902625402433
1761476498691889700,6.3208896484375,0.017494740158319474,-0.009533113629370928,-0.007909197655390016
1761476498701922800,6.3309228515625,-0.09574468553066254,-0.012014335985854267,0.06541326015293598
1761476498711955700,6.340955810546875,-0.15676058750748634,-0.05158266852535307,0.08920434224279597
1761476498721988600,6.350988525390625,-0.1344026252269745,-0.09308354003001004,0.07689731605383567
1761476498732022800,6.361022705078125,-0.06618599809110164,-0.11682798823285848,0.07014922546653542
1761476498742056000,6.371055908203125,-0.0007709843724966049,-0.10547635393943637,0.04299938470041379
1761476498752088800,6.3810888671875,-0.008348726150393485,-0.039150435920991,0.030195533171528947
1761476498762121700,6.391121826171875,0.0005453589230775832,0.0002658478619530797,0.07529948893575929
1761476498772155000,6.40115478515625,0.014976619857549667,0.014834434907883404,0.06113677927698009
1761476498782187800,6.411187744140625,0.017118892583251,0.016957783737406133,0.05359526872308924
1761476498792221000,6.421220947265625,0.010553542718291281,0.030911198027059435,0.08315504300803878
1761476498802253800,6.43125390625,0.053197921702265734,0.03741827836614102,0.06993084717523307
1761476498812287000,6.441286865234375,0.11947159807682037,0.015986892878636718,0.05196723826299421
1761476498822319900,6.45131982421875,0.18738018217682836,0.016313531017117203,0.032579998888960106
1761476498832352800,6.461352783203125,0.20710019716918468,0.016807415481284258,0.023125046796025707
1761476498842385700,6.4713857421875,0.16128069528043268,-0.0066375017857179044,0.03206874316488392
1761476498852418800,6.481418701171875,0.09181085321307182,-0.0416590942736715,0.03999242143677547
1761476498862451700,6.49145166015625,-0.03572539337575435,-0.06875394888296724,0.051830880265915764
1761476498872484600,6.501484619140625,-0.15260405234992502,-0.09191223122831434,0.07000289863129146
1761476498882517800,6.511517822265625,-0.17380115415751934,-0.060868054471351206,0.07881932449182495
1761476498892550700,6.521550537109375,-0.10799567981660366,0.02144292979482561,0.07130291184657253
1761476498902583800,6.531583740234375,-0.0024678514182567596,0.08317271566204726,0.01800625161072239
1761476498912616700,6.54161669921875,0.020647066709399222,0.10705167696475983,0.010041748138098045
1761476498922649900,6.55164990234375,0.02849894925355911,0.1122638951877132,0.052127899584267286
1761476498932682800,6.561682861328125,0.007555529946088791,0.09949618355128914,0.05949450109582394
1761476498942716000,6.5717158203125,-0.04041501249670982,0.057577269297651945,0.05962210039771162
1761476498952748800,6.581748779296875,-0.10176233838498591,0.02113959946669638,0.06538820791007019
1761476498962782000,6.591781982421875,-0.12333178063631058,0.04869085607398301,0.09482452021213247
1761476498972814800,6.60181494140625,-0.08340075226426125,0.09004756986759603,0.11383511742665432
1761476498982848800,6.611848876953125,-0.05092296250760555,0.07271499800104647,0.1048025919968728
1761476498992881700,6.621881591796875,-0.06536357579231261,0.03226020148321986,0.10821091173617169
1761476499002914800,6.631914794921875,-0.06280570800304412,0.050339134737662966,0.1441199363168329
1761476499012947700,6.64194775390625,-0.022454992914199827,0.0548759744497016,0.19553561424482613
1761476499022980600,6.651980712890625,0.04339548961222171,0.027075419256463645,0.23792333332030102
1761476499033013800,6.662013671875,0.15611059916615486,0.008687712313793599,0.24502532907892016
1761476499043046700,6.672046630859375,0.23859482110738753,0.003830371943116188,0.23452830232083796
1761476499053079800,6.682079833984375,0.23214579109847544,0.0072141326298937195,0.2370623143104836
1761476499063112700,6.69211279296875,0.1433341197013855,-0.01639331825505942,0.26256127803046253
1761476499073145900,6.702145751953125,0.05610533358156681,0.007384265032410621,0.30953005955219265
1761476499083178800,6.7121787109375,0.03867255274355411,0.017532880211621523,0.32936310646496714
1761476499093212000,6.7222119140625,0.04543137935400009,0.013117767183110116,0.31002211738545443
1761476499103244800,6.732244873046875,0.1162152266293764,0.004447334797680377,0.29911026274878527
1761476499113277700,6.742277587890625,0.18254910875856875,-0.020013298850506542,0.31373733851630237
1761476499123310800,6.752310791015625,0.24570728346109388,-0.029401085725054142,0.28823048375081267
1761476499133343700,6.76234375,0.23879940376877784,-0.018540121025405823,0.2779119736311026
1761476499143377000,6.772376953125,0.16645722113549707,-0.004967888073064386,0.3055285322932526
1761476499153409800,6.782409912109375,0.18035013740956782,0.00044792643059045074,0.29123945630844683
1761476499163443000,6.79244287109375,0.2275993798404932,-0.02152081733662635,0.25827355424128473
1761476499173475800,6.802475830078125,0.26279344281852246,-0.04584185985103249,0.22641367718726396
1761476499183509000,6.812509033203125,0.264649884340167,-0.06113178344145417,0.2150185325456783
1761476499193542000,6.8225419921875,0.18840543357133865,-0.06995594508387148,0.19793452861271799
1761476499203574800,6.83257470703125,0.06910217779874801,-0.09255757992714643,0.1581287705881521
1761476499213607700,6.842607666015625,-0.008061141380667686,-0.12672284784670917,0.12455777876731007
1761476499223640600,6.852640625,-0.037598786032199856,-0.16688015925530345,0.0803160110566765
1761476499233673700,6.862673828125,0.005256020832061767,-0.16363690301775932,0.007200140637159347
1761476499243706600,6.87270654296875,0.05859481230974197,-0.104308625334315,-0.06775034306468442
1761476499253739800,6.88273974609375,0.05103752879798412,-0.030552484249882397,-0.1231281112903729
1761476499263772700,6.892772705078125,-0.02598492060601711,0.02869045323766768,-0.173199735931959
1761476499273805800,6.902805908203125,-0.06332651700675487,0.08246190051157028,-0.20775909946933388
1761476499283838700,6.912838623046875,-0.10833704060018062,0.07230298313405364,-0.22627965727774424
1761476499293871900,6.922871826171875,-0.11721242097318171,0.018119703656248747,-0.23764882722785696
1761476499303904800,6.93290478515625,-0.1009048447728157,-0.03940101314857602,-0.2574799379118718
1761476499313938000,6.94293798828125,-0.10653963578939438,-0.06815879600141198,-0.26566987503767014
1761476499323970800,6.952970703125,-0.06661211454868317,-0.07447612592205405,-0.2928720990115776
1761476499334003700,6.963003662109375,-0.0439583841919899,-0.03983892964180559,-0.3142126644104719
1761476499344036900,6.973036865234375,-0.05888648873269558,-0.01689955074414611,-0.3252834359358996
1761476499354069800,6.98306982421875,-0.07517711379826068,0.005423669016547501,-0.3654172934036702
1761476499364103000,6.99310302734375,-0.10659399632513522,0.03268861949574202,-0.3838679460473358
1761476499374135800,7.0031357421875,-0.18739362618029118,0.005540281133539974,-0.3575441488757729
1761476499384169000,7.0131689453125,-0.26308453471958637,-0.03140457103457302,-0.3310252675235271
1761476499394201900,7.023201904296875,-0.3092711163550615,-0.07545161989070474,-0.27986776560768484
1761476499404235000,7.033235107421875,-0.23889000466167926,-0.11624028800539672,-0.25940896974569183
1761476499414268000,7.043267822265625,-0.13666940111517906,-0.12174714179337023,-0.271915400097426
1761476499424301800,7.0533017578125,-0.020134441012144087,-0.09855627235267311,-0.2702747932835482
1761476499434334700,7.063334716796875,0.10035480967462063,-0.05925440872963517,-0.29178583814483133
1761476499444368000,7.073367919921875,0.1666232253521681,-0.03401866252310574,-0.3206443048931658
1761476499454400800,7.08340087890625,0.21698680041134355,-0.00013495149128139018,-0.3280971416497603
1761476499464433700,7.09343359375,0.21837270181179044,0.007085720477253198,-0.31205146778859194
1761476499474466800,7.103466796875,0.07567804905772209,-0.0366553311696276,-0.2827099850299768
1761476499484499700,7.113499755859375,-0.08473638478219508,-0.07420048731844872,-0.27387807847252116
1761476499494532900,7.123532958984375,-0.1801940700650215,-0.10492511326484381,-0.2746086395030841
1761476499504565800,7.133565673828125,-0.24745968008637426,-0.11751180577855556,-0.25959840963687747
1761476499514599000,7.143598876953125,-0.2829594480127096,-0.07652794388532638,-0.23942369141327216
1761476499524631800,7.1536318359375,-0.2446872927635908,-0.021192754426039753,-0.23046846900340168
1761476499534665000,7.1636650390625,-0.18598317486047744,0.01550827904883772,-0.23459891987163572
1761476499544697900,7.17369775390625,-0.09494681315124034,0.052644160277023906,-0.24130102959247304
1761476499554731000,7.18373095703125,-0.038084523722529406,0.034864209969155485,-0.23467461545635013
1761476499564764000,7.193763916015625,0.01581073259413242,0.01053739530108869,-0.2580870917584747
1761476499574796800,7.203796875,0.037109541210532185,0.0028717560440301893,-0.24262721842862664
1761476499584829700,7.21382958984375,0.0451128149241209,0.029548750567436218,-0.19709340161345898
1761476499594862600,7.223862548828125,0.06469429822862148,0.04562624433897435,-0.17766431412538514
1761476499604895700,7.233895751953125,0.09830489140748977,0.04715327124316245,-0.19901938297366722
1761476499614928600,7.2439287109375,0.12581015344858168,0.03184763862695545,-0.18570965514872223
1761476499624961800,7.2539619140625,0.08905424798130988,-0.005639722920022905,-0.13870324503034354
1761476499634994700,7.26399462890625,0.0794727651655674,-0.04082658897228539,-0.12441895481850951
1761476499645027800,7.27402783203125,0.11618775410056113,-0.0762397745937109,-0.12970144353238866
1761476499655060700,7.284060791015625,0.11746668799519538,-0.1090046011308208,-0.13723625948401166
1761476499665094000,7.294093994140625,0.1016676458388567,-0.11108089594822376,-0.1394719643805176
1761476499675127300,7.304127197265625,0.07775543985366822,-0.08133585562370717,-0.12885151217216625
1761476499685160200,7.31416015625,0.07339490655660628,-0.050469081260263914,-0.10191933731129392
1761476499695193300,7.324193359375,0.06702478700280189,-0.062177894960902626,-0.09497950984444468
1761476499705226200,7.334226318359375,0.061359600847959515,-0.10402473035901784,-0.08817134593324735
1761476499715259400,7.34425927734375,0.08501111007034778,-0.10083590772245078,-0.09539623741917312
1761476499725292300,7.354292236328125,0.15146715727448462,-0.09046506462730466,-0.08955017827209084
1761476499735325400,7.364325439453125,0.21482056228816507,-0.08127466348838061,-0.08496628454793244
1761476499745358300,7.3743583984375,0.2585913149535656,-0.056260231882333755,-0.08437604530351236
1761476499755391200,7.38439111328125,0.3024918314784765,-0.03306421134248376,-0.0769753405929543
1761476499765424000,7.394424072265625,0.3250748346865177,-0.05297657056916505,-0.06226067787352949
1761476499775457000,7.40445703125,0.1835498102337122,-0.12103767834976314,-0.05712753450246527
1761476499785490200,7.414490234375,-0.012841361394524574,-0.16126356148254126,-0.026402689360361546
1761476499795523000,7.424523193359375,-0.16174305209517478,-0.17609642548784613,-0.008502017015963792
1761476499805556200,7.43455615234375,-0.24349077645540235,-0.15810279589667917,0.016269527478609234
1761476499815589000,7.444589111328125,-0.2502496030658483,-0.15002265755459665,0.013071863948460667
1761476499825622300,7.454622314453125,-0.24257892230749128,-0.17251962644699959,-0.014201616897061467
1761476499835655200,7.4646552734375,-0.20728373704254627,-0.15291965763773768,-0.025467089010681957
1761476499845688300,7.474688232421875,-0.1822194384127855,-0.14771514779720454,-0.04139215043317526
1761476499855721200,7.48472119140625,-0.17156068175435066,-0.14107370048873125,-0.05190134255308657
1761476499865754000,7.494754150390625,-0.1723164685577154,-0.11439392948634922,-0.04433189367949962
1761476499875787300,7.504787353515625,-0.11856208201646803,-0.060582259799912566,-0.04769156110463664
1761476499885820200,7.514820068359375,0.00132628016769886,0.00031133097149431703,-0.05570900947405025
1761476499895853300,7.524853271484375,0.09541852231621742,0.012319675607979298,-0.08388069953462109
1761476499905885200,7.53488525390625,0.16578735904991626,0.0077712185233831405,-0.09486803056029602
1761476499915918300,7.54491845703125,0.1682698235154152,0.008549582484737039,-0.09480661922926083
1761476499925951200,7.554951171875,0.12068389647603034,0.00969232277907431,-0.09615512949507683
1761476499935984000,7.564984130859375,0.021730185770988463,-0.01129639697484672,-0.07507924291435629
1761476499946017300,7.575017333984375,-0.039810616862773894,-0.02249894165378064,-0.04489124459531158
1761476499956050200,7.58505029296875,-0.015105799195170402,-0.015589929450303314,-0.03986254797941074
1761476499966083300,7.595083251953125,0.040647652208805084,-0.011165391006320715,-0.05297235105177387
1761476499976116200,7.6051162109375,0.11336334432959556,-0.005745630979910493,-0.08277834604959934
1761476499986149400,7.6151494140625,0.06760580176115036,-0.016734861701726913,-0.10160033448999747
1761476499996182300,7.625182373046875,-0.046778702309727666,-0.02301112895961851,-0.08823175261728465
1761476500006215400,7.63521533203125,-0.12222761878669261,0.01946910897120833,-0.050347701636608684
1761476500016248300,7.645248291015625,-0.11415127983689308,0.07034249671604484,-0.022580555522628127
1761476500026281500,7.655281494140625,-0.036058570852875706,0.06360496862195432,-0.011386559476330875
1761476500036314400,7.665314453125,0.08505611825585364,0.020968224955163896,-0.04741818752335384
1761476500046347300,7.67534716796875,0.19529285499751567,-0.03525138265583664,-0.057899523521959775
1761476500056380200,7.685380126953125,0.2411012509703636,-0.08621471370644868,-0.03473066498367116
1761476500066413000,7.6954130859375,0.22503508231043814,-0.1496165244391188,-0.01698739342438057
1761476500076446200,7.7054462890625,0.18304945949614046,-0.16728800940383226,-0.0040104046851396555
1761476500086479000,7.71547900390625,0.14329144960343837,-0.17677319223824886,0.027502796089369803
1761476500096512300,7.72551220703125,0.06325637437999249,-0.19446820420902222,0.028163177960552274
1761476500106545200,7.735545166015625,-0.05583586899042129,-0.20939956015273928,0.018632731212303043
1761476500116578300,7.745578369140625,-0.11790215680301189,-0.186562143792212,0.04039617993207648
1761476500126611200,7.755611083984375,-0.10738310087621211,-0.1425543675005436,0.04202807371653616
1761476500136644400,7.765644287109375,-0.029040801045298575,-0.11469707715138792,0.025107187923416492
1761476500146677200,7.77567724609375,0.030337855118513106,-0.1127647939145565,0.006106080056447536
1761476500156710100,7.785710205078125,0.06253390532433986,-0.09788396258167922,0.025305012050457296
1761476500166743300,7.795743408203125,0.057957098928093906,-0.09389525827169418,0.053338736678753045
1761476500176776200,7.805776123046875,0.04887479780614376,-0.10500789617747068,0.033921558824181554
1761476500186809300,7.815809326171875,0.03318681480884552,-0.1215638941809535,0.02804906832790002
1761476500196842200,7.82584228515625,0.029437691408395767,-0.10799385318569839,0.0486138453150168
1761476500206875400,7.83587548828125,0.038493104523420335,-0.0829562233671546,0.03431552657783031
1761476500216908300,7.845908203125,-0.013991700473427772,-0.06209745013583451,0.01243796822540462
1761476500226941400,7.85594140625,-0.0703618224710226,-0.023814956155791878,0.01827087562996894
1761476500236974300,7.865974365234375,-0.10603636244237423,0.003261339883506298,0.040422538216039534
1761476500247007200,7.87600732421875,-0.12069324882626532,0.02264277057126164,0.03843428700827062
1761476500257040400,7.886040283203125,-0.05615910959541797,0.04185721066165715,0.026975027621909974
1761476500267073300,7.8960732421875,0.05097966113090515,0.024785518220998344,-0.004559307272173464
1761476500277106200,7.906106201171875,0.0980856956988573,0.0005383081277832389,-0.04501465177927166
1761476500287139000,7.91613916015625,0.1200409223973751,0.0035895854571834206,-0.04566409213133156
1761476500297172200,7.926172119140625,0.13242168054282666,0.0349189723636955,-0.03319982042089104
1761476500307205000,7.936205078125,0.10665011042654514,0.05247881364747881,-0.03695153763722628
1761476500317238300,7.94623828125,0.06310322964489459,0.015679178636334834,-0.03454071363583207
1761476500327271200,7.956271240234375,-0.0021855273455381394,-0.03309650617688894,-0.039064145877026016
1761476500337304300,7.96630419921875,-0.005844634374976158,-0.04810173107441514,-0.01782492196075618
1761476500347337200,7.976337158203125,0.05225274980664253,-0.041352402944676576,-0.006761895350366831
1761476500357370000,7.9863701171875,0.14093115021288394,-0.019106888062693176,-0.02464066639021039
1761476500367403300,7.9964033203125,0.18995967727601526,-0.009905490605719387,-0.0398302348786965
1761476500377436200,8.006436279296874,0.19390344646573066,-0.004313881143741309,-0.04639744790717959
1761476500387469300,8.01646923828125,0.16546119583547114,0.02544390906449407,-0.03326444662231952
1761476500397502200,8.026502197265625,0.15865210034251212,0.02953168983478099,-0.024743871036358178
1761476500407535400,8.036535400390624,0.14279577504098415,0.006399089919961989,-0.040969248845987016
1761476500417568300,8.046568359375,0.053878889703750606,-0.02294270336590707,-0.027922574137710033
1761476500427601400,8.056601318359375,-0.06329203021526336,-0.033588417879678305,0.0024148425893858075
1761476500437634300,8.06663427734375,-0.11008651461601257,-0.03778163178581744,0.008607778945378959
1761476500447667500,8.07666748046875,-0.11177636739909648,-0.023589659499935803,0.01670198234543204
1761476500457700400,8.086700439453125,-0.09873100786507129,-0.0032935251200571654,0.014083835736289619
1761476500467733200,8.096733154296874,-0.10777122341096401,0.00415105526484549,0.00817815535645932
1761476500477766400,8.106766357421876,-0.08202946391105652,0.0098117479076609,0.021173136410117147
1761476500487799000,8.116799072265625,-0.014949731850624084,0.009788330499455333,0.02645401768879965
1761476500497832200,8.126832275390624,0.0837035346031189,0.0016825462594628332,0.003416859238781035
1761476500507865000,8.136864990234375,0.1794850450128317,0.005945500933565199,-0.0059325683867558834
1761476500517898200,8.146898193359375,0.19036065929234028,0.024166874866001307,-0.01895317707201466
1761476500527931100,8.15693115234375,0.14249591531157493,0.05573628107346594,-0.012377470209822057
1761476500537964300,8.16696435546875,0.06840718127191066,0.09363306367155164,-0.00718976537361741
1761476500547997200,8.1769970703125,0.009705401456356047,0.12247958425376564,0.02668450197642669
1761476500558030000,8.187030029296874,0.013982932645082474,0.12503463903144002,0.05255511202039197
1761476500568063200,8.197063232421876,0.05610708714723587,0.08881463053915649,0.08040540637318044
1761476500578096000,8.20709619140625,0.08967150309681891,0.037771183457039295,0.09458402598714455
1761476500588129300,8.21712939453125,0.12019991235136986,-0.017669877529516816,0.13807044528583065
1761476500598162200,8.227162109375,0.11879004555344581,-0.0942167087784037,0.17065690131504088
1761476500608195300,8.2371953125,0.05086626388430595,-0.13243450349178165,0.1667086568796076
1761476500618228200,8.247228271484374,-0.017120646148920057,-0.13092771565802394,0.19703725097943095
1761476500628261400,8.257261474609376,-0.008978256225585938,-0.09337729881219566,0.21858053587619214
1761476500638294300,8.267294189453125,0.005320902761816978,-0.05951426524221897,0.18725003472482785
1761476500648327400,8.277327392578124,0.005488660544157028,-0.03606094547305256,0.1755270646346733
1761476500658360300,8.2873603515625,0.03168576259613037,-0.048996853283233936,0.20862468505641443
1761476500668393200,8.297393310546875,0.055792029848694795,-0.10597290528472512,0.22641866388963533
1761476500678429000,8.307428955078125,0.051852936834096905,-0.17161738037765026,0.19412119913594797
1761476500688461800,8.3174619140625,0.025789105772972106,-0.21738376383967697,0.18932700539566574
1761476500698495000,8.327494873046875,-0.03289396934211254,-0.23672088046167045,0.20271796349696813
1761476500708527900,8.33752783203125,-0.11101824250817298,-0.20918759790249167,0.21868195042405275
1761476500718561000,8.34756103515625,-0.14663023863732813,-0.1548586994089186,0.24161997761484233
1761476500728594000,8.357593994140625,-0.1859890200793743,-0.09981277521979064,0.24871428325735032
1761476500738627000,8.367626953125,-0.21847616218626498,-0.06650551236905157,0.2340027075441554
1761476500748660000,8.377659912109374,-0.21970015102326867,-0.06836429197825492,0.2208075825422071
1761476500758692900,8.38769287109375,-0.187261524233222,-0.08263594190422445,0.22469768531592563
1761476500768725800,8.397725830078125,-0.163324183806777,-0.10259484368637203,0.21258827319145202
1761476500778758700,8.407758544921874,-0.1410065535366535,-0.08625778566319495,0.20722519352203234
1761476500788791800,8.417791748046875,-0.08544482531249523,-0.03330539968721569,0.2221650432994589
1761476500798824700,8.42782470703125,-0.019085808742046354,-0.001643894749507308,0.235587090658769
1761476500808857900,8.43785791015625,0.04921323598027229,-0.006581935673579573,0.23758812828287482
1761476500818890800,8.447890869140625,0.14128244786858557,-0.0258511746911332,0.2541446925419383
1761476500828924000,8.457923828125,0.22137013006210327,-0.0817309924211353,0.2488775109950453
1761476500838956800,8.467956787109374,0.28034780420958993,-0.14786778107564896,0.24622759927446022
1761476500848990000,8.477989990234375,0.25461130540668964,-0.15169870100803673,0.2321933930998668
1761476500859022800,8.48802294921875,0.12335457699000835,-0.09094126730430871,0.17827263701576737
1761476500869056000,8.498055908203124,-0.04124737166762352,-0.025611666846834122,0.23266417068308218
1761476500879089000,8.5080888671875,-0.0321592253267765,0.05841561981793493,0.2733192755459808
1761476500889121800,8.518121826171875,-0.08264379641711711,0.09622428574115037,0.1979266010345891
1761476500899155000,8.528155029296874,0.012697569009661673,0.08846852051522583,0.16460092574432492
1761476500909187800,8.538187744140625,0.0628980624616146,0.055717631171923125,0.09621564577696845
1761476500919221000,8.548220947265625,0.016218728873133657,0.008508976479712873,0.08854048977289349
1761476500929254700,8.558254638671874,-0.08762275387346743,0.001115267765522003,0.13131012083804233
1761476500939287800,8.568287841796876,-0.1505921280056238,0.0002538834295235574,0.14551732722567393
1761476500949320700,8.57832080078125,-0.11551672297120094,-0.022356391377933323,0.13198005598885937
1761476500959353900,8.588353759765624,-0.028086861321330068,-0.057379152909666296,0.0967553786768578
1761476500969386800,8.59838671875,0.04825637364685535,-0.09095354226399213,0.06978466190388426
1761476500979422700,8.608422607421875,0.09228723855316638,-0.11909297402277588,0.05073891117759049
1761476500989456000,8.618455810546875,0.08067571121454238,-0.08875104551734403,0.04325047338465229
1761476500999488800,8.62848876953125,0.01690145044028759,-0.048586445851437746,0.06699050114070997
1761476501009522000,8.63852197265625,-0.0568418311625719,-0.02036903521930799,0.09916037572566419
1761476501019554800,8.648554931640625,-0.07192308043837548,0.012094104957487433,0.08733261182047426
1761476501029588000,8.658587890625,-0.02675181332528591,0.019923465142585337,0.05784308062698692
1761476501039620900,8.668620849609376,0.056038698086142535,0.017972166678030043,0.03780866592321545
1761476501049653800,8.67865380859375,0.14109598538577556,0.010824943538196385,0.0015903927302919328
1761476501059687000,8.68868701171875,0.14390578210949898,-0.012969499552529304,-0.014955211743339896
1761476501069719800,8.6987197265625,0.10597148051261901,-0.0476072620883584,-0.0052335532719269395
1761476501079753000,8.7087529296875,0.04263268854618072,-0.07668251339253038,-0.000054123073723167175
1761476501089785900,8.718785888671874,-0.00535655859708786,-0.08073032747860998,0.01082139987424016
1761476501099819000,8.728819091796876,-0.03661678925752639,-0.0749899389293976,0.01473239930551499
1761476501109852000,8.738851806640625,-0.05789513960778713,-0.04763181200772523,-0.003935458019096404
1761476501119885000,8.748885009765624,-0.017167992421984673,0.009898933000769465,-0.004074482897296548
1761476501129918000,8.75891796875,0.05421557431221008,0.04851707040965557,-0.016706932515185326
1761476501139951000,8.768951171875,0.10713234098553658,0.04034817607188597,-0.04390384099315851
1761476501149984000,8.77898388671875,0.1322802262455225,0.05161854355633259,-0.0685633582143113
1761476501160017000,8.789016845703125,0.15255086085796354,0.07938892280701547,-0.06863965658722444
1761476501170049800,8.7990498046875,0.13817337593734264,0.08345980724142864,-0.06471831842502579
1761476501180082700,8.809082763671874,0.094565120357275,0.09498349189981818,-0.07619178899982944
1761476501190115800,8.81911572265625,0.049584991902112956,0.09421258059255778,-0.06038109293831512
1761476501200149800,8.829149658203125,0.05146422977745533,0.07121474950592964,-0.03579471401860937
1761476501210183000,8.839182861328124,0.051126960647106166,0.011715754898078738,-0.03731852605240419
1761476501220215800,8.8492158203125,0.04784954641163349,-0.0371892919158563,-0.07290606359373777
1761476501230249000,8.8592490234375,0.028466216027736663,-0.05040529530905187,-0.08283873446732759
1761476501240281900,8.86928173828125,0.006028174248337745,-0.022981062614917752,-0.09149468166967853
1761476501250315000,8.87931494140625,-0.036819033831357956,0.025255619950778782,-0.08799635469252243
1761476501260348000,8.889347900390625,-0.0744832863152027,0.05712925153551623,-0.07798994272928685
1761476501270381000,8.899381103515625,-0.06898468889892101,0.08825250314436853,-0.07305929966038092
1761476501280414000,8.9094140625,-0.0009352350234985351,0.10483168109403923,-0.05337395412260666
1761476501290446800,8.91944677734375,0.11941957562863827,0.07082094614906236,-0.10073756191451103
1761476501300480000,8.92947998046875,0.23801263730525968,-0.03585625321380794,-0.1348634294054471
1761476501310513000,8.939512939453126,0.26312895838320255,-0.09735235818931832,-0.17152422220148145
1761476501320545800,8.9495458984375,0.22908640352785586,-0.1008660653986968,-0.16197711657937616
1761476501330578700,8.95957861328125,0.15239713160097598,-0.09566338218906893,-0.15860079028038307
1761476501340611800,8.96961181640625,0.06826338888704776,-0.1203142594460398,-0.17447450510812923
1761476501350644700,8.979644775390625,0.060655836492776866,-0.10124167551174759,-0.1905031547692604
1761476501360678000,8.989677978515624,0.036062662506103516,-0.0720816137346439,-0.2180402184544131
1761476501370710800,8.999710693359376,-0.04606032490730285,-0.03354819546714425,-0.22865272481832652
1761476501380744000,9.009743896484375,-0.10595979007482528,0.012423263846617192,-0.22572920205444097
1761476501390776800,9.01977685546875,-0.1678904688090086,0.05655815538298338,-0.20083609527312218
1761476501400809700,9.029809814453126,-0.1380792679131031,0.054953989855665714,-0.1759041725850664
1761476501410843000,9.0398427734375,-0.009122633132338524,-0.000924439634848386,-0.2059443233986385
1761476501420875800,9.049875732421874,0.05510054045319557,-0.05276775012407452,-0.26885942832659926
1761476501430909000,9.059908935546876,0.03619710254073143,-0.08090628683371469,-0.27987330029932783
1761476501440941800,9.06994189453125,-0.018361586120724676,-0.060598315885569895,-0.2458008252297528
1761476501450975000,9.07997509765625,-0.029980127722024914,-0.011029033009242266,-0.22538504652557892
1761476501461008000,9.0900078125,-0.007171499064564705,0.008284447008837015,-0.22806675989022476
1761476501471041000,9.100041015625,0.04138941048681736,-0.0049989955973811446,-0.22679164365418253
1761476501481074000,9.110073974609374,0.06077332539260387,-0.019797336278576404,-0.23687607102338223
1761476501491107000,9.120107177734376,0.039005730220675466,-0.014802998590003698,-0.22432638605181127
1761476501501140000,9.130139892578125,0.01633680229485035,-0.01664574037985876,-0.19787152811279518
1761476501511172900,9.1401728515625,0.02807107923030853,-0.04414753182223066,-0.1769003257492557
1761476501521206000,9.1502060546875,0.04067044856250286,-0.07681108994195238,-0.19719666105853392
1761476501531239000,9.160239013671875,0.06848959885835647,-0.09036242623673751,-0.21181078601293266
1761476501541271800,9.170271728515624,0.07306991238594054,-0.07601635936768725,-0.19969445095732807
1761476501551304700,9.1803046875,0.014790741896629333,-0.07369827341735363,-0.18853817483922466
1761476501561337900,9.190337890625,-0.04256254591941833,-0.04400677164467051,-0.18276331776482985
1761476501571370800,9.200370849609374,-0.034198622199892996,-0.032150110438559205,-0.16342731538768857
1761476501581404000,9.21040380859375,-0.017277298015356064,-0.034413488793279975,-0.15087768521504477
1761476501591436800,9.220436767578125,-0.017388357174396515,-0.06702166346395388,-0.14040526317525653
1761476501601471000,9.230470947265625,-0.01883329528570175,-0.08443583093304187,-0.13182923107501118
1761476501611503900,9.24050390625,-0.023876550149917602,-0.09649912062715739,-0.11612667156308888
1761476501621537000,9.250537109375,-0.0361199456512928,-0.10150781563464552,-0.11746743691386655
1761476501631570000,9.26056982421875,-0.022494740402698516,-0.06419343603439628,-0.1082960692689754
1761476501641602800,9.270602783203126,0.006367196944355964,-0.0359451005410403,-0.08896435947446152
1761476501651636000,9.280635986328125,0.004552840998768806,-0.029265074787847695,-0.08477518242262304
1761476501661668900,9.2906689453125,0.010823591831326484,-0.04576070263991132,-0.05955118145281449
1761476501671699200,9.30069921875,0.050903088763356204,-0.056515357420872894,-0.05410791268665343
1761476501681732400,9.310732421875,0.039052491971850394,-0.06008095921427011,-0.056245198709983374
1761476501691765200,9.32076513671875,-0.00915244374871254,-0.057191521383076906,-0.04874897946938872
1761476501701798400,9.33079833984375,0.00715162532031536,-0.03736384476516395,-0.0462166114475578
1761476501711831300,9.340831298828125,0.044268180793523786,-0.01179488454889506,-0.06397982981633395
1761476501721864400,9.350864501953126,0.10384089822471142,0.015789598474558443,-0.07788445479450747
1761476501731897300,9.3608974609375,0.17598901959061622,0.036434126166999335,-0.08815121646067127
1761476501741930500,9.370930419921875,0.20937632540762424,0.025356523041985927,-0.09494239270444958
1761476501751963400,9.38096337890625,0.18843641323149204,0.038569329831097274,-0.07786805164897814
1761476501761996300,9.390996337890625,0.2002402482718229,0.06684009635196998,-0.06293527093315497
1761476501772029400,9.401029541015625,0.22754501930475235,0.07614210463920608,-0.08743033657390624
1761476501782062300,9.411062255859376,0.2272597726225853,0.04203353534294292,-0.11960450374148786
1761476501792095500,9.421095458984375,0.14762684845924376,0.043101749096345156,-0.1127580719128251
1761476501802128400,9.43112841796875,0.054095162802934645,0.05191891474239528,-0.05498982835402712
1761476501812161500,9.44116162109375,-0.04328150784373283,0.007355440796725452,-0.0026909195844084023
1761476501822194400,9.4511943359375,-0.09942658891379832,-0.042039892018493265,-0.0020576449158601464
1761476501832227600,9.4612275390625,-0.128558575373888,-0.047355826344247905,-0.01968147308025509
1761476501842260500,9.471260498046876,-0.11272738451361655,-0.01888838647380471,-0.014820863040257244
1761476501852293400,9.48129345703125,-0.08264847259223461,0.014199991195555775,-0.027117212571576236
1761476501862326300,9.491326171875,-0.06678571754992008,0.04491245178012177,-0.01732502788091078
1761476501872359200,9.501359130859376,-0.07159633270204067,0.0628008856974542,-0.022538616077043116
1761476501882392300,9.511392333984375,-0.10052899719774723,0.04013716366970911,0.02541055478416383
1761476501892425200,9.52142529296875,-0.05108896672427654,0.00014801190225407481,0.06742595168221742
1761476501902458400,9.531458251953126,0.028527590826153755,-0.07958988873921334,0.07485195523081346
1761476501912491300,9.5414912109375,0.06247545313537121,-0.17707559098461642,0.0653205951671116
1761476501922524400,9.5515244140625,0.08624152864813804,-0.2069224477157928,0.06709971540253609
1761476501932557300,9.561557373046876,0.11870119822621344,-0.17830474918708203,0.0735110437495634
1761476501942590500,9.571590576171875,0.09449380868673324,-0.13902060388382523,0.08884455075338482
1761476501952623400,9.581623291015624,0.03815525087118148,-0.12142223895424976,0.12259261617418378
1761476501962656300,9.59165625,-0.011270166555047034,-0.12180873578749596,0.12442607867904007
1761476501972689400,9.601689453125,-0.002645546072721481,-0.13228696651356295,0.1160680732436478
1761476501982722300,9.611722412109375,0.042738487008214,-0.1413917351956479,0.10818594169169664
1761476501992756500,9.621756591796874,0.052153965607285496,-0.1249269226069562,0.09053350848732515
1761476502002789400,9.631789306640625,0.006318681627511978,-0.11052866889294237,0.10892192781604826
1761476502012822300,9.641822265625,-0.013202595922350882,-0.1047895955179818,0.1442760949929245
1761476502022855200,9.651855224609376,-0.014178162956237791,-0.10257241265885532,0.13920158647391945
1761476502032888300,9.661888427734375,-0.00857201351225376,-0.09994814683618024,0.13141960909450426
1761476502042921200,9.671921142578125,0.004058920001983642,-0.0957107467284426,0.13800262248031794
1761476502052954400,9.681954345703126,-0.028638649985194206,-0.10647860805084929,0.1273023465014063
1761476502062987300,9.6919873046875,-0.10933774207532405,-0.12060294019430876,0.11624949422515927
1761476502073020400,9.7020205078125,-0.15929682798683642,-0.11563167285406961,0.1468666960080154
1761476502083053300,9.71205322265625,-0.1693804151058197,-0.08746836702935397,0.18316572455326094
1761476502093086500,9.72208642578125,-0.12149579738080502,-0.07440550837125628,0.16501619201432913
1761476502103119400,9.732119384765625,-0.04305763595998287,-0.0488551615239121,0.150481635102164
1761476502113152300,9.74215234375,0.04942541742622852,-0.02110253712562844,0.1434409045441076
1761476502123185400,9.752185302734375,0.13677344601154326,-0.0073985310197807845,0.13619168233452364
1761476502133218300,9.76221826171875,0.19515841496288774,0.018881573140528053,0.12224387580174952
1761476502143251500,9.77225146484375,0.1832914515584707,0.017327621696796268,0.11192987746037542
1761476502153284400,9.782284423828125,0.16598200483918188,0.005290763351880013,0.12607647623457013
1761476502163317500,9.7923173828125,0.1813964315921068,-0.008444770403392612,0.12466450881110504
1761476502173350400,9.802350341796876,0.13529343658685683,-0.018602372606657445,0.1362433394565247
1761476502183383600,9.812383544921875,0.042834933120012283,-0.029024142171442505,0.1398347515446134
1761476502193416400,9.82241650390625,-0.07201017419993877,-0.020729338165372608,0.16639780083214864
1761476502203449600,9.83244970703125,-0.1043424180060625,-0.026410470808017998,0.1828654081661254
1761476502213482500,9.842482421875,-0.05479191289544105,-0.04815850276295095,0.16578039958616717
1761476502223515400,9.852515380859375,0.0041810850769281385,-0.0602837335110642,0.15770606993036343
1761476502233548300,9.86254833984375,0.07690379146039486,-0.034908250040281565,0.1566373629866168
1761476502243581200,9.872581298828125,0.11666940013766289,-0.003690561613626778,0.16096255097566173
1761476502253614300,9.8826142578125,0.10658113684356212,0.032630697029735894,0.15838289147969334
1761476502263647200,9.892647216796876,0.035574586728215216,0.05521510674357414,0.15652018461404368
1761476502273680400,9.902680419921875,-0.00490998387336731,0.05428175314990803,0.1586959394842386
1761476502283713300,9.91271337890625,-0.033869536375999446,0.03067340721581131,0.15075550187379122
1761476502293746400,9.922746337890626,-0.1000678094267845,-0.017522578013315797,0.1638845576358959
1761476502303779300,9.932779296875,-0.1348071143746376,-0.027468108368478714,0.18087509286543355
1761476502313812200,9.942812255859375,-0.1521481252759695,-0.027606366061698643,0.1980137313287705
1761476502323845400,9.952845458984376,-0.11843231815695762,-0.03903053586836904,0.17710125514883546
1761476502333878300,9.962878173828125,-0.04744681082963943,-0.0199249081810005,0.166497041689232
1761476502343911400,9.972911376953125,-0.005029226338863373,0.016960213156510143,0.1470485736472532
1761476502353945300,9.9829453125,0.03292436448037624,0.06611565453493967,0.14760175055060534
1761476502363978500,9.992978515625,0.09693184948861598,0.12560712342346086,0.1414702620582655
1761476502374011400,10.003011474609375,0.11904080544412135,0.1439536581055261,0.13768637787168844
1761476502384044300,10.013044189453124,0.1171826103568077,0.09815642284750938,0.13210521673848852
1761476502394077200,10.0230771484375,0.05108955124616622,0.05767289342554286,0.11683016192363574
1761476502404110300,10.0331103515625,0.01368365743756294,0.06145935316169634,0.13538383655035868
1761476502414143200,10.043143310546874,0.015574001228809356,0.04886929964711889,0.1877715378482826
1761476502424176400,10.05317626953125,0.07263561262190342,-0.018567009032331407,0.17395084656020626
1761476502434209300,10.063209228515625,0.12862754895687104,-0.07045688034333289,0.15281458982806653
1761476502444242400,10.073242431640624,0.17625848418176174,-0.05276522937342524,0.1774476939663291
1761476502454275300,10.083275390625,0.16422259395122527,-0.05417915129195899,0.18647808223795145
1761476502464308200,10.09330810546875,0.10494798268377781,-0.05037579521993175,0.1812991452300921
1761476502474341400,10.10334130859375,0.049454058998823165,-0.0770307240420021,0.19104792917044833
1761476502484374300,10.113374267578125,0.020014614024758338,-0.10675779031841083,0.21698738493323325
1761476502494407400,10.123407470703125,-0.045322658282518385,-0.1327403728368692,0.2246373151645064
1761476502504440300,10.1334404296875,-0.06082651688456535,-0.10661589762968941,0.21446261569596825
1761476502514473500,10.143473388671875,-0.010787935996055603,-0.10468821750273928,0.22116242386186494
1761476502524506400,10.15350634765625,0.08831775040030479,-0.11743154361657798,0.17296669436106457
1761476502534539500,10.16353955078125,0.17172493240535258,-0.12645689038690178,0.10252888404438272
1761476502544572400,10.173572509765625,0.21267887408435343,-0.1256618675516918,0.09550704084988683
1761476502554605600,10.18360546875,0.2259960362970829,-0.10289691363917663,0.11184632736276834
1761476502564638500,10.193638427734374,0.1880062051206827,-0.0646113691855222,0.09739329298790543
1761476502574671400,10.20367138671875,0.1217185002207756,-0.04765818855799734,0.06400763113871216
1761476502584704500,10.21370458984375,0.05060030642449855,0.000537614008039236,0.04622682231431827
1761476502594737400,10.2237373046875,0.01891045217514038,0.08822601699624211,0.03134880399303511
1761476502604770300,10.233770263671875,-0.006288286489248275,0.12634636095082385,-0.012946155209559947
1761476502614803200,10.24380322265625,-0.04310030605792999,0.10037736856630071,-0.05928149766596034
1761476502624836400,10.25383642578125,-0.08728373117744923,0.04297459731902927,-0.08385803104508667
1761476502634869200,10.263869140625,-0.06666179890930653,0.02034395557697862,-0.08106971550080924
1761476502644902400,10.27390234375,-0.0135112234801054,-0.02695190247464925,-0.08352138296924531
1761476502654935300,10.283935302734376,0.03661035951673984,-0.0983210205583833,-0.11015203586658462
1761476502664968400,10.293968505859375,0.10570026235580443,-0.0779316366707906,-0.1390426330525428
1761476502675000800,10.304000732421875,0.10618775361180305,-0.03777425219696015,-0.1486401719539426
1761476502685033700,10.31403369140625,0.0767839644730091,-0.010168507189769298,-0.14793918407773599
1761476502695068000,10.32406787109375,0.05964928979873657,0.05582808754276484,-0.1767284945799969
1761476502705100800,10.334100830078125,0.039048400318622584,0.10864345793453976,-0.1655290003746748
1761476502715134000,10.344134033203124,0.043369770649075504,0.11835106961429119,-0.20506324798148123
1761476502725166800,10.354166748046875,0.030129180803894994,0.1364081015641801,-0.2239154671633616
1761476502735199700,10.36419970703125,0.0316582900673151,0.11623389479722827,-0.18988745229002088
1761476502745233000,10.37423291015625,0.1112485441327095,0.05359391701621934,-0.20687663581268861
1761476502755265800,10.384265869140625,0.1907861912280321,-0.005281137007009238,-0.23534526299322023
1761476502765299000,10.394298828125,0.17259470097720622,-0.06383499625185504,-0.2614704688527621
1761476502775331800,10.404331787109374,0.11060030935704708,-0.08304092424223199,-0.2746396191632375
1761476502785365000,10.414364990234375,0.06454349158108234,-0.05655919656259939,-0.2633516429568641
1761476502795397600,10.424397705078125,0.03876432268023491,-0.038595295389415696,-0.2619620700282976
1761476502805430800,10.4344306640625,0.01975567082762718,-0.027485552693624047,-0.27135767488311974
1761476502815463700,10.444463623046875,0.017056348741054533,-0.027741591547615824,-0.29861942875823005
1761476502825496600,10.45449658203125,0.027511107259988784,-0.014573829476628452,-0.30704964091330766
1761476502835529700,10.46452978515625,0.01579553502500057,0.0007390091984998434,-0.28151485696127637
1761476502845562600,10.474562744140625,0.04998188226521015,0.003698827118473127,-0.28818943935437125
1761476502855595800,10.484595703125,0.03398585623204708,0.006696200569858774,-0.3338428822275251
1761476502865628700,10.494628662109376,-0.011081365984678267,0.020761733464477582,-0.3515093987561762
1761476502875661800,10.504661865234375,-0.06274199511706828,0.010104456377075985,-0.33013745183832943
1761476502885694700,10.51469482421875,-0.09823299521505832,-0.025644381806347517,-0.33812205738406625
1761476502895727900,10.524727783203126,-0.13278291507065296,-0.0573880440355977,-0.3318291677849367
1761476502905760800,10.5347607421875,-0.1737117223083973,-0.07146152277465444,-0.32981231153719126
1761476502915794000,10.5447939453125,-0.1635544854313135,-0.06980212449533864,-0.31196912326738235
1761476502925826800,10.554826904296876,-0.055956280499696726,-0.059932061396026984,-0.26960779900848864
1761476502935859700,10.564859619140625,0.026043957316875456,-0.063837233874714,-0.2612757865308784
1761476502945892900,10.574892822265625,0.05505903939902782,-0.0805742784003727,-0.24751542886160313
1761476502955925800,10.58492578125,0.08180676107108592,-0.07109623312621843,-0.2286446145771071
1761476502965959000,10.594958984375,0.11436872197985648,-0.033134680479520465,-0.19742451499765737
1761476502975991800,10.60499169921875,0.1687391945928335,-0.01052236555367126,-0.15316586921745912
1761476502986025000,10.61502490234375,0.18878946445286274,-0.03605889051328413,-0.13003778108097613
1761476502996057900,10.625057861328125,0.13906535634100436,-0.09206041666050441,-0.10459511412549763
1761476503006090800,10.6350908203125,0.023191490495204924,-0.15811751854177564,-0.10093160491557791
1761476503016123600,10.64512353515625,-0.08279343402087688,-0.17698979413099586,-0.0699712705171667
1761476503026157800,10.65515771484375,-0.13086626779437063,-0.16704581641210242,-0.035237189733702684
1761476503036190700,10.665190673828125,-0.154705993065238,-0.1939860832478851,-0.04965887912223115
1761476503046224000,10.675223876953124,-0.21344050610661505,-0.18156148596070706,0.007392411806248128
1761476503056256800,10.6852568359375,-0.20965514234900473,-0.10503297581980005,0.06738375650830566
1761476503066290000,10.6952900390625,-0.2522410691440105,-0.12862876366642303,0.12688992977561428
1761476503076322800,10.70532275390625,-0.14838964952528474,-0.09716167618911713,0.1958024667537771
1761476503086355700,10.715355712890625,0.16099077242314816,-0.09331161316484213,0.07450432910323143
1761476503096388900,10.725388916015625,0.28540976377427574,-0.10060276568685658,-0.034573373796418304
1761476503106421800,10.735421875,0.16992343594133852,0.01578378978827968,0.013663820225931704
1761476503116455000,10.745454833984375,0.013423545196652412,0.1174172045639716,0.0667176207497716
1761476503126487800,10.75548779296875,-0.033871289941668506,0.08978397789481095,0.0692813154916279
1761476503136521000,10.76552099609375,-0.047698155242204665,-0.07250646068374626,0.01780959652746096
1761476503146553900,10.775553955078125,-0.03674070789813995,-0.18966884110327809,0.009894183760415762
1761476503156587000,10.7855869140625,-0.054417818886041636,-0.19372984346449373,0.02746215355172753
1761476503166620000,10.795619873046874,-0.15617606561779976,-0.14886864694757387,0.11747277067610994
