time,seconds_elapsed,z,y,x
1761475504516597500,0.069597412109375,-0.026566769927740097,-0.0025440817698836327,0.1301509290933609
1761475504526574600,0.07957470703125,-0.04353909194469452,0.016305772587656975,0.22732354700565338
1761475504536551400,0.089551513671875,-0.06298492848873138,0.005460898391902447,0.288212388753891
1761475504546528500,0.099528564453125,-0.07546397298574448,-0.013147139921784401,0.3105621635913849
1761475504556506600,0.109506591796875,-0.08509912341833115,-0.04257895052433014,0.2975570559501648
1761475504566483500,0.1194833984375,-0.0808899998664856,-0.04515742510557175,0.26051703095436096
1761475504576460500,0.12946044921875,-0.067197285592556,-0.009476822800934315,0.2069367915391922
1761475504586437400,0.139437255859375,-0.058930832892656326,0.06491672247648239,0.15367355942726135
1761475504596414500,0.14941455078125,-0.049311213195323944,0.1572774350643158,0.09446586668491364
1761475504606391600,0.1593916015625,-0.034748516976833344,0.2566077411174774,0.037966638803482056
1761475504616369400,0.169369384765625,-0.012400438077747822,0.3251970410346985,-0.023991363123059273
1761475504626346500,0.179346435546875,0.007788453251123428,0.3425890803337097,-0.07682501524686813
1761475504636323300,0.1893232421875,0.016170622780919075,0.34816327691078186,-0.11951855570077896
1761475504646300700,0.19930078125,0.023890061303973198,0.3478703200817108,-0.13584692776203156
1761475504656277800,0.20927783203125,0.03287697583436966,0.33568325638771057,-0.13387373089790344
1761475504666254600,0.219254638671875,0.03464025259017944,0.272027850151062,-0.12438702583312988
1761475504676231700,0.229231689453125,0.02262098342180252,0.16132096946239471,-0.11414770781993866
1761475504686209500,0.23920947265625,-0.004789869766682386,0.024606263265013695,-0.0956115797162056
1761475504696186600,0.2491865234375,-0.03605012968182564,-0.07476731389760971,-0.0722421258687973
1761475504706163700,0.259163818359375,-0.059982091188430786,-0.11800532788038254,-0.0371515154838562
1761475504716140500,0.269140625,-0.06840755045413971,-0.10924926400184631,-0.0024697664193809032
1761475504726117600,0.27911767578125,-0.0628732293844223,-0.07507851719856262,0.023513097316026688
1761475504736094500,0.289094482421875,-0.04891254007816315,-0.05172238498926163,0.04538407549262047
1761475504746072600,0.299072509765625,-0.030104493722319603,-0.05919654667377472,0.04552841931581497
1761475504756049700,0.309049560546875,-0.016164448112249374,-0.07818756997585297,0.03258635103702545
1761475504766026500,0.319026611328125,-0.012433626689016819,-0.10529722273349762,0.012557515874505043
1761475504776003600,0.329003662109375,-0.013694148510694504,-0.10914727300405502,-0.00671073142439127
1761475504785980400,0.33898046875,-0.015411888249218464,-0.09716144949197769,-0.02859232760965824
1761475504795957500,0.34895751953125,-0.011170715093612671,-0.08176146447658539,-0.05312764272093773
1761475504805934600,0.3589345703125,-0.0022203640546649694,-0.0718073695898056,-0.07277750968933105
1761475504815912400,0.368912353515625,0.0095388013869524,-0.07397269457578659,-0.08450435101985931
1761475504825889500,0.3788896484375,0.011681048199534416,-0.08725254237651825,-0.07995966821908951
1761475504835866400,0.388866455078125,0.007661207113415003,-0.07009707391262054,-0.06722041219472885
1761475504845843500,0.398843505859375,0.0009447149350307882,-0.025773555040359497,-0.039274536073207855
1761475504855820500,0.408820556640625,-0.006372249685227871,0.02747751586139202,-0.009487725794315338
1761475504865797600,0.418797607421875,-0.017194803804159164,0.0437675416469574,0.017053870484232903
1761475504875775500,0.428775390625,-0.022755663841962814,0.03300729766488075,0.035782139748334885
1761475504885752300,0.43875244140625,-0.02507367916405201,-0.004700132645666599,0.05227642506361008
1761475504895729700,0.448729736328125,-0.02124509960412979,-0.03725525364279747,0.07948964089155197
1761475504905706800,0.458706787109375,-0.015131015330553055,-0.04428493231534958,0.10926830768585205
1761475504915683600,0.46868359375,-0.007902768440544605,-0.025461064651608467,0.13667720556259155
1761475504925660700,0.47866064453125,-0.008077205158770084,-0.012373225763440132,0.15405060350894928
1761475504935637500,0.488637451171875,-0.01549739483743906,-0.0020417713094502687,0.15605859458446503
1761475504945615000,0.498614990234375,-0.022775815799832344,0.006961843464523554,0.133570596575737
1761475504955592200,0.50859228515625,-0.02773662656545639,0.016374316066503525,0.11670317500829697
1761475504965569000,0.518569091796875,-0.01690261997282505,0.03624522686004639,0.10100783407688141
1761475504975546000,0.528546142578125,-0.005379885900765657,0.03704555705189705,0.07777835428714752
1761475504985523000,0.53852294921875,-0.0011981901479884982,0.02087484300136566,0.05207831785082817
1761475504995500000,0.5485,-0.00521672610193491,-0.0074529461562633514,0.02650688774883747
1761475505005478100,0.55847802734375,-0.016876842826604843,-0.03620230033993721,0.0028010248206555843
1761475505015455000,0.568455078125,-0.028067974373698235,-0.04089370742440224,-0.013129569590091705
1761475505025432000,0.57843212890625,-0.033249422907829285,-0.011489215306937695,-0.01189492829144001
1761475505035409200,0.5884091796875,-0.02710755728185177,0.025777440518140793,-0.007700229063630104
1761475505045386000,0.598385986328125,-0.019005954265594482,0.037824779748916626,0.0011987240286543965
1761475505055363000,0.608363037109375,-0.011877360753715038,0.023081425577402115,0.0016615735366940498
1761475505065341000,0.6183408203125,-0.0063009681180119514,-0.011216893792152405,-0.0007065092795528471
1761475505075318000,0.628318115234375,-0.002301363507285714,-0.043283913284540176,-0.0023540561087429523
1761475505085295000,0.638295166015625,0.0043536098673939705,-0.0556630864739418,-0.0032952171750366688
1761475505095272200,0.648272216796875,0.004398390185087919,-0.038477905094623566,0.0018008516635745764
1761475505105249300,0.658249267578125,0.00735183572396636,-0.0009595581796020269,0.001704178866930306
1761475505115226000,0.66822607421875,0.016135098412632942,0.024223655462265015,0.0019172369502484798
1761475505125203200,0.678203125,0.020895497873425484,0.023615656420588493,0.0005728732794523239
1761475505135181300,0.688181396484375,0.02531270496547222,0.002848052652552724,-0.0021479560527950525
1761475505145158100,0.698158203125,0.02633216232061386,-0.01625986211001873,-0.00011463249393273145
1761475505155135200,0.70813525390625,0.03101513907313347,-0.024697167798876762,0.004527841228991747
1761475505165112000,0.718112060546875,0.030150678008794785,-0.010759782046079636,0.011586283333599567
1761475505175089200,0.728089111328125,0.03484785184264183,0.020038971677422523,0.020633580163121223
1761475505185066000,0.73806591796875,0.03572855889797211,0.04132535308599472,0.02728216163814068
1761475505195044000,0.748044189453125,0.03249116614460945,0.03327280655503273,0.02058945782482624
1761475505205021200,0.758021240234375,0.026788009330630302,0.010846596211194992,0.012780005112290382
1761475505214998000,0.767998046875,0.024491583928465843,0.001992011209949851,0.009597498923540115
1761475505224975000,0.77797509765625,0.02355841174721718,0.010888567194342613,0.013343234546482563
1761475505234952200,0.7879521484375,0.02322656288743019,0.0012059537693858147,0.013530749827623367
1761475505244929000,0.797928955078125,0.013972345739603043,-0.03828340023756027,0.01171234343200922
1761475505254906000,0.807906005859375,-0.001791154034435749,-0.07407771795988083,0.007477089762687683
1761475505264884000,0.817884033203125,-0.01722523756325245,-0.07212855666875839,0.003423758316785097
1761475505274861000,0.827861083984375,-0.027076218277215958,-0.02568281814455986,0.012900796718895435
1761475505284838100,0.837838134765625,-0.024904942139983177,0.024285808205604553,0.018167197704315186
1761475505294815000,0.84781494140625,-0.018569953739643097,0.04092370346188545,0.015564722009003162
1761475505304792000,0.8577919921875,-0.011183410882949829,0.03237415850162506,0.008331310003995895
1761475505314769200,0.86776904296875,-0.0007988775032572448,0.018555384129285812,-0.0007515166653320193
1761475505324747000,0.8777470703125,-0.00024999998277053237,0.01367088034749031,-0.009486684575676918
1761475505334724000,0.88772412109375,-0.0018095122650265694,0.00033541698940098286,-0.014979778788983822
1761475505344701000,0.897700927734375,-0.00453685550019145,-0.02527167648077011,-0.025504324585199356
1761475505354678300,0.90767822265625,-0.009276396594941616,-0.035898759961128235,-0.01673254743218422
1761475505364655000,0.917655029296875,-0.011247402057051659,-0.0010632808553054929,-0.0034039600286632776
1761475505374632200,0.927632080078125,-0.0071113575249910355,0.041837677359580994,0.016849655658006668
1761475505384609000,0.937609130859375,-0.006932392716407776,0.050636760890483856,0.033511724323034286
1761475505394587100,0.947587158203125,-0.006695862859487534,0.012524330988526344,0.036951836198568344
1761475505404564200,0.957564208984375,-0.00905462447553873,-0.03609992936253548,0.038702595978975296
1761475505414541000,0.967541015625,-0.008558477275073528,-0.05959007516503334,0.035994961857795715
1761475505424518100,0.97751806640625,0.001210529706440866,-0.03363969922065735,0.04114551469683647
1761475505434495200,0.9874951171875,0.00944029912352562,0.00986446812748909,0.04236113280057907
1761475505444472000,0.99747216796875,0.016455331817269325,0.02231261506676674,0.04149826616048813
1761475505454449200,1.00744921875,0.016084764152765274,-0.0007133865728974342,0.025532817468047142
1761475505464427000,1.017427001953125,0.014425349421799183,-0.02900121733546257,0.013584279455244541
1761475505474404000,1.027404052734375,0.008441914804279804,-0.05579172447323799,0.004044045228511095
1761475505484381200,1.037381103515625,-0.008032931946218014,-0.07000687718391418,-0.011899767443537712
1761475505494358000,1.04735791015625,-0.01617952436208725,-0.05695243552327156,-0.020599011331796646
1761475505504335000,1.057335205078125,-0.016515882685780525,-0.0013232617639005184,-0.02387123741209507
1761475505514312000,1.06731201171875,-0.0018072603270411491,0.05842379853129387,-0.02435057796537876
1761475505524289000,1.0772890625,0.014296608045697212,0.06800159066915512,-0.0319131538271904
1761475505534267100,1.08726708984375,0.026761267334222794,0.03688148781657219,-0.04414292424917221
1761475505544244000,1.097243896484375,0.0323278047144413,-0.009890010580420494,-0.05200351029634476
1761475505554221000,1.107220947265625,0.023831848055124283,-0.03789878264069557,-0.050774116069078445
1761475505564198100,1.1171982421875,0.014615712687373161,-0.0327727273106575,-0.04392446577548981
1761475505574175200,1.12717529296875,0.006922435946762562,-0.011053499765694141,-0.025368371978402138
1761475505584152000,1.137152099609375,0.007307262625545263,-0.0029966384172439575,-0.017354920506477356
1761475505594130000,1.1471298828125,0.0055017853155732155,0.0011306824162602425,-0.008234991692006588
1761475505604107300,1.157107177734375,0.0037542188074439764,0.00468280678614974,0.0020906166173517704
1761475505614084000,1.167083984375,0.0025666807778179646,0.013644026592373848,0.016161486506462097
1761475505624061200,1.177061279296875,0.004959530662745237,0.035579416900873184,0.0331905372440815
1761475505634038300,1.187038330078125,0.007781682536005974,0.04524216428399086,0.044669292867183685
1761475505644015000,1.19701513671875,0.01200305949896574,0.025168323889374733,0.05084623023867607
1761475505653992200,1.2069921875,0.014841524884104729,-0.015413887798786163,0.05068765580654144
1761475505663970000,1.216969970703125,0.008869918994605541,-0.045573122799396515,0.042343705892562866
1761475505673947100,1.226947021484375,0.002053060568869114,-0.04653633385896683,0.037749964743852615
1761475505683924200,1.23692431640625,-0.0010149010922759771,-0.017960619181394577,0.033115264028310776
1761475505693901000,1.246901123046875,0.00043398671550676227,0.018982281908392906,0.030020900070667267
1761475505703878100,1.256878173828125,0.00021747173741459846,0.04730499908328056,0.026743346825242043
1761475505713855000,1.26685498046875,0.0034670087043195963,0.05609268695116043,0.020242657512426376
1761475505723833000,1.2768330078125,0.00047654513036832213,0.044516727328300476,0.010708007961511612
1761475505733810200,1.28681005859375,0.005559523589909077,0.016301702708005905,0.008291074074804783
1761475505743787000,1.296787109375,0.00831722654402256,-0.0017217728309333324,0.00379059836268425
1761475505753764000,1.30676416015625,0.008316283114254475,-0.004724441096186638,0.006100157741457224
1761475505763741000,1.316740966796875,0.00458865612745285,0.00017950357869267464,0.0028654823545366526
1761475505773718000,1.326718017578125,-0.0016172147588804364,-0.00335716363042593,-0.002301296452060342
1761475505783695000,1.336695068359375,-0.004984515719115734,-0.02258598618209362,-0.013727323152124882
1761475505793673000,1.3466728515625,-0.00990812387317419,-0.041738979518413544,-0.027566419914364815
1761475505803650000,1.356650146484375,-0.009961387142539024,-0.04398801922798157,-0.04214829206466675
1761475505813627000,1.366626953125,-0.010671471245586872,-0.019449647516012192,-0.033593010157346725
1761475505823604200,1.376604248046875,-0.00816117599606514,0.0191267728805542,-0.03363269194960594
1761475505833581300,1.386581298828125,-0.003906792961061001,0.03933361545205116,-0.028787042945623398
1761475505843558100,1.39655810546875,-0.0003317658556625247,0.02438502572476864,-0.03209202364087105
1761475505853535200,1.40653515625,0.0025522997602820396,-0.008281778544187546,-0.031010553240776062
1761475505863513000,1.41651318359375,-0.0008349749259650707,-0.025536665692925453,-0.027193445712327957
1761475505873490200,1.426490234375,0.001091358601115644,-0.017530836164951324,-0.007124776486307383
1761475505883467300,1.43646728515625,0.003539602505043149,-0.0009188351687043905,0.010934650897979736
1761475505893444000,1.446444091796875,0.009627004154026508,0.003918320871889591,0.030156100168824196
1761475505903421200,1.456421142578125,0.012747430242598057,-0.012557325884699821,0.03692612424492836
1761475505913398000,1.46639794921875,0.014111784286797047,-0.02514725923538208,0.0413229763507843
1761475505923375000,1.476375,0.0098350141197443,-0.024709437042474747,0.039902977645397186
1761475505933353200,1.486353271484375,0.007059288211166859,-0.0204760804772377,0.03224384784698486
1761475505943330800,1.496330810546875,0.0007952668238431215,-0.013270366936922073,0.022021573036909103
1761475505953307600,1.5063076171875,0.005535109434276819,0.0019395356066524982,0.01213147584348917
1761475505963284700,1.51628466796875,0.005987047683447599,0.0169760100543499,-0.0008631524397060275
1761475505973261800,1.52626171875,0.01189057994633913,0.0240351390093565,-0.000004453584551811218
1761475505983238700,1.53623876953125,0.012933740392327309,0.01959085464477539,-0.005206140223890543
1761475505993215700,1.5462158203125,0.005581551231443882,0.0027133377734571695,-0.0031818710267543793
1761475506003193600,1.556193603515625,-0.005864981561899185,-0.0031120609492063522,-0.004589085467159748
1761475506013170700,1.566170654296875,-0.01077841967344284,0.007325676269829273,-0.0019581299275159836
1761475506023147800,1.576147705078125,-0.007982100360095501,0.017012393102049828,-0.0028883719351142645
1761475506033124600,1.58612451171875,-0.002840197179466486,0.008815387263894081,-0.0037075222935527563
1761475506043101700,1.596101806640625,0.0015212616417557001,-0.005922812502831221,-0.009110542945563793
1761475506053078500,1.60607861328125,0.010852479375898838,-0.010898345150053501,-0.009011530317366123
1761475506063056000,1.616055908203125,0.007099020294845104,-0.005261764395982027,-0.006377664394676685
1761475506073033700,1.62603369140625,0.004949781112372875,0.013434057123959064,0.001275841612368822
1761475506083010600,1.636010498046875,0.004159088246524334,0.02957547828555107,0.00924588367342949
1761475506092987600,1.645987548828125,0.005182111635804176,0.02404237911105156,0.016922540962696075
1761475506102964700,1.65596484375,0.015514377504587173,0.0015799477696418762,0.018375560641288757
1761475506112941800,1.66594189453125,0.020388778299093246,-0.03866212069988251,0.013188228942453861
1761475506122918700,1.675918701171875,0.023937974125146866,-0.05819321051239967,0.013361601158976555
1761475506132895700,1.685895751953125,0.02096511982381344,-0.05529883876442909,0.018945660442113876
1761475506142873900,1.695873779296875,0.011055232025682926,-0.03240417316555977,0.01975606009364128
1761475506152850700,1.7058505859375,0.003646369092166424,-0.012167934328317642,0.020589545369148254
1761475506162827800,1.715827880859375,-0.004133523441851139,-0.00038371270056813955,0.016677096486091614
1761475506172804900,1.725804931640625,-0.004474329762160778,-0.0014922700356692076,-0.001147663570009172
1761475506182781700,1.73578173828125,-0.009528743103146553,-0.02570120245218277,-0.01676044426858425
1761475506192758800,1.7457587890625,-0.008743206039071083,-0.04383014887571335,-0.027880223467946053
1761475506202736600,1.755736572265625,-0.007725612260401249,-0.026713479310274124,-0.027702856808900833
1761475506212713700,1.765713623046875,-0.0012111073592677712,0.0032776615116745234,-0.029315736144781113
1761475506222690800,1.77569091796875,-0.002712331246584654,0.019624412059783936,-0.021993109956383705
1761475506232667600,1.785667724609375,-0.0004238425171934068,0.016079794615507126,-0.018826935440301895
1761475506242644700,1.795644775390625,0.0015708650462329388,0.0052702901884913445,-0.02168397419154644
1761475506252621600,1.80562158203125,0.0012361229164525867,-0.00142527068965137,-0.016619468107819557
1761475506262598700,1.8155986328125,0.006439673248678446,-0.0003666642587631941,-0.015503869391977787
1761475506272575700,1.82557568359375,0.005754175595939159,-0.004371259361505508,-0.010339200496673584
1761475506282553600,1.8355537109375,0.0062543172389268875,0.010638848878443241,0.000489211524836719
1761475506292530700,1.84553076171875,0.00872323103249073,0.028170283883810043,0.011882117949426174
1761475506302507500,1.855507568359375,0.005783633794635534,0.031667813658714294,0.01953577809035778
1761475506312484900,1.86548486328125,0.007434295490384102,0.016456155106425285,0.027373669669032097
1761475506322461700,1.875461669921875,0.004841442219913006,-0.0020059423986822367,0.034756217151880264
1761475506332438800,1.885438720703125,0.005184293258935213,0.0037383835297077894,0.040048811584711075
1761475506342416600,1.895416748046875,0.007528407499194145,0.026119323447346687,0.04388003796339035
1761475506352393700,1.905393798828125,0.0089194281026721,0.025833243504166603,0.042442645877599716
1761475506362370800,1.915370849609375,0.009416639804840088,-0.004324925132095814,0.033346354961395264
1761475506372348000,1.925347900390625,0.00543405395001173,-0.036831341683864594,0.012010502628982067
1761475506382324700,1.93532470703125,0.006692397408187389,-0.02899126149713993,-0.0013061020290479064
1761475506392301800,1.9453017578125,0.007613379508256912,0.0047074006870388985,-0.004511757288128138
1761475506402278700,1.955278564453125,0.00746344355866313,0.024737302213907242,-0.013918041251599789
1761475506412256800,1.9652568359375,0.004410043824464083,0.016713734716176987,-0.0195680633187294
1761475506422233900,1.97523388671875,0.0031546298414468765,0.0014018896035850048,-0.030201531946659088
1761475506432210700,1.985210693359375,0.0059918491169810295,-0.01617114618420601,-0.03368360176682472
1761475506442187800,1.995187744140625,0.006596120074391365,-0.03647055849432945,-0.03607139363884926
1761475506452164600,2.00516455078125,0.006301042158156633,-0.036554183810949326,-0.0392267070710659
1761475506462141700,2.0151416015625,0.002154500223696232,-0.0136227672919631,-0.027794554829597473
1761475506472118500,2.025118408203125,0.0025121967773884535,0.01753946579992771,-0.025770876556634903
1761475506482096600,2.0350966796875,0.005133279599249363,0.02353690378367901,-0.019355854019522667
1761475506492073700,2.04507373046875,0.009871575981378555,0.0062338123098015785,-0.026083264499902725
1761475506502050600,2.055050537109375,0.009954666718840599,-0.02477097325026989,-0.022457104176282883
1761475506512027600,2.065027587890625,0.003725034184753895,-0.030201109126210213,-0.013693229295313358
1761475506522004500,2.07500439453125,0.002521285554394126,-0.009417799301445484,-0.004384415689855814
1761475506531981800,2.08498193359375,0.003241285216063261,0.006914787460118532,0.002848925767466426
1761475506541959000,2.094958984375,0.009053900837898254,-0.0008549852063879371,0.001906433142721653
1761475506551935700,2.104935791015625,0.013865579850971699,-0.029485078528523445,0.00029222253942862153
1761475506561913900,2.114913818359375,0.017543938010931015,-0.05972367525100708,0.001674403203651309
1761475506571891000,2.124890869140625,0.014297766610980034,-0.060701385140419006,0.004054104443639517
1761475506581867800,2.13486767578125,0.013459403067827225,-0.02540651150047779,0.010869932360947132
1761475506591844900,2.144844970703125,0.0174507275223732,0.01200830191373825,0.01685309037566185
1761475506601821700,2.15482177734375,0.022484367713332176,0.036707520484924316,0.024896368384361267
1761475506611798800,2.164798828125,0.030641630291938782,0.0318126305937767,0.02089017629623413
1761475506621775600,2.174775634765625,0.03284512832760811,0.01347517129033804,0.015134019777178764
1761475506631753700,2.184753662109375,0.029363974928855896,-0.017365504056215286,0.009283548220992088
1761475506641730800,2.194730712890625,0.027235044166445732,-0.0406884029507637,-0.00033019680995494127
1761475506651707600,2.204707763671875,0.024589382112026215,-0.05341896414756775,0.00024207020760513842
1761475506661684700,2.214684814453125,0.019597288221120834,-0.03633691370487213,0.001113989157602191
1761475506671661600,2.22466162109375,0.004374409094452858,0.003944885917007923,0.005414966493844986
1761475506681638700,2.234638671875,-0.0035900406073778868,0.03298399597406387,0.014881438575685024
1761475506691615700,2.24461572265625,-0.0035494407638907433,0.037447765469551086,0.014362191781401634
1761475506701593600,2.254593505859375,-0.002137433271855116,0.019982222467660904,0.010340551845729351
1761475506711570700,2.26457080078125,-0.0001397110754624009,-0.008341563865542412,0.003275578608736396
1761475506721547500,2.274547607421875,-0.0028164542745798826,-0.02734561637043953,-0.004687539301812649
1761475506731524600,2.284524658203125,0.00003693567123264074,-0.03281855955719948,-0.005277387332171202
1761475506741501700,2.294501708984375,-0.002785748802125454,-0.025876233354210854,0.00024281273363158107
1761475506751478800,2.304478759765625,-0.006615487392991781,-0.015393133275210857,0.005826410371810198
1761475506761455900,2.314455810546875,-0.014703507535159588,-0.006025198381394148,0.0037797708064317703
1761475506771433700,2.324433837890625,-0.014380902983248234,0.004574190825223923,-0.003873606910929084
1761475506781410800,2.334410888671875,-0.011556620709598064,0.01316927745938301,-0.00903481338173151
1761475506791388000,2.344387939453125,-0.00571941863745451,0.014676355756819248,-0.01229839213192463
1761475506801364700,2.35436474609375,-0.0032868876587599516,0.014727489091455936,-0.019233794882893562
1761475506811341800,2.364341796875,0.002576645463705063,0.0132296709343791,-0.01395309716463089
1761475506821318700,2.374318603515625,0.0071255904622375965,0.010261044837534428,-0.005538307595998049
1761475506831295700,2.384295654296875,0.013523834757506847,0.012881861999630928,0.004848020616918802
1761475506841273900,2.39427392578125,0.01652202196419239,-0.0007154395570978522,0.014963772147893906
1761475506851250700,2.404250732421875,0.011337464675307274,-0.012806727550923824,0.019831892102956772
1761475506861227800,2.414227783203125,0.014571074396371841,-0.02616860717535019,0.022440191358327866
1761475506871204600,2.42420458984375,0.01603068597614765,-0.024350568652153015,0.02170713245868683
1761475506881181700,2.434181640625,0.020986828953027725,-0.00976017490029335,0.024650458246469498
1761475506891158800,2.44415869140625,0.028575988486409187,0.0037692722398787737,0.025078248232603073
1761475506901135600,2.454135498046875,0.02611549384891987,0.014010190963745117,0.026959504932165146
1761475506911113700,2.46411376953125,0.018598118796944618,0.013052682392299175,0.022243957966566086
1761475506921090800,2.4740908203125,0.01716853491961956,-0.0002713790163397789,0.013675237074494362
1761475506931067600,2.484067626953125,0.01695033721625805,-0.013739512301981449,0.00023600149143021554
1761475506941044200,2.494044189453125,0.017418520525097847,-0.024882445111870766,-0.01364173088222742
1761475506951021300,2.504021240234375,0.018627969548106194,-0.019005345180630684,-0.030770201236009598
1761475506960998400,2.513998291015625,0.017715835943818092,-0.0056059169583022594,-0.03433643653988838
1761475506970975500,2.5239755859375,0.015899041667580605,0.0063255890272557735,-0.03400552272796631
1761475506980953300,2.533953369140625,0.008591859601438046,0.009457467123866081,-0.029401449486613274
1761475506990930400,2.543930419921875,0.0007189883035607636,-0.004736168310046196,-0.023622067645192146
1761475507000907500,2.553907470703125,-0.0026613620575517416,-0.019852537661790848,-0.01618865318596363
1761475507010884400,2.56388427734375,-0.002744856057688594,-0.02651597186923027,-0.0048904987052083015
1761475507020861400,2.573861328125,0.008782636374235153,-0.02994638867676258,-0.0015402418794110417
1761475507030838300,2.58383837890625,0.01399914175271988,-0.02486056089401245,0.007202367298305035
1761475507040815400,2.5938154296875,0.016864437609910965,-0.005087121389806271,0.010585647076368332
1761475507050792200,2.603792236328125,0.018980832770466805,0.012473070994019508,0.016406547278165817
1761475507060770300,2.613770263671875,0.015630044043064117,0.019478516653180122,0.01811097003519535
1761475507070747400,2.623747314453125,0.008380034938454628,0.015843305736780167,0.015277240425348282
1761475507080724200,2.63372412109375,-0.0024515732657164335,-0.003894712310284376,0.009862501174211502
1761475507090701300,2.643701416015625,-0.013561765663325787,-0.018327340483665466,0.004556980449706316
1761475507100678100,2.65367822265625,-0.022534487769007683,-0.023424897342920303,0.004143391735851765
1761475507110655200,2.6636552734375,-0.023865830153226852,-0.021917186677455902,0.01011913176625967
1761475507120632300,2.67363232421875,-0.02517317607998848,-0.01896347478032112,0.00834386795759201
1761475507130610200,2.683610107421875,-0.021306317299604416,-0.013418185524642467,0.00620463490486145
1761475507140587300,2.693587158203125,-0.020617090165615082,0.0019154974725097418,0.0021387869492173195
1761475507150564000,2.703564208984375,-0.018393203616142273,0.012055435217916965,-0.013462080620229244
1761475507160541200,2.713541259765625,-0.02138713002204895,0.01493990607559681,-0.026293456554412842
1761475507170518300,2.723518310546875,-0.02344045415520668,0.02510927990078926,-0.030250772833824158
1761475507180495400,2.733495361328125,-0.02517656981945038,0.03445671126246452,-0.03853187337517738
1761475507190472400,2.743472412109375,-0.021919377148151398,0.04392446577548981,-0.033245835453271866
1761475507200450300,2.7534501953125,-0.013531218282878399,0.04327065870165825,-0.024816399440169334
1761475507210427400,2.763427490234375,-0.012923303060233593,0.03563378378748894,-0.009503347799181938
1761475507220404500,2.773404541015625,-0.014734785072505474,0.019447889178991318,0.003119502915069461
1761475507230381300,2.78338134765625,-0.016322895884513855,-0.005723612383008003,0.011565831489861012
1761475507240358400,2.7933583984375,-0.022325927391648293,-0.03556380048394203,0.024431295692920685
1761475507250335200,2.803335205078125,-0.026697002351284027,-0.0448799766600132,0.03682738542556763
1761475507260312300,2.813312255859375,-0.03032742254436016,-0.027950793504714966,0.04462698474526405
1761475507270289400,2.823289306640625,-0.026502307504415512,-0.002932365983724594,0.048068296164274216
1761475507280267300,2.833267333984375,-0.017749562859535217,0.018605949357151985,0.03508858010172844
1761475507290244400,2.843244384765625,-0.00909362267702818,0.016957394778728485,0.01853920891880989
1761475507300221200,2.85322119140625,-0.008164978586137295,-0.0057889316231012344,-0.0007969379657879472
1761475507310198300,2.8631982421875,-0.011565420776605606,-0.021993249654769897,-0.018972551450133324
1761475507320175400,2.87317529296875,-0.007969886995851994,-0.025413814932107925,-0.02935941331088543
1761475507330152200,2.883152099609375,0.011470554396510124,-0.0465749129652977,-0.03592739999294281
1761475507340129300,2.89312939453125,0.023577017709612846,-0.06748472154140472,-0.03850081190466881
1761475507350107100,2.903107177734375,0.024210885167121887,-0.042283978313207626,-0.01926964893937111
1761475507360084200,2.913084228515625,0.01725390926003456,-0.028506113216280937,-0.003433428704738617
1761475507370061300,2.923061279296875,-0.0006561318878084421,-0.016017645597457886,0.016568269580602646
1761475507380038100,2.9330380859375,-0.015754925087094307,-0.0031385980546474457,0.02814982458949089
1761475507390015500,2.943015380859375,-0.019543617963790894,0.005238526966422796,0.03690679371356964
1761475507399992300,2.952992431640625,-0.015019971877336502,0.019077643752098083,0.043605174869298935
1761475507409969400,2.962969482421875,-0.004383758641779423,0.03474114090204239,0.04786600545048714
1761475507419947300,2.972947265625,0.004381237085908651,0.025066940113902092,0.039371587336063385
1761475507429924400,2.98292431640625,0.012328607961535454,0.0011439796071499586,0.02575330063700676
1761475507439901400,2.9929013671875,0.01584904082119465,-0.018980994820594788,0.013261745683848858
1761475507449878300,3.002878173828125,0.016985943540930748,-0.019930412992835045,0.004176637623459101
1761475507459855400,3.01285546875,0.00851895660161972,0.006561115384101868,0.007526628207415342
1761475507469832400,3.02283251953125,-0.00030938838608562946,0.04060222581028938,0.015283827669918537
1761475507479809300,3.032809326171875,-0.008645614609122276,0.051992833614349365,0.018250055611133575
1761475507489786400,3.042786376953125,-0.015643002465367317,0.021370843052864075,0.011036773212254047
1761475507499764200,3.05276416015625,-0.020907539874315262,-0.019617335870862007,0.0029149309266358614
1761475507509741300,3.0627412109375,-0.012905125506222248,-0.03323998674750328,0.0034107405226677656
1761475507519718400,3.072718505859375,-0.007862163707613945,-0.015650872141122818,0.010498743504285812
1761475507529695200,3.0826953125,-0.010330128483474255,0.0046607800759375095,0.020781857892870903
1761475507539672300,3.09267236328125,-0.02363128587603569,0.0033329278230667114,0.0199272483587265
1761475507549649200,3.102649169921875,-0.03384993597865105,-0.01691976934671402,0.007581532467156649
1761475507559626200,3.112626220703125,-0.04194088652729988,-0.03330087289214134,-0.002302789594978094
1761475507569604400,3.122604248046875,-0.03716132417321205,-0.02614656649529934,-0.011146760545670986
1761475507579581200,3.132581298828125,-0.032308779656887054,-0.007881009951233864,-0.015435249544680119
1761475507589558300,3.142558349609375,-0.019308727234601974,0.012335850857198238,-0.01894794963300228
1761475507599535000,3.15253515625,-0.008731183595955372,0.029718834906816483,-0.016005422919988632
1761475507609512400,3.162512451171875,-0.001414333819411695,0.029539717361330986,-0.014351296238601208
1761475507619489300,3.1724892578125,-0.004526237491518259,0.01699436642229557,-0.004950603935867548
1761475507629466400,3.18246630859375,-0.008315683342516422,-0.010927064344286919,0.000363790022674948
1761475507639443500,3.192443359375,-0.011674994602799416,-0.01623048260807991,0.011072893626987934
1761475507649421300,3.20242138671875,-0.011128813959658146,-0.007751296274363995,0.02253812551498413
1761475507659398400,3.2123984375,-0.007428085897117853,0.002017444698140025,0.027355516329407692
1761475507669375500,3.22237548828125,-0.006228310987353325,0.0006789809558540583,0.03526676446199417
1761475507679352300,3.232352294921875,-0.005930569488555193,0.000347683671861887,0.027706313878297806
1761475507689329400,3.242329345703125,-0.004021353088319302,0.0014450240414589643,0.02155006304383278
1761475507699306200,3.25230615234375,-0.007603837177157402,-0.002474616514518857,0.012516087852418423
1761475507709283300,3.262283447265625,-0.00568343186751008,-0.007589749991893768,0.00693570077419281
1761475507719261400,3.272261474609375,-0.0038479813374578953,0.015271622687578201,0.007778857368975878
1761475507729238300,3.28223828125,0.0060731773264706135,0.03862061724066734,0.01326829195022583
1761475507739215400,3.29221533203125,0.00718158483505249,0.046281199902296066,0.009011228568851948
1761475507749192200,3.302192138671875,0.005018497351557016,0.02493639476597309,0.011448665522038937
1761475507759169300,3.312169189453125,0.0008285464136861265,0.010598734021186829,0.01093201246112585
1761475507769146000,3.32214599609375,-0.004777137655764818,0.0013145699631422758,0.008630330674350262
1761475507779123200,3.332123291015625,-0.012906436808407307,-0.014141617342829704,0.002962591592222452
1761475507789100300,3.342100341796875,-0.018560444936156273,-0.02423717826604843,0.004998771473765373
1761475507799078100,3.352078125,-0.015854407101869583,-0.01892230659723282,0.01439520251005888
1761475507809055200,3.36205517578125,-0.010479054413735867,-0.0007846776861697435,0.017597777768969536
1761475507819032300,3.3720322265625,-0.006733051501214504,0.012957500293850899,0.02039889059960842
1761475507829009400,3.382009521484375,0.0001061999355442822,0.012027245946228504,0.020103925839066505
1761475507838986500,3.391986572265625,-0.00007276446558535099,0.005964825861155987,0.012052924372255802
1761475507848963300,3.40196337890625,0.003508971305564046,0.004637185018509626,0.009745744988322258
1761475507858940400,3.4119404296875,-0.0018437160179018974,0.007394089363515377,0.013220105320215225
1761475507868918500,3.42191845703125,-0.0035167308524250984,0.008085287176072598,0.009429655969142914
1761475507878895400,3.431895263671875,-0.0076859090477228165,0.0076802195981144905,0.011165237985551357
1761475507888872400,3.44187255859375,-0.015183506533503532,0.008048801682889462,0.01472907979041338
1761475507898849300,3.451849365234375,-0.019633648917078972,0.011711979284882545,0.018899323418736458
1761475507908826400,3.461826416015625,-0.01759881153702736,0.01710861176252365,0.022480616346001625
1761475507918803200,3.47180322265625,-0.025295879691839218,0.02124609984457493,0.02419196255505085
1761475507928780300,3.4817802734375,-0.02508925087749958,0.001724544446915388,0.014268813654780388
1761475507938757400,3.49175732421875,-0.0045413668267428875,-0.008380820043385029,0.012160388752818108
1761475507948736000,3.501736083984375,0.020606348291039467,0.046760886907577515,0.010104666464030743
1761475507958713000,3.511713134765625,0.02899423986673355,0.06428927928209305,-0.003470530267804861
1761475507968690200,3.521690185546875,0.02621864527463913,0.04346036911010742,-0.012745347805321217
1761475507978667000,3.5316669921875,0.018852341920137405,0.015480933710932732,-0.01134665496647358
1761475507988644000,3.54164404296875,0.013229691423475742,-0.001730696065351367,-0.004048758186399937
1761475507998621000,3.551620849609375,0.011691450141370296,-0.0030116764828562737,0.014837315306067467
1761475508008598000,3.561597900390625,0.0072264778427779675,-0.0002531777136027813,0.02263917401432991
1761475508018574800,3.571574951171875,0.0036732882726937532,0.008551765233278275,0.0323416031897068
1761475508028553000,3.581552978515625,0.00507306307554245,0.010826680809259415,0.04012688994407654
1761475508038530000,3.591530029296875,0.004745494574308395,-0.006709168665111065,0.03939212113618851
1761475508048507000,3.6015068359375,-0.0017326120287179947,-0.03518058732151985,0.02808845043182373
1761475508058484000,3.61148388671875,0.0006783477147109807,-0.04966605454683304,0.01677907072007656
1761475508068461000,3.6214609375,0.00695819640532136,-0.03277585655450821,0.01386928278952837
1761475508078438100,3.631438232421875,0.012378794141113758,-0.007492870092391968,0.00881194043904543
1761475508088415200,3.641415283203125,0.007916336879134178,0.00536358542740345,-0.0011036052601411939
1761475508098393000,3.65139306640625,-0.001157052698545158,0.004989144392311573,-0.011884347535669804
1761475508108370200,3.6613701171875,-0.007401000242680311,0.002467021346092224,-0.018707530573010445
1761475508118347300,3.67134716796875,-0.008708878420293331,-0.00023262505419552326,-0.02078080177307129
1761475508128324000,3.681323974609375,-0.008602684363722801,0.006659265607595444,-0.017112718895077705
1761475508138301200,3.69130126953125,-0.0035155147779732943,0.01153844315558672,-0.015045042149722576
1761475508148278000,3.701278076171875,-0.00318129057995975,0.0071989381685853004,-0.01024292130023241
1761475508158255000,3.711255126953125,-0.0005783168016932905,-0.0019916302990168333,-0.012246683239936829
1761475508168232000,3.72123193359375,-0.0017278182785958052,-0.018779780715703964,-0.009164645336568356
1761475508178210000,3.7312099609375,-0.005371022503823042,-0.03985390439629555,0.0026568605098873377
1761475508188187100,3.741187255859375,-0.014024664647877216,-0.04424327611923218,0.01435447484254837
1761475508198164000,3.7511640625,-0.02052490785717964,-0.04107970744371414,0.02796056494116783
1761475508208141000,3.76114111328125,-0.02188846282660961,-0.021822014823555946,0.039247334003448486
1761475508218118000,3.771117919921875,-0.017338985577225685,0.007390199229121208,0.04680804908275604
1761475508228095000,3.781094970703125,-0.014239449985325336,0.02405967377126217,0.041216135025024414
1761475508238072000,3.791072021484375,-0.006938126869499683,0.017438789829611778,0.026562891900539398
1761475508248049000,3.801048828125,-0.0027857604436576366,0.0006368542090058327,0.013126767240464687
1761475508258027000,3.811027099609375,-0.003712007775902748,-0.010576386004686356,0.004909316543489695
1761475508268003800,3.82100390625,-0.0033196737058460712,-0.01317701768130064,-0.004991333931684494
1761475508277981000,3.83098095703125,-0.003128458745777607,0.007271798327565193,-0.0021087282802909613
1761475508287958300,3.840958251953125,-0.003153358120471239,0.03285246714949608,0.0009749919991008937
1761475508297935000,3.85093505859375,-0.0049193003214895725,0.03982675075531006,0.006711174733936787
1761475508307912200,3.860912109375,-0.007719648070633411,0.02839082106947899,0.014735333621501923
1761475508317889000,3.870888916015625,-0.006975826807320118,0.016258524730801582,0.022140251472592354
1761475508327867100,3.8808671875,-0.0013368662912398577,0.003156944876536727,0.0296514593064785
1761475508337844200,3.89084423828125,0.004955917131155729,-0.011683786287903786,0.03427764028310776
1761475508347821000,3.900821044921875,0.0010872099082916975,-0.012872517108917236,0.031579211354255676
1761475508357798100,3.910798095703125,0.0028608753345906734,-0.011808584444224834,0.027765298262238503
1761475508367775000,3.92077490234375,0.00027712422888725996,-0.011062038131058216,0.022518964484333992
1761475508377752000,3.930751953125,-0.004585541319102049,-0.010167748667299747,0.010912375524640083
1761475508387729200,3.940729248046875,-0.00407284963876009,-0.013728342950344086,-0.002421594224870205
1761475508397706000,3.9507060546875,0.0039070467464625835,-0.017292719334363937,-0.01009789016097784
1761475508407684000,3.96068408203125,0.01563093066215515,-0.004063417203724384,-0.010539636015892029
1761475508417661000,3.970660888671875,0.023119473829865456,0.011638048104941845,-0.0013725020689889789
1761475508427638000,3.980637939453125,0.02065633423626423,0.011474688537418842,0.003116228384897113
1761475508437615000,3.990614990234375,0.0195870753377676,0.00043055973947048187,0.007431881036609411
1761475508447592000,4.000592041015625,0.017105357721447945,-0.02041799947619438,0.01452720444649458
1761475508457569000,4.010569091796875,0.01148315891623497,-0.03756769374012947,0.010305827483534813
1761475508467546000,4.020546142578125,0.006571990437805653,-0.03886843100190163,0.012458781711757183
1761475508477523200,4.030523193359375,0.0023551408667117357,-0.019174089655280113,0.018270330503582954
1761475508487500000,4.0405,0.004230688326060772,0.003407337237149477,0.025242680683732033
1761475508497478000,4.050477783203125,0.00891225878149271,0.011575784534215927,0.027177998796105385
1761475508507455200,4.060455322265625,0.007349350024014711,0.01907646842300892,0.023384427651762962
1761475508517432000,4.07043212890625,0.007019650656729937,0.021684501320123672,0.015798145905137062
1761475508527409200,4.0804091796875,-0.0019386737840250134,0.013357755728065968,0.008160706609487534
1761475508537386000,4.090385986328125,-0.01128929853439331,0.0017905810382217169,0.003104161936789751
1761475508547363000,4.100363037109375,-0.014113681390881538,0.009500009939074516,0.0069944062270224094
1761475508557340200,4.110340087890625,-0.013509410433471203,0.01632675528526306,0.016574328765273094
1761475508567317000,4.12031689453125,-0.011129975318908691,0.008779885247349739,0.018415898084640503
1761475508577295000,4.130295166015625,-0.012150498107075691,0.005253327079117298,0.017664087936282158
1761475508587272200,4.140272216796875,-0.014346390962600708,-0.0022416559513658285,0.009258543141186237
1761475508597249000,4.1502490234375,-0.02283921279013157,-0.007990089245140553,0.0024850592017173767
1761475508607226000,4.16022607421875,-0.026887983083724976,-0.018559589982032776,-0.008684293366968632
1761475508617203000,4.170202880859375,-0.02968296967446804,-0.016287382692098618,-0.007502914872020483
1761475508627180000,4.180179931640625,-0.022334642708301544,-0.005533594638109207,-0.0016961107030510902
1761475508637156900,4.190156982421875,-0.019981473684310913,-0.0101528475061059,0.0013026087544858456
1761475508647134000,4.200134033203125,-0.012624158523976803,-0.01751691661775112,0.0013056960888206959
1761475508657112000,4.210112060546875,-0.013792221434414387,-0.030337907373905182,0.004102547653019428
1761475508667089000,4.2200888671875,-0.01878851093351841,-0.0249695535749197,-0.00519741652533412
1761475508677066000,4.23006591796875,-0.013866456225514412,-0.009361565113067627,-0.00048521923599764705
1761475508687043000,4.24004296875,-0.008397172205150127,-0.0021543120965361595,-0.004446492530405521
1761475508697020200,4.250020263671875,-0.002859927946701646,-0.006443599238991737,-0.0009689368307590485
1761475508706997200,4.259997314453125,0.0013520612847059965,-0.009168916381895542,0.004863228183239698
1761475508716974000,4.26997412109375,0.006858413107693195,-0.007877283729612827,0.01219277922064066
1761475508726951200,4.279951171875,0.004786206409335136,0.0007805023342370987,0.016735771670937538
1761475508736929000,4.289928955078125,0.008845396339893341,0.0061105526983737946,0.02023409865796566
1761475508746906000,4.299906005859375,0.004544542171061039,0.010196209885179996,0.02274734526872635
1761475508756883200,4.30988330078125,0.0036478559486567974,0.0091341407969594,0.023281307891011238
1761475508766860000,4.319860107421875,0.0030288705602288246,0.006578999571502209,0.019941279664635658
1761475508776837000,4.329837158203125,-0.003469774965196848,0.0013344367034733295,0.02260524034500122
1761475508786814000,4.33981396484375,-0.011730584315955639,0.0005583364982157946,0.023443788290023804
1761475508796791000,4.349791015625,-0.011561207473278046,0.0008534148801118135,0.026286179199814796
1761475508806769200,4.35976904296875,-0.01441984437406063,-0.0037226947024464607,0.018028249964118004
1761475508816746000,4.36974609375,-0.012031788006424904,-0.0018568842206150293,0.013635366223752499
1761475508826723000,4.37972314453125,-0.003973794635385275,0.009129025973379612,0.016453415155410767
1761475508836700000,4.389699951171875,0.0030582821927964687,0.034518539905548096,0.014236598275601864
1761475508846677000,4.399677001953125,0.006560721434652805,0.04476190730929375,0.01811237446963787
1761475508856654000,4.409654052734375,0.00677031185477972,0.028728609904646873,0.019410930573940277
1761475508866631000,4.419630859375,0.0008114229422062635,0.0007290947251021862,0.020281892269849777
1761475508876608300,4.429608154296875,-0.006704550236463547,-0.014231212437152863,0.025075849145650864
1761475508886585900,4.4395859375,-0.0114413658156991,-0.01209791749715805,0.032914355397224426
1761475508896563000,4.44956298828125,-0.012196372263133526,-0.0022737830877304077,0.03642546758055687
1761475508906540000,4.4595400390625,-0.00991823710501194,0.006508208811283112,0.04450448974967003
1761475508916517000,4.46951708984375,-0.005325881764292717,0.012497658841311932,0.04686778038740158
1761475508926494200,4.479494140625,-0.00580871244892478,0.003367276629433036,0.0365229956805706
1761475508936471000,4.489470947265625,-0.0035293130204081535,-0.00517641007900238,0.02887333184480667
1761475508946447000,4.499447021484375,-0.0010772919049486518,-0.006201399490237236,0.012828143313527107
1761475508956425200,4.50942529296875,0.004776868503540754,-0.0047989790327847,-0.001299127354286611
1761475508966402300,4.51940234375,0.006456625182181597,0.010580550879240036,-0.009456192143261433
1761475508976379100,4.529379150390625,0.00890193972736597,0.02124784141778946,-0.017152193933725357
1761475508986356200,4.539356201171875,0.005841733887791634,0.029438447207212448,-0.015448624268174171
1761475508996333000,4.5493330078125,0.004776735790073872,0.02217547409236431,-0.011540702544152737
1761475509006310100,4.55931005859375,0.004746193531900644,0.002055137185379863,-0.004532028920948505
1761475509016287000,4.569286865234375,0.00401488970965147,-0.006762322969734669,0.003063838928937912
1761475509026264000,4.57926416015625,0.006432224065065384,-0.008843742311000824,0.015504557639360428
1761475509036241400,4.589241455078125,0.009519094601273537,-0.00906265340745449,0.025365442037582397
1761475509046219000,4.599218994140625,0.014795598573982716,-0.014592334628105164,0.02359393611550331
1761475509056196000,4.609196044921875,0.009533192962408066,-0.01975300908088684,0.028146609663963318
1761475509066173200,4.619173095703125,0.00794388446956873,-0.015434854663908482,0.029891669750213623
1761475509076150300,4.629150390625,0.013531195931136608,-0.0032176030799746513,0.034841153770685196
1761475509086127400,4.63912744140625,0.02192443236708641,-0.0011548255570232868,0.03421155735850334
1761475509096104200,4.649104248046875,0.027007874101400375,0.004101189319044352,0.026900380849838257
1761475509106081300,4.659081298828125,0.03234191983938217,0.002438844181597233,0.022657165303826332
1761475509116059100,4.66905908203125,0.03052297979593277,-0.009382128715515137,0.01783444732427597
1761475509126036200,4.6790361328125,0.024440402165055275,-0.01530260406434536,0.013815069571137428
1761475509136013300,4.689013427734375,0.020584411919116974,-0.021153302863240242,0.009443756192922592
1761475509145990100,4.698990234375,0.01670312136411667,-0.025402262806892395,0.011981918476521969
1761475509155967200,4.70896728515625,0.010795163922011852,-0.02723425067961216,0.012132920324802399
1761475509165944000,4.718944091796875,0.008182686753571033,-0.01611422374844551,0.0028788310009986162
1761475509175921200,4.728921142578125,0.006799707189202309,-0.0036546250339597464,-0.0019233808852732182
1761475509185898000,4.73889794921875,0.00918981060385704,0.013228639028966427,-0.007114713545888662
1761475509195875000,4.748875,0.0051585836336016655,0.011595056392252445,-0.018051782622933388
1761475509205853200,4.758853271484375,0.00026722258189693093,-0.007798663340508938,-0.024103224277496338
1761475509215830000,4.768830078125,-0.005965106654912233,-0.022311028093099594,-0.03373241797089577
1761475509225807000,4.77880712890625,-0.008615768514573574,-0.018901120871305466,-0.031230781227350235
1761475509235784200,4.7887841796875,-0.005161914974451065,-0.009841580875217915,-0.029125021770596504
1761475509245761300,4.79876123046875,-0.003223699051886797,0.004487087018787861,-0.029317611828446388
1761475509255738400,4.80873828125,0.004307986702769995,0.02069721557199955,-0.02342536859214306
1761475509265715200,4.818715087890625,0.0054915957152843475,0.028954235836863518,-0.011038636788725853
1761475509275692300,4.8286923828125,0.009008300490677357,0.023645492270588875,-0.0027687230613082647
1761475509285670400,4.83867041015625,0.0055091893300414085,0.008214496076107025,0.00900535099208355
1761475509295647200,4.848647216796875,0.0008800826617516577,-0.006340743973851204,0.01634635590016842
1761475509305624300,4.858624267578125,-0.0015868701739236712,-0.012440020218491554,0.029000474140048027
1761475509315601200,4.86860107421875,0.0017900180537253618,-0.0018534221453592181,0.034512683749198914
1761475509325578200,4.878578125,0.0030414036009460688,0.010298415087163448,0.030518095940351486
1761475509335555000,4.88855517578125,0.008899558335542679,0.015739519149065018,0.0218066293746233
1761475509345532200,4.8985322265625,0.011753286235034466,0.0024660080671310425,0.013514534570276737
1761475509355509200,4.90850927734375,0.01147472020238638,-0.0038797720335423946,-0.001457225065678358
1761475509365487000,4.918487060546875,0.01143284048885107,-0.0004895194433629513,-0.0060515021905303
1761475509375464200,4.928464111328125,0.012897578999400139,0.004625347442924976,-0.005458415951579809
1761475509385441000,4.93844091796875,0.01324215903878212,0.008010705932974815,-0.0012444425374269485
1761475509395418000,4.948418212890625,0.015730615705251694,0.011904247105121613,0.004548465833067894
1761475509405395200,4.958395263671875,0.012003673240542412,0.01006353460252285,0.006396792829036713
1761475509415372000,4.9683720703125,0.00537479855120182,-0.0009390487102791667,0.005395444110035896
1761475509425349000,4.97834912109375,-0.007768100593239069,-0.011301418766379356,0.005351223051548004
1761475509435326200,4.988326171875,-0.014543449506163597,-0.004518081434071064,0.003890212858095765
1761475509445304000,4.998303955078125,-0.017175201326608658,0.003932235762476921,0.0004989705630578101
1761475509455281200,5.00828125,-0.014488071203231812,0.00729607418179512,-0.0062108635902404785
1761475509465258200,5.01825830078125,-0.010078809224069118,0.0042236424051225185,-0.015777254477143288
1761475509475235300,5.0282353515625,-0.009685725905001163,-0.005393298342823982,-0.026153994724154472
1761475509485212200,5.038212158203125,-0.006233637221157551,-0.0021938863210380077,-0.029051676392555237
1761475509495189200,5.048189208984375,-0.006603550165891647,0.015808016061782837,-0.03522701561450958
1761475509505166300,5.058166259765625,0.0008021350367926061,0.01822105422616005,-0.029802100732922554
1761475509515143200,5.06814306640625,0.0007355560082942247,0.010143421590328217,-0.028720591217279434
1761475509525121300,5.078121337890625,0.0005849204026162624,-0.0031834118999540806,-0.02385915257036686
1761475509535098000,5.08809814453125,-0.0009618435287848115,-0.014537799172103405,-0.009195256046950817
1761475509545075200,5.0980751953125,-0.0017716600559651852,-0.03370610997080803,-0.0018043649615719914
1761475509555052300,5.10805224609375,-0.0016661989502608776,-0.04876362159848213,0.003320089541375637
1761475509565029000,5.118029052734375,0.0016170104499906301,-0.03281395882368088,0.00846211239695549
1761475509575006200,5.128006103515625,0.0057036313228309155,-0.004551959689706564,0.008787817321717739
1761475509584983000,5.137983154296875,0.016636142507195473,0.013607130385935307,-0.00035858945921063423
1761475509594960100,5.147960205078125,0.01842898316681385,0.027109356597065926,-0.010112416930496693
1761475509604938200,5.157938232421875,0.021741436794400215,0.028501704335212708,-0.016125228255987167
1761475509614915000,5.1679150390625,0.018728071823716164,0.02297910675406456,-0.024221504107117653
1761475509624892200,5.17789208984375,0.017356593161821365,0.007794620469212532,-0.024405445903539658
1761475509634869000,5.187868896484375,0.012322687543928623,0.007020439021289349,-0.018732912838459015
1761475509644846000,5.19784619140625,0.00896707084029913,0.021568968892097473,-0.008326555602252483
1761475509654823200,5.2078232421875,0.010898927226662636,0.03183039650321007,0.004504022188484669
1761475509664800300,5.21780029296875,0.010018520057201385,0.03149968385696411,0.012831938453018665
1761475509674777300,5.22777734375,0.0035568922758102417,0.023868396878242493,0.016156628727912903
1761475509684755200,5.237755126953125,0.0038750735111534595,0.007819017395377159,0.01430157944560051
1761475509694732300,5.247732177734375,0.0005602370365522802,-0.008726936765015125,0.010794728994369507
1761475509704709400,5.25770947265625,0.002124045044183731,-0.0235905721783638,0.01129859872162342
1761475509714686200,5.267686279296875,-0.0019583143293857574,-0.019152946770191193,0.010079403407871723
1761475509724663300,5.277663330078125,-0.0019700834527611732,0.004728625528514385,0.0075232163071632385
1761475509734640000,5.28764013671875,-0.004165593534708023,0.02464134804904461,0.006737849675118923
1761475509744617200,5.2976171875,-0.008471125736832619,0.024360384792089462,-0.003768320195376873
1761475509754594000,5.307593994140625,-0.011409657076001167,0.01861940696835518,-0.01648597978055477
1761475509764571100,5.317571044921875,-0.008664787746965885,0.014860410243272781,-0.029008083045482635
1761475509774549200,5.32754931640625,-0.0068812682293355465,0.013925906270742416,-0.042430415749549866
1761475509784526000,5.337526123046875,-0.007996715605258942,0.01117427833378315,-0.04824310541152954
1761475509794503200,5.347503173828125,-0.008574888110160828,0.019629549235105515,-0.047250811010599136
1761475509804480000,5.35747998046875,-0.012787742540240288,0.01845083385705948,-0.04085602983832359
1761475509814457000,5.36745703125,-0.016425885260105133,0.01882580667734146,-0.02609759010374546
1761475509824434200,5.37743408203125,-0.01912292093038559,0.022917162626981735,-0.008727739565074444
1761475509834411300,5.387411376953125,-0.022215915843844414,0.018638795241713524,0.0018362216651439667
1761475509844388400,5.397388427734375,-0.027993876487016678,0.008092042990028858,0.015010458417236805
1761475509854366000,5.407365966796875,-0.02595655806362629,0.0034711924381554127,0.025450848042964935
1761475509864343000,5.417343017578125,-0.027321545407176018,-0.007418903522193432,0.020817505195736885
1761475509874320400,5.4273203125,-0.02649889513850212,-0.0166960246860981,0.021406330168247223
1761475509884297200,5.437297119140625,-0.02509084902703762,-0.023039089515805244,0.020854203030467033
1761475509894274300,5.4472744140625,-0.024705490097403526,-0.019537031650543213,0.011271082796156406
1761475509904251100,5.457251220703125,-0.01572795771062374,-0.00016690394841134548,0.004751371685415506
1761475509914228200,5.467228271484375,-0.00858882162719965,0.026510512456297874,-0.004061827436089516
1761475509924205000,5.477205078125,-0.0075476933270692825,0.04799812287092209,-0.006513161584734917
1761475509934182100,5.48718212890625,-0.008481663651764393,0.05036993324756622,-0.015293603762984276
1761475509944160300,5.49716015625,-0.00978021789342165,0.03390451893210411,-0.017908131703734398
1761475509954137300,5.507137451171875,-0.01291209552437067,0.004227316007018089,-0.01750626042485237
1761475509964114200,5.5171142578125,-0.011970986612141132,-0.01638161391019821,-0.011726485565304756
1761475509974091300,5.52709130859375,-0.006203112192451954,-0.023072008043527603,0.0038079991936683655
1761475509984068400,5.537068359375,-0.007665536366403103,-0.018143827095627785,0.009329931810498238
1761475509994045200,5.547045166015625,-0.005546458996832371,-0.002922795480117202,0.020088570192456245
1761475510004022300,5.557022216796875,-0.008849527686834335,0.01015353761613369,0.02287202514708042
1761475510013999000,5.5669990234375,-0.002908814698457718,0.011753031983971596,0.02160356193780899
1761475510023977200,5.576977294921875,-0.00020592339569702744,0.010604889132082462,0.01797039806842804
1761475510033954300,5.586954345703125,0.007047462277114391,0.005400539841502905,0.01522734109312296
1761475510043931100,5.59693115234375,0.013165260665118694,-0.004032955504953861,0.013356130570173264
1761475510053908200,5.606908203125,0.011876024305820465,-0.009419998154044151,0.010844502598047256
1761475510063885300,5.61688525390625,0.01097005046904087,-0.005411355756223202,0.007999660447239876
1761475510073862400,5.6268623046875,0.011949827894568443,0.0011517382226884365,0.004905865527689457
1761475510083839500,5.636839599609375,0.005596789065748453,0.0028623349498957396,-0.0038333553820848465
1761475510093816300,5.64681640625,-0.0008280870388261974,-0.006507731042802334,-0.011438277550041676
1761475510103794400,5.65679443359375,-0.001972595928236842,-0.016174308955669403,-0.016522275283932686
1761475510113771300,5.666771240234375,-0.0017811146099120378,-0.0189871396869421,-0.017053842544555664
1761475510123748400,5.676748291015625,-0.0012294419575482607,-0.011168422177433968,-0.014386104419827461
1761475510133725400,5.686725341796875,-0.0004699083510786295,0.0042789774015545845,-0.008828353136777878
1761475510143702300,5.696702392578125,0.000599732156842947,0.010207490995526314,-0.0033253845758736134
1761475510153679400,5.706679443359375,0.001012522028759122,0.006726739928126335,-0.0002454387431498617
1761475510163656200,5.71665625,-0.004813540726900101,0.009729510173201561,0.004323694854974747
1761475510173633300,5.72663330078125,-0.0011634117690846324,0.01281957607716322,0.014083913527429104
1761475510183610000,5.736610107421875,0.0011194662656635046,0.016506347805261612,0.02292291820049286
1761475510193588200,5.746588134765625,0.0005570065695792437,0.013784331269562244,0.033736150711774826
1761475510203565300,5.7565654296875,0.0010160658275708556,0.01703237183392048,0.04023287817835808
1761475510213542100,5.766542236328125,0.004400144796818495,0.013403816148638725,0.03699074685573578
1761475510223519200,5.776519287109375,0.0038208113983273506,0.004755154252052307,0.03251136839389801
1761475510233496000,5.78649609375,0.0014125150628387928,-0.004215170629322529,0.022658469155430794
1761475510243473400,5.796473388671875,-0.0006168491090647876,-0.0023868095595389605,0.01623081974685192
1761475510253450500,5.806450439453125,0.0010444307699799538,0.008867442607879639,0.009861869737505913
1761475510263427300,5.81642724609375,0.0036174124106764793,0.02863476052880287,0.0018502854509279132
1761475510273405400,5.826405517578125,-0.0006465748883783817,0.03315041586756706,-0.012206410989165306
1761475510283382500,5.836382568359375,-0.010317660868167877,0.0010774361435323954,-0.030989283695816994
1761475510293359400,5.846359375,-0.02187977358698845,-0.031041618436574936,-0.04283182695508003
1761475510303336400,5.85633642578125,-0.028754809871315956,-0.027958322316408157,-0.04856298118829727
1761475510313313300,5.866313232421875,-0.021689709275960922,-0.019890274852514267,-0.03792205825448036
1761475510323290400,5.876290283203125,-0.009843801148235798,-0.013295645825564861,-0.021658768877387047
1761475510333267200,5.88626708984375,0.0022320360876619816,-0.004860882647335529,-0.0068425387144088745
1761475510343244300,5.896244384765625,0.001634005457162857,-0.0010173579212278128,0.018336929380893707
1761475510353221400,5.906221435546875,-0.0005148993222974241,-0.004452303051948547,0.028385035693645477
1761475510363199200,5.91619921875,-0.004056272562593222,-0.012326046824455261,0.03648008406162262
1761475510373176300,5.92617626953125,-0.010901128873229027,-0.021505963057279587,0.03925616666674614
1761475510383153200,5.936153076171875,-0.008996965363621712,-0.02178548276424408,0.03983476385474205
1761475510393130200,5.946130126953125,-0.005048030987381935,-0.0244425181299448,0.030535541474819183
1761475510403107300,5.956107421875,0.0005822857492603362,-0.014482730068266392,0.019816474989056587
1761475510413084200,5.966084228515625,0.009198411367833614,0.00987161137163639,0.013773495331406593
1761475510423061200,5.976061279296875,0.015087447129189968,0.031312406063079834,0.005526404827833176
1761475510433038300,5.986038330078125,0.008170152083039284,0.0289914608001709,-0.00595661299303174
1761475510443015400,5.996015380859375,-0.006714656017720699,0.011310946196317673,-0.017895245924592018
1761475510452993300,6.0059931640625,-0.016829075291752815,-0.008508564904332161,-0.01705528423190117
1761475510462970400,6.015970458984375,-0.02555207535624504,-0.008701642975211143,-0.011682222597301006
1761475510472947500,6.025947509765625,-0.019683001562952995,0.0040301308035850525,0.00006604530062759295
1761475510482924300,6.03592431640625,-0.014060236513614655,0.01401197724044323,0.010601457208395004
1761475510492901400,6.0459013671875,-0.010109703056514263,0.008330656215548515,0.01325103547424078
1761475510502878200,6.055878173828125,-0.011435777880251408,0.0067896414548158646,0.018006617203354836
1761475510512855300,6.065855224609375,-0.017054781317710876,0.0021996835712343454,0.010135110467672348
1761475510522832400,6.075832275390625,-0.025265302509069443,-0.015472674742341042,0.0000011448137229308486
1761475510532810200,6.085810302734375,-0.03169151023030281,-0.02811416983604431,-0.007125474512577057
1761475510542787300,6.095787353515625,-0.027775684371590614,-0.02935078553855419,-0.014075287617743015
1761475510552764400,6.105764404296875,-0.016270563006401062,-0.007121379487216473,-0.01594269648194313
1761475510562741200,6.1157412109375,-0.006009566131979227,0.009497548453509808,-0.01422282587736845
1761475510572718300,6.12571826171875,-0.0005777827464044094,0.012809455394744873,-0.009278667159378529
1761475510582695200,6.135695068359375,-0.0013769973302260041,0.0042324792593717575,-0.00940703134983778
1761475510592672300,6.14567236328125,-0.004311800934374332,-0.0030880183912813663,-0.01575786992907524
1761475510602649000,6.155649169921875,-0.005258022341877222,-0.0035157217644155025,-0.020778195932507515
1761475510612626400,6.16562646484375,-0.0021857996471226215,0.0021762524265795946,-0.020120128989219666
1761475510622604300,6.175604248046875,0.0004624150169547647,0.0035192316863685846,-0.017448125407099724
1761475510632581000,6.1855810546875,0.0027183787897229195,-0.007264706306159496,-0.014730369672179222
1761475510642558500,6.195558349609375,-0.0007680481066927314,-0.00959576852619648,-0.010841486975550652
1761475510652535300,6.205535400390625,-0.0018362419214099646,-0.0062790680676698685,-0.006010246928781271
1761475510662512400,6.215512451171875,-0.0013884161598980427,0.006016583181917667,-0.00032863515662029386
1761475510672489500,6.225489501953125,-0.0021375631913542747,0.02104746364057064,-0.0033957979176193476
1761475510682466300,6.23546630859375,-0.0016797706484794617,0.03245633468031883,-0.003953889477998018
1761475510692443400,6.245443359375,0.00025821151211857796,0.025386175140738487,-0.010675176046788692
1761475510702420200,6.255420166015625,0.0061958651058375835,0.008938813582062721,-0.013517355546355247
1761475510712398300,6.2653984375,0.011116322129964828,0.0021477530244737864,-0.015901416540145874
1761475510722375400,6.27537548828125,0.01441701129078865,0.003671294776722789,-0.00606098398566246
1761475510732352300,6.285352294921875,0.016670044511556625,0.0128922238945961,0.004524815361946821
1761475510742329300,6.295329345703125,0.01359272375702858,0.02001894637942314,0.012735502794384956
1761475510752306200,6.30530615234375,0.009811833500862122,0.016805309802293777,0.01552329957485199
1761475510762283300,6.315283203125,0.0011372233275324106,0.0020647153723984957,0.018481003120541573
1761475510772260000,6.325260009765625,-0.004822664428502321,-0.0035476302728056908,0.018556371331214905
1761475510782237200,6.3352373046875,-0.007421758025884628,0.0005661032628268003,0.013775118626654148
1761475510792215300,6.34521533203125,-0.004265912342816591,-0.0004565505078062415,0.004740877542644739
1761475510802192100,6.355192138671875,-0.001836929703131318,-0.003533942624926567,-0.004917634651064873
1761475510812169200,6.365169189453125,0.00020837795455008745,-0.007548125460743904,-0.012793401256203651
1761475510822146300,6.375146240234375,-0.007305546198040247,-0.020498011261224747,-0.02882975898683071
1761475510832123400,6.385123291015625,-0.014813529327511787,-0.036304671317338943,-0.040400128811597824
1761475510842100500,6.3951005859375,-0.02072121948003769,-0.03103800304234028,-0.04500846564769745
1761475510852077300,6.405077392578125,-0.023327922448515892,-0.006401101127266884,-0.043713103979825974
1761475510862054400,6.415054443359375,-0.023074103519320488,0.008222854696214199,-0.03794535994529724
1761475510872031200,6.42503125,-0.021356098353862762,0.013686862774193287,-0.02758779004216194
1761475510882009300,6.43500927734375,-0.009954240173101425,0.011867761611938477,-0.01665855199098587
1761475510891986400,6.444986328125,-0.0018060327274724841,0.001507798908278346,-0.005243977531790733
1761475510901963300,6.45496337890625,0.005245485343039036,-0.006948536261916161,0.003052567830309272
1761475510911940400,6.4649404296875,0.007407705765217543,-0.015748687088489532,0.016346536576747894
1761475510921917200,6.474917236328125,0.0028362548910081387,-0.0167788527905941,0.02366841770708561
1761475510931894300,6.484894287109375,-0.00010121188824996352,-0.008733975701034069,0.028455715626478195
1761475510941871400,6.494871337890625,-0.00456523522734642,0.013015475124120712,0.026904476806521416
1761475510951849000,6.504848876953125,-0.0049934713169932365,0.02870895154774189,0.014029424637556076
1761475510961825800,6.51482568359375,-0.012820936739444733,0.026778317987918854,0.0009254466858692467
1761475510971804000,6.524803955078125,-0.015520581975579262,0.020397650077939034,-0.009221729822456837
1761475510981781000,6.534781005859375,-0.016613230109214783,0.012195591814815998,-0.014046925120055676
1761475510991757800,6.5447578125,-0.016272876411676407,0.004541400820016861,-0.012981660664081573
1761475511001735000,6.55473486328125,-0.008551869541406631,0.010530643165111542,-0.007239137310534716
1761475511011711700,6.564711669921875,-0.0036186296492815018,0.01851479895412922,-0.003929893486201763
1761475511021688800,6.574688720703125,-0.004082322120666504,0.016339898109436035,-0.007707695942372084
1761475511031666000,6.584666015625,-0.005068224389106035,0.01152090821415186,-0.013514452613890171
1761475511041643000,6.59464306640625,-0.010094006545841694,0.00886818952858448,-0.020628608763217926
1761475511051620000,6.6046201171875,-0.00594666600227356,0.005634046625345945,-0.01860327459871769
1761475511061598000,6.614597900390625,-0.0030014975927770138,0.002097897231578827,-0.01640070602297783
1761475511071575000,6.624574951171875,0.0012515706475824118,-0.010877024382352829,-0.01114176120609045
1761475511081552100,6.63455224609375,0.0052697197534143925,-0.027797093614935875,-0.002686544321477413
1761475511091529000,6.644529052734375,0.009618395939469337,-0.03894029185175896,0.0019987551495432854
1761475511101506000,6.654506103515625,0.006777102127671242,-0.03713621571660042,0.007943942211568356
1761475511111483000,6.66448291015625,0.0024025936145335436,-0.01884295977652073,0.0029539770912379026
1761475511121460000,6.6744599609375,0.00409792922437191,-0.003916793968528509,0.0003467962087597698
1761475511131436800,6.684436767578125,0.0049778372049331665,0.0012713100295513868,-0.007594750262796879
1761475511141414000,6.694413818359375,0.006564745679497719,-0.0014309498947113752,-0.011181816458702087
1761475511151392000,6.70439208984375,0.007970628328621387,-0.012500112876296043,-0.020254407078027725
1761475511161368800,6.714368896484375,0.0066970884799957275,-0.018962165340781212,-0.024201184511184692
1761475511171346000,6.724345947265625,0.007188441697508097,-0.01876935362815857,-0.028050251305103302
1761475511181322800,6.73432275390625,0.004571771249175072,-0.013509660959243774,-0.027794934809207916
1761475511191299800,6.7442998046875,-0.0014973063953220844,0.007619591895490885,-0.022293109446763992
1761475511201277000,6.75427685546875,-0.00360104045830667,0.03150787949562073,-0.017916204407811165
1761475511211253800,6.764253662109375,0.0008102197316475213,0.04061828553676605,-0.006384717300534248
1761475511221231000,6.774231201171875,0.0023464993573725224,0.029239770025014877,0.002305603353306651
1761475511231208000,6.7842080078125,0.0029571624472737312,0.008189081214368343,0.0068273842334747314
1761475511241185800,6.794185791015625,0.003123918315395713,-0.01603519544005394,0.01628216914832592
1761475511251163000,6.804162841796875,-0.0020620550494641066,-0.02868201583623886,0.02182127721607685
1761475511261140000,6.814139892578125,-0.00476220203563571,-0.01807219348847866,0.02999579906463623
1761475511271117000,6.824116943359375,-0.0053630112670362,0.0032200454734265804,0.036404162645339966
1761475511281094000,6.834093994140625,-0.0037652761675417423,0.020418208092451096,0.040423400700092316
1761475511291071000,6.844071044921875,-0.0034065484069287777,0.027514733374118805,0.040775202214717865
1761475511301048000,6.854048095703125,-0.00231648376211524,0.022661708295345306,0.029177885502576828
1761475511311025000,6.86402490234375,-0.0014123407891020179,0.012107067741453648,0.02040570043027401
1761475511321002000,6.874001953125,0.001234276220202446,-0.004062101244926453,0.005544248037040234
1761475511330979800,6.883979736328125,0.0026500127278268337,-0.026939719915390015,-0.0056519475765526295
1761475511340957000,6.89395703125,-0.0006866402691230178,-0.036308448761701584,-0.012579496018588543
1761475511350934000,6.90393408203125,0.0027176784351468086,-0.024058442562818527,-0.022253694012761116
1761475511360910800,6.913910888671875,-0.00035660905996337533,-0.001358617446385324,-0.021384011954069138
1761475511370888000,6.923887939453125,0.0007837565499357879,0.006679069250822067,-0.029312243685126305
1761475511380864800,6.93386474609375,-0.0004107861313968897,-0.004237812012434006,-0.03593853488564491
1761475511390841900,6.943841796875,0.00012717238860204816,-0.019167760387063026,-0.037225641310214996
1761475511400819000,6.95381884765625,0.008193534798920155,-0.025978635996580124,-0.03808293864130974
1761475511410796000,6.963796142578125,0.013002671301364899,-0.03421712666749954,-0.03238457441329956
1761475511420774000,6.97377392578125,0.015091056935489178,-0.039183761924505234,-0.023428788408637047
1761475511430750700,6.983750732421875,0.013676386326551437,-0.023959267884492874,-0.010996886529028416
1761475511440728000,6.99372802734375,0.01164894737303257,0.0009438949637115002,0.005883350968360901
1761475511450705000,7.003704833984375,0.015696685761213303,0.015601933933794498,0.01753814145922661
1761475511460682000,7.013681884765625,0.015169668942689896,0.013412285596132278,0.027967477217316628
1761475511470659000,7.0236591796875,0.011216206476092339,-0.005208004266023636,0.03146021068096161
1761475511480636000,7.033635986328125,0.01005503535270691,-0.024411311373114586,0.03136918693780899
1761475511490613000,7.043613037109375,0.005776667036116123,-0.029166651889681816,0.03180328384041786
1761475511500589800,7.05358984375,0.0026767898816615343,-0.019383694976568222,0.02928129956126213
1761475511510568000,7.06356787109375,-0.0028655147179961205,-0.0018979109590873122,0.02643597684800625
1761475511520545000,7.073544921875,-0.008804172277450562,0.015134978108108044,0.018578076735138893
1761475511530521900,7.08352197265625,-0.010999149642884731,0.020967034623026848,0.01407413836568594
1761475511540499000,7.0934990234375,-0.01564169116318226,0.021256357431411743,0.000739984679967165
1761475511550475800,7.103475830078125,-0.014790810644626617,0.02491474151611328,-0.012857050634920597
1761475511560452900,7.113452880859375,-0.00948175135999918,0.03342375531792641,-0.027269890531897545
1761475511570430000,7.123429931640625,-0.0017487304285168648,0.04067873954772949,-0.03615526482462883
1761475511580406800,7.13340673828125,0.002786035183817148,0.025391023606061935,-0.043316662311553955
1761475511590384000,7.143384033203125,0.00565452640876174,0.009785964153707027,-0.03896106034517288
1761475511600361700,7.15336181640625,0.010588781908154488,0.007835518568754196,-0.0223228856921196
1761475511610338800,7.1633388671875,0.01698010228574276,0.009976699948310852,-0.008741827681660652
1761475511620316000,7.17331591796875,0.022714002057909966,0.0031143189407885075,0.008993840776383877
1761475511630293000,7.18329296875,0.029949277639389038,-0.0019070712151005864,0.02811560407280922
1761475511640270000,7.19327001953125,0.033147718757390976,-0.008321987465023994,0.043018948286771774
1761475511650247000,7.203246826171875,0.0379352830350399,-0.007406924851238728,0.047886405140161514
1761475511660224000,7.21322412109375,0.04304800555109978,-0.012887070886790752,0.04773170128464699
1761475511670200800,7.223200927734375,0.04636523872613907,-0.020319687202572823,0.04021226614713669
1761475511680178000,7.233177978515625,0.04865076392889023,-0.022794296965003014,0.0355922169983387
1761475511690156000,7.243156005859375,0.05082230269908905,-0.02078547328710556,0.024677248671650887
1761475511700132900,7.2531328125,0.054217398166656494,-0.01787421479821205,0.022463470697402954
1761475511710110000,7.26310986328125,0.05484750121831894,-0.015139147639274597,0.008274681866168976
1761475511720086800,7.273086669921875,0.05313088372349739,-0.01448129117488861,-0.006736680865287781
1761475511730064000,7.28306396484375,0.04312485456466675,-0.012199228629469872,-0.018017031252384186
1761475511740041000,7.293041015625,0.040628135204315186,-0.010219544172286987,-0.03106534667313099
1761475511750017800,7.303017822265625,0.038031019270420074,-0.008407794870436192,-0.0349130816757679
1761475511759995000,7.312994873046875,0.03756563365459442,-0.01347120851278305,-0.03529716283082962
1761475511769972000,7.322971923828125,0.04191084951162338,-0.013139910995960236,-0.0304920244961977
1761475511779949800,7.33294970703125,0.041088610887527466,-0.006045411340892315,-0.020375976338982582
1761475511789927000,7.342927001953125,0.038909610360860825,0.0010385969653725624,-0.010605105198919773
1761475511799903700,7.35290380859375,0.033841971307992935,0.0067293476313352585,0.005378145724534988
1761475511809881000,7.362881103515625,0.027117490768432617,0.010424217209219933,0.01699591986835003
1761475511819858000,7.37285791015625,0.023827219381928444,0.006499622482806444,0.0304663497954607
1761475511829835000,7.3828349609375,0.02278059720993042,-0.009072945453226566,0.04409534111618996
1761475511839812000,7.39281201171875,0.023693174123764038,-0.021808022633194923,0.05168905854225159
1761475511849789000,7.402788818359375,0.02153041958808899,-0.018098771572113037,0.05501960590481758
1761475511859766000,7.41276611328125,0.018713699653744698,-0.005404814146459103,0.04633689671754837
1761475511869743900,7.422743896484375,0.016169581562280655,0.0013790563680231571,0.03331829980015755
1761475511879721000,7.432720947265625,0.009985835291445255,-0.001144236302934587,0.014256808906793594
1761475511889698000,7.442697998046875,0.0018155236029997468,-0.0049845147877931595,-0.004324597772210836
1761475511899675000,7.4526748046875,-0.004092475399374962,-0.01222681812942028,-0.014203624799847603
1761475511909652000,7.46265185546875,-0.005563605576753616,-0.006489303894340992,-0.026853641495108604
1761475511919628800,7.47262890625,-0.007927611470222473,0.001806175336241722,-0.037409212440252304
1761475511929606000,7.48260595703125,-0.010099153034389019,0.00028284708969295025,-0.05074898526072502
1761475511939582700,7.492582763671875,-0.01045230496674776,-0.0005945578450337052,-0.05565210431814194
1761475511949559800,7.502559814453125,-0.012631303630769253,-0.001301627024076879,-0.05308641493320465
1761475511959537000,7.512536865234375,-0.012465443462133408,-0.0009999462636187673,-0.05175597593188286
1761475511969514500,7.522514404296875,-0.0037816741969436407,-0.009103146381676197,-0.04196353256702423
1761475511979491600,7.53249169921875,-0.0005659882444888353,-0.020866595208644867,-0.03224845975637436
1761475511989468700,7.54246875,-0.00011884351260960102,-0.03881816565990448,-0.02316707745194435
1761475511999445800,7.55244580078125,-0.001967811491340399,-0.04139440134167671,-0.0078071351163089275
1761475512009422800,7.5624228515625,-0.0011701949406415224,-0.025723295286297798,0.005808542016893625
1761475512019399700,7.572399658203125,0.0012501506134867668,-0.009037153795361519,0.016479456797242165
1761475512029376800,7.582376708984375,0.005517599638551474,-0.0011472724145278335,0.01365277823060751
1761475512039353600,7.592353515625,0.010990411974489689,-0.003226242493838072,0.013324118219316006
1761475512049330700,7.60233056640625,0.017717022448778152,-0.003472318407148123,0.012620510533452034
1761475512059308800,7.612308837890625,0.021152041852474213,-0.014067225158214569,0.009119567461311817
1761475512069285600,7.62228564453125,0.01807049661874771,-0.021208224818110466,0.004041452892124653
1761475512079262700,7.6322626953125,0.01255304180085659,-0.02117360569536686,0.005112977232784033
1761475512089239600,7.642239501953125,0.005515905097126961,-0.016645165160298347,0.009311184287071228
1761475512099216600,7.652216552734375,0.00020750693511217833,-0.007450867909938097,0.014226183295249939
1761475512109193500,7.662193359375,-0.0011552326614037156,0.005957348737865686,0.009149398654699326
1761475512119170600,7.672170654296875,0.0034673367626965046,0.020907964557409286,0.00636663194745779
1761475512129147600,7.682147705078125,0.006516390014439821,0.021068818867206573,0.001314881956204772
1761475512139124700,7.692124755859375,0.00121113914065063,0.008864935487508774,-0.005088741425424814
1761475512149101800,7.702101806640625,-0.005392168648540974,0.007667578756809235,-0.004936408717185259
1761475512159079700,7.71207958984375,-0.007175954058766365,0.005114672239869833,-0.001188542228192091
1761475512169056800,7.722056884765625,-0.0064561013132333755,0.0035809576511383057,0.000328927009832114
1761475512179033900,7.732033935546875,-0.005092574283480644,0.00361979054287076,0.0040972186252474785
1761475512189010700,7.7420107421875,-0.0032030611764639616,0.0058302138932049274,0.004960082937031984
1761475512198987800,7.75198779296875,-0.005132946185767651,0.005456781014800072,0.011421367526054382
1761475512208964600,7.761964599609375,-0.007679460570216179,0.0013595076743513346,0.015400929376482964
1761475512218941700,7.771941650390625,-0.012568088248372078,-0.004068492911756039,0.015136954374611378
1761475512228918800,7.781918701171875,-0.012963301502168179,-0.010453421622514725,0.01115313172340393
1761475512238895600,7.7918955078125,-0.013167114928364754,-0.01349528320133686,0.008094357326626778
1761475512248873700,7.801873779296875,-0.014059273526072502,-0.013512860052287579,0.0012875834945589304
1761475512258850600,7.8118505859375,-0.016933098435401917,-0.016131654381752014,0.0010930183343589306
1761475512268827600,7.82182763671875,-0.018742185086011887,-0.004937855992466211,0.0002754279412329197
1761475512278804700,7.8318046875,-0.01701432466506958,0.0016798328142613173,-0.0006478900322690606
1761475512288781600,7.841781494140625,-0.017880119383335114,0.004027143120765686,0.0006141819758340716
1761475512298758700,7.851758544921875,-0.017860589548945427,0.0038735861890017986,-0.0008356206817552447
1761475512308735500,7.861735595703125,-0.01637587696313858,0.0095562394708395,-0.006817612797021866
1761475512318712800,7.871712890625,-0.018365411087870598,0.01079306285828352,-0.014695960097014904
1761475512328689700,7.881689697265625,-0.011462230235338211,0.005249960348010063,-0.017446206882596016
1761475512338667500,7.89166748046875,-0.013918351382017136,0.006719279568642378,-0.014837822876870632
1761475512348644600,7.90164453125,-0.01234788540750742,0.01300434023141861,-0.01021910272538662
1761475512358621700,7.91162158203125,-0.008951839059591293,0.015367734245955944,0.0018975072307512164
1761475512368598800,7.921598876953125,-0.006337945815175772,0.015834853053092957,0.009781262837350368
1761475512378575600,7.93157568359375,-0.0021448470652103424,0.01569189503788948,0.022848406806588173
1761475512388552700,7.941552734375,-0.001227654400281608,0.011604209430515766,0.027622124180197716
1761475512398529800,7.95152978515625,-0.007303769234567881,0.008464289829134941,0.027480095624923706
1761475512408506600,7.961506591796875,-0.011023140512406826,-0.0009968563681468368,0.026199113577604294
1761475512418483700,7.971483642578125,-0.010394416749477386,-0.008771635591983795,0.018292266875505447
1761475512428460500,7.98146044921875,-0.011997106485068798,-0.01656191423535347,0.01639103703200817
1761475512438437600,7.991437744140625,-0.006471895147114992,-0.019368300214409828,0.01077344361692667
1761475512448414500,8.00141455078125,0.002256348729133606,-0.019717972725629807,0.008634925819933414
1761475512458392600,8.011392578125,0.007218438666313887,-0.008606946095824242,0.010312940925359726
1761475512468369700,8.02136962890625,0.01104327104985714,-0.008758746087551117,0.005951215513050556
1761475512478346500,8.031346435546874,0.0017167524201795459,-0.015851223841309547,-0.00042844554991461337
1761475512488323600,8.041323486328125,-0.005146479699760675,-0.02471528947353363,-0.013715222477912903
1761475512498300700,8.05130078125,-0.011520021595060825,-0.026987072080373764,-0.02372940257191658
1761475512508277800,8.06127783203125,-0.01435069553554058,-0.016634033992886543,-0.029515651986002922
1761475512518254800,8.0712548828125,-0.011695556342601776,0.003367052413523197,-0.024149863049387932
1761475512528231700,8.081231689453125,-0.006110907532274723,0.023704813793301582,-0.025015125051140785
1761475512538208800,8.091208740234375,0.0017365808598697186,0.028897499665617943,-0.024396657943725586
1761475512548187000,8.101186767578126,0.0010822422336786985,0.02858590893447399,-0.02123575285077095
1761475512558163700,8.111163818359374,0.000030059658456593752,0.019760778173804283,-0.014452734962105751
1761475512568140800,8.121140869140625,-0.004470416344702244,0.01009217370301485,-0.009978624060750008
1761475512578117600,8.13111767578125,-0.008460783399641514,-0.005407904274761677,-0.0031840181909501553
1761475512588094700,8.1410947265625,-0.013364994898438454,-0.015391029417514801,0.0033577706199139357
1761475512598071600,8.151071533203124,-0.014845406636595726,-0.010127129964530468,0.014346340671181679
1761475512608048600,8.161048583984375,-0.016108809038996696,0.013053822331130505,0.028695186600089073
1761475512618025700,8.171025634765625,-0.014727380126714706,0.02935497835278511,0.03503715619444847
1761475512628002600,8.18100244140625,-0.019243035465478897,0.02633122354745865,0.036935459822416306
1761475512637979600,8.190979736328124,-0.022367876023054123,0.004706675186753273,0.03344067558646202
1761475512647957500,8.20095751953125,-0.025989774614572525,-0.01870996691286564,0.017101649194955826
1761475512657934600,8.2109345703125,-0.02528289146721363,-0.027159644290804863,0.007900564931333065
1761475512667911700,8.22091162109375,-0.02143675461411476,-0.017346162348985672,0.002363053848966956
1761475512677888500,8.230888427734374,-0.023061629384756088,0.003267769468948245,-0.0020344932563602924
1761475512687865900,8.240865966796875,-0.022664284333586693,0.026700658723711967,-0.0011987935286015272
1761475512697842700,8.2508427734375,-0.02796880155801773,0.036669615656137466,-0.0004495938483159989
1761475512707819800,8.26081982421875,-0.030592547729611397,0.03193611279129982,-0.006101354490965605
1761475512717796600,8.270796630859374,-0.028083156794309616,0.015312660485506058,-0.013363257050514221
1761475512727773700,8.280773681640625,-0.02779686637222767,0.0013278692495077848,-0.023984741419553757
1761475512737751800,8.290751708984375,-0.015949778258800507,-0.005176208913326263,-0.025527803227305412
1761475512747728600,8.300728759765626,-0.00926231499761343,0.0063406312838196754,-0.02569291926920414
1761475512757705700,8.310705810546875,-0.0014545557787641883,0.014260446652770042,-0.015784738585352898
1761475512767682800,8.320682861328125,0.0019202018156647682,0.018564913421869278,-0.004972837865352631
1761475512777659600,8.33065966796875,0.00011067243758589029,0.013230443000793457,0.015204091556370258
1761475512787636700,8.34063671875,0.0004097453784197569,0.01553327962756157,0.027490852400660515
1761475512797613600,8.350613525390624,0.0000469986698590219,0.09227599203586578,0.03136615827679634
1761475512807590700,8.360590576171875,0.004938692785799503,0.11467983573675156,0.01054103672504425
1761475512817567500,8.3705673828125,0.01530678290873766,0.07134227454662323,-0.021807372570037842
1761475512827545600,8.380545654296874,0.016039418056607246,0.005129159428179264,-0.03919754922389984
1761475512837522700,8.390522705078125,0.009227383881807327,-0.044153064489364624,-0.03631238266825676
1761475512847499500,8.40049951171875,0.0034195617772638798,-0.0449054092168808,-0.032979704439640045
1761475512857476600,8.4104765625,0.004822094924747944,-0.018849249929189682,-0.020925886929035187
1761475512867453700,8.42045361328125,0.001283286139369011,0.005330653861165047,-0.008740859106183052
1761475512877430800,8.4304306640625,-0.005385535769164562,0.007581290788948536,-0.004504836164414883
1761475512887407900,8.440407958984375,-0.01127165462821722,-0.008531365543603897,-0.00102008949033916
1761475512897384700,8.450384765625,-0.013983487151563168,-0.030225370079278946,-0.008727381005883217
1761475512907361800,8.46036181640625,-0.004871747922152281,-0.035453952848911285,-0.00841339398175478
1761475512917339600,8.470339599609375,0.004630895331501961,-0.02193942479789257,-0.011545460671186447
1761475512927316700,8.480316650390625,0.0034713551867753267,-0.0003755418583750725,-0.005119252949953079
1761475512937293800,8.4902939453125,-0.002653228584676981,0.009563322179019451,-0.0012790592154487967
1761475512947270400,8.5002705078125,-0.008348132483661175,0.011451237834990025,-0.005101228132843971
1761475512957247500,8.51024755859375,-0.012845896184444427,0.008783761411905289,-0.004633654840290546
1761475512967224300,8.520224365234375,-0.010598188266158104,-0.007182687986642122,-0.011400747112929821
1761475512977201400,8.530201416015625,-0.01299531664699316,-0.02151385135948658,-0.019314303994178772
1761475512987178200,8.54017822265625,-0.00901761930435896,-0.023302696645259857,-0.018801113590598106
1761475512997155300,8.5501552734375,-0.007145262788981199,-0.005493391305208206,-0.016792908310890198
1761475513007132400,8.56013232421875,-0.006752979010343552,0.004542198963463306,-0.016307679936289787
1761475513017110300,8.5701103515625,-0.009393438696861267,0.0011366545222699642,-0.01711312308907509
1761475513027087400,8.58008740234375,-0.016226043924689293,-0.010831591673195362,-0.01645771972835064
1761475513037064200,8.590064208984375,-0.025281228125095367,-0.014926307834684849,-0.02823038026690483
1761475513047041500,8.60004150390625,-0.02318239025771618,-0.008811423555016518,-0.026553919538855553
1761475513057018600,8.6100185546875,-0.01898210123181343,0.011924534104764462,-0.03152409940958023
1761475513066995500,8.619995361328124,-0.01082723680883646,0.026354871690273285,-0.03657691553235054
1761475513076972500,8.62997265625,-0.010985790751874447,0.017004620283842087,-0.040778692811727524
1761475513086949400,8.639949462890625,-0.006157746538519859,-0.0004950109869241714,-0.04525333642959595
1761475513096926500,8.649926513671875,-0.00863572210073471,-0.015929201617836952,-0.04577334225177765
1761475513106903300,8.6599033203125,-0.00875236839056015,-0.01934177614748478,-0.04499836266040802
1761475513116881400,8.66988134765625,-0.006547165103256702,-0.00425683194771409,-0.03834525868296623
1761475513126858500,8.6798583984375,-0.0029758664313703775,0.025092268362641335,-0.032590169459581375
1761475513136835300,8.68983544921875,0.00041216611862182617,0.058572567999362946,-0.028788870200514793
1761475513146812400,8.6998125,0.0013376146089285612,0.07683999091386795,-0.028497254475951195
1761475513156789500,8.70978955078125,0.0043559931218624115,0.06808304041624069,-0.02670433558523655
1761475513166766300,8.719766357421875,0.003487270325422287,0.034339189529418945,-0.027945635840296745
1761475513176743400,8.729743408203126,0.0005177329294383526,-0.011306646279990673,-0.028502587229013443
1761475513186720300,8.73972021484375,-0.0025694032665342093,-0.04657648876309395,-0.01801266148686409
1761475513196697600,8.749697509765625,0.002157271374017,-0.05039609596133232,0.0010644705034792423
1761475513206674400,8.75967431640625,0.004091259092092514,-0.026779185980558395,0.015247667208313942
1761475513216652300,8.76965234375,0.008819871582090855,0.008556008338928223,0.027672534808516502
1761475513226629400,8.77962939453125,0.010633218102157116,0.03175320476293564,0.033950138837099075
1761475513236606500,8.7896064453125,0.013921337202191353,0.0340551920235157,0.02026103436946869
1761475513246583600,8.79958349609375,0.011880557052791119,0.01403727475553751,0.0019422147888690233
1761475513256560400,8.809560302734376,0.009484756737947464,-0.01041608490049839,-0.012116149999201298
1761475513266537500,8.819537353515624,0.007377130910754204,-0.028604675084352493,-0.022283833473920822
1761475513276514600,8.8295146484375,0.0008350600837729871,-0.03634584695100784,-0.025975747033953667
1761475513286491400,8.839491455078125,-0.0030739279463887215,-0.04076535999774933,-0.02612435258924961
1761475513296468500,8.849468505859376,-0.004844195209443569,-0.032169315963983536,-0.026011329144239426
1761475513306445300,8.8594453125,0.0016011872794479132,-0.016477972269058228,-0.025867784395813942
1761475513316423400,8.86942333984375,0.007219578139483929,0.002155100693926215,-0.030359875410795212
1761475513326400500,8.879400390625,0.007360725663602352,0.020669663324952126,-0.02896357886493206
1761475513336377300,8.88937744140625,0.010899773798882961,0.018755117431282997,-0.030378373339772224
1761475513346354400,8.8993544921875,0.01270326692610979,0.00496260542422533,-0.02734130434691906
1761475513356331300,8.909331298828125,0.005754435434937477,-0.009755941107869148,-0.015543853864073753
1761475513366308400,8.919308349609375,0.0071762967854738235,-0.02541160024702549,0.002806658623740077
1761475513376285400,8.929285400390626,-0.0000865321489982307,-0.03617625683546066,0.0202993992716074
1761475513386262500,8.939262451171874,-0.00593536626547575,-0.04489384964108467,0.035017892718315125
1761475513396239600,8.949239501953125,-0.009971813298761845,-0.04421873763203621,0.037890899926424026
1761475513406216400,8.959216552734375,-0.017704036086797714,-0.029431801289319992,0.036569174379110336
1761475513416194600,8.969194580078126,-0.019031338393688202,-0.008640608750283718,0.030855869874358177
1761475513426171600,8.979171630859375,-0.017168989405035973,0.009112555533647537,0.02071242220699787
1761475513436148500,8.9891484375,-0.01094098575413227,0.01952540874481201,0.011363232508301735
1761475513446125600,8.99912548828125,-0.008361713960766792,0.029538895934820175,0.004352993797510862
1761475513456102400,9.009102294921876,-0.006814934313297272,0.03105252794921398,-0.0024375603534281254
1761475513466079500,9.01907958984375,-0.007176592014729977,0.023691551759839058,-0.00982729997485876
1761475513476056300,9.029056396484375,-0.009153562597930431,0.022094454616308212,-0.009429150260984898
1761475513486033400,9.039033447265625,-0.0099863326177001,0.010723821818828583,-0.007527120411396027
1761475513496010500,9.049010498046876,-0.012868719175457954,0.0026883187238126993,-0.001023070770315826
1761475513505987300,9.0589873046875,-0.01658223196864128,0.003355174558237195,0.008867909200489521
1761475513515965400,9.06896533203125,-0.013754002749919891,0.0055107902735471725,0.012837961316108704
1761475513525942300,9.0789423828125,-0.011554498225450516,0.003066540928557515,0.015894737094640732
1761475513535919400,9.08891943359375,-0.012249690480530262,-0.012568078935146332,0.014979151077568531
1761475513545896400,9.098896484375,-0.014889681711792946,-0.038406867533922195,0.0008313740836456418
1761475513555873300,9.108873291015625,-0.017289945855736732,-0.04165070503950119,-0.015294503420591354
1761475513565850600,9.1188505859375,-0.016221219673752785,-0.035536352545022964,-0.016796525567770004
1761475513575827500,9.128827392578126,-0.0207261573523283,-0.025182407349348068,-0.022474223747849464
1761475513585804500,9.138804443359374,-0.027123602107167244,-0.02771960012614727,-0.02979285642504692
1761475513595781400,9.148781494140625,-0.028827521950006485,-0.019916538149118423,-0.03353365510702133
1761475513605758500,9.158758544921875,-0.02435074746608734,0.004984550178050995,-0.03609028831124306
1761475513615735600,9.168735595703126,-0.018617307767271996,0.015446512028574944,-0.03879140317440033
1761475513625713400,9.17871337890625,-0.010780690237879753,0.010748162865638733,-0.036533307284116745
1761475513635690500,9.1886904296875,-0.005974142346531153,0.0051056700758636,-0.03469914570450783
1761475513645667300,9.198667236328125,-0.0017895172350108624,-0.0013013629941269755,-0.028305428102612495
1761475513655644400,9.20864453125,-0.003888338338583708,0.0019278796389698982,-0.014525460079312325
1761475513665621500,9.21862158203125,-0.004246799740940332,0.016005082055926323,0.003344350727275014
1761475513675598300,9.228598388671875,-0.0038817233871668577,0.03368458151817322,0.020796215161681175
1761475513685575400,9.238575439453125,-0.0031530826818197966,0.041560348123311996,0.03484385833144188
1761475513695552300,9.24855224609375,-0.0007069374551065266,0.026832591742277145,0.038602858781814575
1761475513705529300,9.258529296875,-0.005764280445873737,0.009652006439864635,0.030944406986236572
1761475513715506400,9.26850634765625,-0.00877799279987812,-0.003107464872300625,0.022450383752584457
1761475513725484300,9.278484375,-0.01479354128241539,-0.001745524350553751,0.013119732029736042
1761475513735461400,9.28846142578125,-0.01656302623450756,0.016050782054662704,-0.0004239112895447761
1761475513745438500,9.2984384765625,-0.014203996397554874,0.046923745423555374,-0.019295869395136833
1761475513755415600,9.30841552734375,-0.013059557415544987,0.06656216084957123,-0.03860018774867058
1761475513765392600,9.318392578125,-0.00916361901909113,0.07358305156230927,-0.058015961199998856
1761475513775369500,9.328369384765624,-0.007998555898666382,0.05969078093767166,-0.07010297477245331
1761475513785346600,9.3383466796875,-0.007162056863307953,0.03507997468113899,-0.06555775552988052
1761475513795323400,9.348323486328125,-0.008659765124320984,0.012605025433003902,-0.05125070735812187
1761475513805300500,9.358300537109375,-0.00549273332580924,0.009251839481294155,-0.030707884579896927
1761475513815277300,9.36827734375,-0.0016067763790488243,0.007148527540266514,-0.009446064941585064
1761475513825255400,9.37825537109375,0.006334769539535046,0.008583971299231052,0.008858107961714268
1761475513835232500,9.388232421875,0.011412522755563259,-0.000831261626444757,0.024977311491966248
1761475513845209300,9.398209228515626,0.008142693899571896,-0.013484738767147064,0.0443536713719368
1761475513855186400,9.4081865234375,0.012456844560801983,-0.02382589876651764,0.05071873962879181
1761475513865163300,9.418163330078125,0.01382198091596365,-0.013510944321751595,0.0564221628010273
1761475513875140400,9.428140380859375,0.020959770306944847,-0.007462533190846443,0.04986308887600899
1761475513885117400,9.438117431640626,0.021983489394187927,-0.0025918774772435427,0.0324510782957077
1761475513895094300,9.44809423828125,0.02458970621228218,-0.003678766544908285,0.001847284147515893
1761475513905071600,9.458071533203125,0.02174251899123192,-0.003863323712721467,-0.023961141705513
1761475513915048400,9.46804833984375,0.02108977921307087,-0.002661971841007471,-0.0520191453397274
1761475513925026300,9.4780263671875,0.022500455379486084,0.013120453804731369,-0.07448237389326096
1761475513935003400,9.48800341796875,0.024715455248951912,0.03292899206280708,-0.079632468521595
1761475513944980500,9.49798046875,0.024684295058250427,0.056936588138341904,-0.07517912983894348
1761475513954957800,9.507957763671875,0.026074981316924095,0.06855393946170807,-0.07090553641319275
1761475513964935000,9.517934814453126,0.022056538611650467,0.08866400271654129,-0.06262816488742828
1761475513974911700,9.527911865234374,0.01753365993499756,0.07053022086620331,-0.054085224866867065
1761475513984888800,9.537888916015625,0.009045900776982307,0.03829504922032356,-0.041207510977983475
1761475513994866000,9.547865966796875,0.010104789398610592,-0.01633261702954769,-0.0246858149766922
1761475514004842800,9.5578427734375,0.01045526098459959,-0.05321899428963661,-0.0010087155969813466
1761475514014819800,9.56781982421875,0.01323674526065588,-0.05138780549168587,0.027774333953857422
1761475514024796700,9.577796630859375,0.012133664451539516,-0.03227110207080841,0.051439449191093445
1761475514034774800,9.58777490234375,0.013391784392297268,-0.006831630133092403,0.06899936497211456
1761475514044752000,9.597751953125,0.01265808381140232,0.013233425095677376,0.0703333392739296
1761475514054728700,9.607728759765624,0.01334115769714117,0.022441036999225616,0.06243827939033508
1761475514064705800,9.617705810546875,0.013876719400286674,0.01855894736945629,0.052343033254146576
1761475514074682600,9.6276826171875,0.01705132983624935,0.011053253896534443,0.04264403507113457
1761475514084659700,9.63765966796875,0.022226383909583092,-0.001297954237088561,0.03405933454632759
1761475514094636800,9.64763671875,0.023068604990839958,-0.014926999807357788,0.01573444902896881
1761475514104614000,9.65761376953125,0.018776120617985725,-0.026149827986955643,0.009553252719342709
1761475514114591000,9.667591064453125,0.013342083431780338,-0.029882406815886497,-0.007514378521591425
1761475514124567800,9.67756787109375,0.00869007408618927,-0.022282544523477554,-0.01450730673968792
1761475514134545000,9.687544921875,0.00592467887327075,-0.0004759938456118107,-0.016940155997872353
1761475514144523000,9.69752294921875,0.006262900307774544,0.019852446392178535,-0.02004460245370865
1761475514154499800,9.707499755859375,0.0025297573301941156,0.009468726813793182,-0.021359365433454514
1761475514164477000,9.717476806640626,0.0012852621730417013,-0.017876610159873962,-0.02403797209262848
1761475514174453800,9.727453857421875,-0.0014141818974167109,-0.04590249061584473,-0.02204315923154354
1761475514184430800,9.737430908203125,-0.0021681226789951324,-0.053356945514678955,-0.01898105815052986
1761475514194407700,9.74740771484375,-0.0029438058845698833,-0.05131760612130165,-0.0157457385212183
1761475514204384800,9.757384765625,0.0017891640309244394,-0.04058826342225075,-0.02105128765106201
1761475514214361900,9.76736181640625,0.009557903744280338,-0.02222571149468422,-0.017410797998309135
1761475514224338700,9.777338623046875,0.01837403140962124,-0.0025998130440711975,-0.013171046040952206
1761475514234315800,9.787315673828125,0.02873522974550724,0.01371854729950428,-0.007024847902357578
1761475514244292900,9.79729296875,0.03222344070672989,0.01128122117370367,0.0005707535892724991
1761475514254270700,9.807270751953125,0.02170160599052906,-0.003035929286852479,0.009438569657504559
1761475514264247800,9.817247802734375,0.012451915070414543,-0.004851672798395157,0.009441233240067959
1761475514274224600,9.827224609375,0.00717101851478219,0.002348339417949319,0.010422688908874989
1761475514284202000,9.837201904296874,0.007782480213791132,0.011858487501740456,0.004497954156249762
1761475514294178800,9.8471787109375,0.011307679116725922,0.004089249763637781,-0.001421573106199503
1761475514304156000,9.857156005859375,0.016063552349805832,-0.011652962304651737,-0.0046360082924366
1761475514314132700,9.8671328125,0.017028916627168655,-0.024003690108656883,0.0005313740111887455
1761475514324109800,9.87710986328125,0.01820896379649639,-0.022313648834824562,0.007375698070973158
1761475514334087000,9.8870869140625,0.017798617482185364,-0.005626334808766842,0.007370827719569206
1761475514344064800,9.897064697265625,0.018646035343408585,0.01824411004781723,0.017512677237391472
1761475514354041900,9.907041748046876,0.01768265850841999,0.01660115271806717,0.017843620851635933
1761475514364019000,9.91701904296875,0.014089521951973438,-0.00620163232088089,0.011312752030789852
1761475514373995800,9.926995849609375,0.0078955739736557,-0.03337540850043297,0.0018385046860203147
1761475514383972900,9.936972900390625,0.010075371712446213,-0.03963037580251694,0.0029602281283587217
1761475514393949700,9.94694970703125,0.012241165153682232,-0.028944121673703194,0.009259490296244621
1761475514403926800,9.9569267578125,0.01652565784752369,-0.013387264683842659,0.008645365945994854
1761475514413903600,9.966903564453125,0.016537893563508987,-0.002463138196617365,0.009163642302155495
1761475514423880700,9.976880615234375,0.014445447362959385,0.008535184897482395,-0.004191844258457422
1761475514433857800,9.98685791015625,0.009989430196583271,0.0021711343433707952,-0.015116903930902481
1761475514443835000,9.9968349609375,0.009398741647601128,0.004230024293065071,-0.023014241829514503
1761475514453812700,10.006812744140625,0.013091949746012688,0.010763449594378471,-0.021195998415350914
1761475514463789800,10.016789794921875,0.017354071140289307,0.0017755478620529175,-0.022388562560081482
1761475514473767000,10.026766845703126,0.024179454892873764,-0.009613247588276863,-0.021749619394540787
1761475514483744000,10.036743896484374,0.02296372316777706,-0.020709041506052017,-0.02001776732504368
1761475514493720800,10.046720947265625,0.025253035128116608,-0.02474873885512352,-0.018073057755827904
1761475514503698000,10.056697998046875,0.021189317107200623,-0.023926887661218643,-0.009084622375667095
1761475514513674800,10.0666748046875,0.019248783588409424,-0.015781555324792862,-0.004496176727116108
1761475514523651800,10.07665185546875,0.022491715848445892,-0.013628656044602394,0.0020533353090286255
1761475514533628700,10.086628662109375,0.026828298345208168,-0.004721712786704302,0.010928861796855927
1761475514543605800,10.096605712890625,0.02859583869576454,-0.0003461390733718872,0.01931382343173027
1761475514553582800,10.106582763671875,0.02356342040002346,-0.008755124174058437,0.020764093846082687
1761475514563559700,10.1165595703125,0.01657049171626568,-0.010168463923037052,0.018401604145765305
1761475514573537800,10.126537841796875,0.016075221821665764,-0.004240266513079405,0.014406468719244003
1761475514583514600,10.1365146484375,0.015039519406855106,0.006239272188395262,0.0039825900457799435
1761475514593491700,10.14649169921875,0.020002128556370735,0.016653774306178093,0.0014776632888242602
1761475514603468800,10.15646875,0.027036869898438454,0.02091802842915058,0.0018790016183629632
1761475514613445600,10.166445556640625,0.024426613003015518,0.028517253696918488,0.0026092235930263996
1761475514623423000,10.176423095703125,0.02354244515299797,0.033858221024274826,0.006044701673090458
1761475514633399800,10.18639990234375,0.01949622668325901,0.033036425709724426,0.012437047436833382
1761475514643377000,10.196376953125,0.010158650577068329,0.024626431986689568,0.013164090923964977
1761475514653353700,10.206353759765625,0.003729013027623296,0.002401606645435095,0.016971826553344727
1761475514663330800,10.216330810546875,-0.0017562999855726957,-0.006345812231302261,0.018267188221216202
1761475514673309000,10.226308837890626,-0.005152128171175718,-0.007217252627015114,0.01916179433465004
1761475514683285800,10.23628564453125,-0.00585174048319459,-0.008736053481698036,0.021192189306020737
1761475514693262800,10.246262939453125,-0.006944374646991491,-0.0135659109801054,0.013935673050582409
1761475514703240000,10.256239990234375,-0.003862831275910139,-0.006200140342116356,0.0046905092895030975
1761475514713216800,10.266216796875,0.0003529689274728298,0.0027602247428148985,-0.007189610973000526
1761475514723193900,10.27619384765625,-0.006023704074323177,0.0037517196033149958,-0.02310279756784439
1761475514733170700,10.286170654296875,-0.017425917088985443,-0.004325859248638153,-0.039457980543375015
1761475514743147800,10.296147705078125,-0.026450306177139282,-0.020389514043927193,-0.05260920524597168
1761475514753124600,10.30612451171875,-0.03651377931237221,-0.022852404043078423,-0.06296183168888092
1761475514763101700,10.316101806640624,-0.03329614922404289,-0.010883092880249023,-0.06364493072032928
1761475514773079000,10.3260791015625,-0.021202359348535538,0.003477733815088868,-0.06186675652861595
1761475514783056600,10.336056640625,-0.009353156201541424,-0.000568140298128128,-0.05408686399459839
1761475514793033700,10.34603369140625,0.002178549999371171,-0.0036576204001903534,-0.04150521382689476
1761475514803010800,10.3560107421875,0.009497716091573238,-0.0016509287524968386,-0.021869461983442307
1761475514812988000,10.36598779296875,0.0015315284254029393,0.019598115235567093,-0.0038637681864202023
1761475514822965000,10.375965087890625,-0.006043566856533289,0.010236572474241257,0.007630435284227133
1761475514832941800,10.38594189453125,-0.018974199891090393,-0.005821756087243557,0.02645539492368698
1761475514842919000,10.3959189453125,-0.020236805081367493,-0.007939768023788929,0.030803536996245384
1761475514852895700,10.405895751953125,-0.012386527843773365,-0.022535543888807297,0.037283580750226974
1761475514862872800,10.415872802734375,-0.008000834845006466,-0.030098654329776764,0.0388343371450901
1761475514872849700,10.425849609375,-0.006891846656799316,-0.012892024591565132,0.038472339510917664
1761475514882826800,10.43582666015625,-0.01464217808097601,0.02263481169939041,0.03337797895073891
1761475514892804900,10.445804931640625,-0.019640633836388588,0.05084812641143799,0.023602528497576714
1761475514902781700,10.45578173828125,-0.0343782976269722,0.03052927367389202,0.013140033930540085
1761475514912758800,10.4657587890625,-0.044967763125896454,-0.00928567722439766,0.020766692236065865
1761475514922735600,10.475735595703124,-0.045339807868003845,-0.026293423026800156,0.030630774796009064
1761475514932712700,10.485712646484375,-0.03239349275827408,-0.028456229716539383,0.03789712116122246
1761475514942689800,10.495689697265625,-0.017511483281850815,-0.014342541806399822,0.03509574010968208
1761475514952667000,10.5056669921875,-0.01420816034078598,0.008011715486645699,0.027493685483932495
1761475514962643700,10.515643798828124,-0.021834388375282288,0.025072725489735603,0.0118441516533494
1761475514972620800,10.525620849609375,-0.030731212347745895,0.02712516486644745,-0.01021198183298111
1761475514982597600,10.53559765625,-0.031559187918901443,0.024222319945693016,-0.033165235072374344
1761475514992574700,10.54557470703125,-0.024749530479311943,0.008545465767383575,-0.05050303786993027
1761475515002552800,10.555552734375,-0.023815559223294258,-0.001373477978631854,-0.05335661396384239
1761475515012529700,10.56552978515625,-0.02382635697722435,-0.0072256168350577354,-0.04354583099484444
1761475515022506800,10.5755068359375,-0.02744079753756523,-0.007666369900107384,-0.024451766163110733
1761475515032483600,10.585483642578126,-0.02692842110991478,-0.004347166046500206,0.0006371014751493931
1761475515042460700,10.595460693359374,-0.015265107154846191,-0.008019665256142616,0.018448589369654655
1761475515052437800,10.605437744140625,0.0017568160546943545,-0.014511545188724995,0.026298154145479202
1761475515062414600,10.61541455078125,0.017314204946160316,-0.05388851463794708,0.0336652547121048
1761475515072391700,10.6253916015625,0.013505085371434689,-0.08904489874839783,0.055985476821660995
1761475515082368500,10.635368408203124,-0.0027966569177806377,-0.061364803463220596,0.08475054800510406
1761475515092345600,10.645345703125,-0.009978732094168663,-0.030523641034960747,0.09860707819461823
1761475515102322700,10.65532275390625,-0.004554406274110079,-0.032747115939855576,0.10164441168308258
1761475515112300500,10.665300537109376,0.00037222367245703936,-0.05714486166834831,0.09332791715860367
1761475515122277600,10.675277587890625,0.0004401342594064772,-0.046621646732091904,0.07297204434871674
1761475515132254700,10.685254638671875,0.010167689993977547,-0.025546085089445114,0.05441674590110779
1761475515142231800,10.695231689453125,0.03234356641769409,-0.010988980531692505,0.027673816308379173
1761475515152208600,10.705208740234376,0.03713752329349518,-0.030796241015195847,0.001905602402985096
1761475515162185700,10.715185791015625,0.036935120820999146,-0.021715128794312477,-0.012522338889539242
1761475515172162800,10.725162841796875,0.027656136080622673,0.0037236525677144527,-0.013339396566152573
1761475515182139600,10.7351396484375,0.0103394640609622,0.043757885694503784,-0.005607441067695618
1761475515192116700,10.74511669921875,0.0001508984132669866,0.07768304646015167,-0.006300484295934439
1761475515202093600,10.755093505859374,0.0011610353831201792,0.07150211185216904,-0.01750919781625271
1761475515212070700,10.765070556640625,0.007107059471309185,0.04445675387978554,-0.021593661978840828
1761475515222048800,10.775048828125,0.0118253817781806,0.03313645347952843,-0.013806045986711979
1761475515232025600,10.785025634765624,0.00783565267920494,0.037529390305280685,0.00045366096310317516
1761475515242002700,10.795002685546875,0.003094427054747939,0.04105248302221298,0.011140127666294575
1761475515251979500,10.8049794921875,0.02127993293106556,0.07183202356100082,0.015295545570552349
1761475515261956600,10.81495654296875,0.05635056644678116,0.06317861378192902,0.08544453978538513
1761475515271933700,10.82493359375,0.05098116770386696,-0.04862929880619049,0.18186816573143005
1761475515281910800,10.834910888671875,0.04916835203766823,-0.13447098433971405,0.24212245643138885
1761475515291887900,10.844887939453125,0.04144355654716492,-0.1919068843126297,0.26721587777137756
1761475515301864700,10.85486474609375,0.0393119640648365,-0.2151578813791275,0.2646520733833313
1761475515311841800,10.864841796875,0.006383306812494993,-0.13295328617095947,0.21426531672477722
1761475515321818600,10.874818603515624,-0.05091486871242523,-0.10773102939128876,0.11551104485988617
1761475515331795700,10.884795654296875,-0.07771684974431992,-0.05897759646177292,-0.018131565302610397
1761475515341773800,10.89477392578125,-0.0260350089520216,0.08627413958311081,-0.13642652332782745
1761475515351750700,10.904750732421874,0.05336674675345421,0.23640349507331848,-0.223902627825737
