time,seconds_elapsed,z,y,x
1761476319831320600,0.117320556640625,-0.0015680133365094662,-0.052609339356422424,-0.004980613011866808
1761476319841353700,0.127353759765625,0.0008018789812922478,-0.07258103787899017,-0.008325678296387196
1761476319851387600,0.1373876953125,0.0016626128926873207,-0.06193425506353378,-0.007340841460973024
1761476319861420500,0.147420654296875,0.001172850839793682,-0.03433356434106827,-0.0030918344855308533
1761476319871453400,0.157453369140625,0.0029246779158711433,-0.000008345581591129303,0.0005737403407692909
1761476319881487600,0.167487548828125,0.0010327808558940887,0.02857864275574684,0.0016511231660842896
1761476319891520800,0.177520751953125,0.001780063845217228,0.04350725933909416,0.001509975641965866
1761476319901553700,0.1875537109375,0.005833521485328674,0.04193210229277611,0.003139818087220192
1761476319911587800,0.197587890625,0.002300838939845562,0.03431785851716995,0.002702261321246624
1761476319921620500,0.207620361328125,-0.004453776869922876,0.038823097944259644,0.00543147511780262
1761476319931653600,0.217653564453125,-0.014573789201676846,0.036909617483615875,0.009387601166963577
1761476319941686500,0.2276865234375,-0.017943430691957474,0.021274590864777565,0.00046454742550849915
1761476319951720700,0.237720703125,-0.003520550671964884,-0.0344371423125267,-0.01697276532649994
1761476319961753600,0.247753662109375,0.014116885140538216,-0.10403323918581009,-0.022654816508293152
1761476319971786800,0.257786865234375,0.02333861216902733,-0.16387632489204407,-0.0172286257147789
1761476319981820700,0.267820556640625,0.020520616322755814,-0.17234671115875244,-0.006447816267609596
1761476319991853800,0.277853759765625,0.01989584043622017,-0.1275949627161026,-0.00009937305003404617
1761476320001886700,0.28788671875,0.017635593190789223,-0.03723457455635071,0.006873640231788158
1761476320011920600,0.297920654296875,0.01521291583776474,0.06477701663970947,0.012768547050654888
1761476320021953500,0.30795361328125,0.009091059677302837,0.13766765594482422,0.0205363929271698
1761476320031986700,0.317986572265625,0.0006072940304875374,0.1614353060722351,0.023951895534992218
1761476320042019600,0.32801953125,-0.005885208025574684,0.1324264109134674,0.01743747480213642
1761476320052053800,0.3380537109375,-0.009757976979017258,0.07249170541763306,0.010703938081860542
1761476320062086700,0.348086669921875,-0.008133293129503727,0.014467842876911163,-0.0021207788959145546
1761476320072119800,0.358119873046875,-0.010016946122050285,-0.020900534465909004,-0.010009328834712505
1761476320082153500,0.368153564453125,-0.007568104192614555,-0.038869209587574005,-0.013569176197052002
1761476320092186600,0.3781865234375,-0.010215818881988525,-0.03160090744495392,-0.005436415318399668
1761476320102219500,0.388219482421875,-0.015219146385788918,-0.011860806494951248,-0.0019474131986498833
1761476320112253700,0.398253662109375,-0.019169148057699203,-0.00013570580631494522,-0.0032523619011044502
1761476320122286600,0.40828662109375,-0.011889133602380753,-0.007577681913971901,-0.009536153636872768
1761476320132319700,0.41831982421875,-0.00609569251537323,-0.026627805083990097,-0.01117346528917551
1761476320142353400,0.428353515625,0.0009357864037156105,-0.048072315752506256,-0.0116813275963068
1761476320152386600,0.438386474609375,0.006036804988980293,-0.05616992339491844,-0.007659688126295805
1761476320162419500,0.44841943359375,0.006182282231748104,-0.04311006888747215,-0.0020736465230584145
1761476320172452600,0.45845263671875,0.006869910284876823,-0.01307147927582264,-0.0010073166340589523
1761476320182486500,0.468486572265625,0.004946528933942318,0.026715870946645737,0.0031914766877889633
1761476320192519700,0.478519775390625,0.0035779308527708054,0.05723383277654648,0.005483659915626049
1761476320202552600,0.488552490234375,0.0007537528872489929,0.07064754515886307,0.0051469095051288605
1761476320212586800,0.498586669921875,-0.0009365556761622429,0.05622093752026558,0.004282182082533836
1761476320222619600,0.50861962890625,0.0023000380024313927,0.026698850095272064,-0.0006482647731900215
1761476320232652500,0.518652587890625,0.0029964549466967583,-0.01069006696343422,-0.0021950285881757736
1761476320242686500,0.5286865234375,0.007149922661483288,-0.04164049029350281,-0.0029899217188358307
1761476320252719600,0.5387197265625,0.0071097081527113914,-0.05324840918183327,0.0006151990965008736
1761476320262752500,0.54875244140625,0.009326419793069363,-0.041136227548122406,-0.0021793385967612267
1761476320272786700,0.55878662109375,0.006823047995567322,-0.01281723752617836,0.0023461710661649704
1761476320282819600,0.568819580078125,0.00145725067704916,0.017371829599142075,0.0015045087784528732
1761476320292852700,0.578852783203125,-0.0037143416702747345,0.03517666086554527,-0.0029397746548056602
1761476320302886700,0.58888671875,-0.010154818184673786,0.03871951252222061,-0.004159918054938316
1761476320312919600,0.59891943359375,-0.009142017923295498,0.025741394609212875,-0.005118390079587698
1761476320322952400,0.608952392578125,-0.006671352777630091,0.0062497686594724655,-0.005480037536472082
1761476320332986600,0.618986572265625,-0.0050564119592309,-0.022529948502779007,-0.00669896649196744
1761476320343019800,0.629019775390625,-0.002880072221159935,-0.03752290830016136,-0.0033309534192085266
1761476320353052700,0.639052734375,-0.0011349027045071125,-0.035565488040447235,-0.0018603559583425522
1761476320363086600,0.649086669921875,0.00047801434993743896,-0.024078235030174255,-0.0020622313022613525
1761476320373119500,0.659119384765625,0.0024556778371334076,-0.004165247548371553,0.003969562239944935
1761476320383152600,0.669152587890625,-0.0002354523167014122,0.014720957726240158,0.0032489392906427383
1761476320393185500,0.679185546875,-0.0023814276792109013,0.0289401076734066,0.004558148793876171
1761476320403219700,0.6892197265625,-0.003551510628312826,0.03288574516773224,0.004365942440927029
1761476320413252600,0.699252685546875,-0.005686833057552576,0.030034033581614494,0.0029882891103625298
1761476320423285800,0.70928564453125,-0.004129734355956316,0.017343562096357346,-0.003372225910425186
1761476320433319700,0.719319580078125,-0.0028554117307066917,-0.005949243437498808,-0.0038638459518551826
1761476320443352600,0.7293525390625,0.00213742908090353,-0.02463613636791706,-0.0008283322677016258
1761476320453385500,0.739385498046875,0.002655413933098316,-0.036759644746780396,-0.0008309949189424515
1761476320463419600,0.749419677734375,0.0042415400967001915,-0.034638289362192154,-0.0012934496626257896
1761476320473452500,0.75945263671875,0.0003029908984899521,-0.023861542344093323,-0.0018172934651374817
1761476320483485700,0.769485595703125,0.0011119525879621506,-0.012208085507154465,-0.0016461033374071121
1761476320493522700,0.779522705078125,0.0014421837404370308,0.0026393039152026176,-0.0004905574023723602
1761476320503555800,0.789555908203125,-0.0031591756269335747,0.004610816016793251,-0.0013575954362750053
1761476320513588700,0.799588623046875,-0.002211622893810272,0.0006624134257435799,0.00023710541427135468
1761476320523622700,0.80962255859375,-0.0020955591462552547,-0.010357094928622246,-0.0007524425163865089
1761476320533655600,0.819655517578125,0.0009276615455746651,-0.015755055472254753,0.00013758614659309387
1761476320543688700,0.829688720703125,-0.002706510480493307,-0.01630588434636593,0.0005539348348975182
1761476320553723000,0.839722900390625,0.0009750435128808022,-0.0031847567297518253,0.0014990903437137604
1761476320563755800,0.849755859375,-0.004316811915487051,0.012895063497126102,0.0021487893536686897
1761476320573788700,0.85978857421875,-0.005672627128660679,0.029958734288811684,0.005957108922302723
1761476320583822800,0.86982275390625,-0.0035796938464045525,0.029360156506299973,0.004157384857535362
1761476320593855700,0.879855712890625,-0.004790100269019604,0.02628207579255104,0.0013086004182696342
1761476320603889700,0.8898896484375,-0.0033640298061072826,0.010244935750961304,0.0029737483710050583
1761476320613922800,0.8999228515625,0.00040540844202041626,-0.008018223568797112,-0.0023722806945443153
1761476320623955700,0.909955810546875,0.004311726428568363,-0.02599317952990532,-0.0040385182946920395
1761476320633990000,0.919989990234375,0.005760752595961094,-0.02593565359711647,-0.001666175201535225
1761476320644022800,0.930022705078125,0.0051155854016542435,-0.020230233669281006,-0.0013998113572597504
1761476320654056000,0.940055908203125,0.005131031386554241,-0.006395644508302212,-0.00302327424287796
1761476320664089600,0.950089599609375,0.00307585671544075,0.01164337806403637,-0.0009295586496591568
1761476320674122800,0.960122802734375,-0.0005694786086678505,0.024775691330432892,0.00011120457202196121
1761476320684155600,0.97015576171875,-0.002866175025701523,0.025521008297801018,0.004065262153744698
1761476320694189800,0.98018994140625,-0.0024184975773096085,0.01784045249223709,-0.0019683968275785446
1761476320704222700,0.99022265625,-0.0011828611604869366,0.0004196586087346077,-0.0028135553002357483
1761476320714256000,1.000255859375,0.0012512682005763054,-0.011125678196549416,-0.0016130022704601288
1761476320724289500,1.01028955078125,0.0016633197665214539,-0.01851055398583412,-0.0009032431989908218
1761476320734322700,1.02032275390625,0.0023946240544319153,-0.01657683029770851,-0.002199936658143997
1761476320744355600,1.03035546875,-0.0006831847131252289,-0.006831311155110598,-0.0012860428541898727
1761476320754389800,1.0403896484375,-0.0002717263996601105,0.005668501369655132,0.0003781663253903389
1761476320764422700,1.050422607421875,0.00002972874790430069,0.009672927670180798,-0.0008594691753387451
1761476320774455800,1.060455810546875,-0.0013194289058446884,0.011554451659321785,0.001698230393230915
1761476320784489700,1.07048974609375,0.00007158424705266953,0.004860465414822102,-0.0016609067097306252
1761476320794523000,1.08052294921875,0.0013128835707902908,-0.0009361710399389267,-0.002989823929965496
1761476320804555800,1.0905556640625,0.0003720642998814583,-0.0032994593493640423,-0.0039100656285882
1761476320814589700,1.100589599609375,-0.00008972827345132828,-0.00400732783600688,-0.0008463654667139053
1761476320824622600,1.11062255859375,-0.0010264813899993896,-0.0004777107387781143,-0.0013092774897813797
1761476320834655700,1.12065576171875,0.00044198520481586456,0.0052355690859258175,-0.0007305722683668137
1761476320844690000,1.13068994140625,-0.0007430566474795341,0.008844996802508831,0.001193007454276085
1761476320854722800,1.140722900390625,0.00025696028023958206,0.007077190093696117,0.001842019148170948
1761476320864756700,1.1507568359375,0.0018718456849455833,0.0025001894682645798,-0.002534429542720318
1761476320874789600,1.16078955078125,0.0010609123855829239,0.003903142875060439,-0.000941060483455658
1761476320884822800,1.17082275390625,0.002588493749499321,0.0009489450603723526,-0.00013588834553956985
1761476320894856700,1.180856689453125,0.0011778166517615318,-0.00013416260480880737,0.0005767736583948135
1761476320904889900,1.190889892578125,0.0012572864070534706,0.0017925766296684742,0.0023559704422950745
1761476320914922800,1.2009228515625,0.0022842008620500565,0.00641289446502924,0.0020270701497793198
1761476320924956700,1.210956787109375,0.0027789417654275894,0.008098109625279903,-0.001025383360683918
1761476320934989600,1.220989501953125,0.002676144242286682,0.009089072234928608,0.00016158726066350937
1761476320945022700,1.231022705078125,0.00005219504237174988,0.007532529998570681,0.000975482165813446
1761476320955056600,1.241056640625,0.0008620619773864746,0.007692852523177862,0.000716889277100563
1761476320965089800,1.25108984375,0.0034274961799383163,0.003508184803649783,0.001101621426641941
1761476320975122700,1.261122802734375,0.004584373906254768,-0.00025166571140289307,-0.0015727253630757332
1761476320985156900,1.271156982421875,0.0018313610926270485,-0.002219440881162882,0.00003929901868104935
1761476320995189800,1.281189697265625,0.004783742129802704,-0.002574705984443426,-0.0013644527643918991
1761476321005223700,1.2912236328125,0.00399375893175602,-0.0014857323840260506,-0.0025970740243792534
1761476321015256600,1.301256591796875,0.00039396435022354126,-0.0007594884373247623,-0.0010468484833836555
1761476321025289700,1.311289794921875,0.003077683039009571,0.0006816606037318707,-0.0015031900256872177
1761476321035324000,1.321323974609375,0.002216949127614498,0.0010680854320526123,-0.0010504527017474174
1761476321045356800,1.331356689453125,0.0013562366366386414,-0.000013746321201324463,0.0024906164035201073
1761476321055389700,1.3413896484375,0.0015402613207697868,0.000047239940613508224,0.0007060328498482704
1761476321065423600,1.351423583984375,-0.0015284358523786068,0.0019922200590372086,0.0017803823575377464
1761476321075456800,1.361456787109375,-0.0008099153637886047,0.0044295452535152435,-0.003613051027059555
1761476321085489700,1.37148974609375,-0.0022669495083391666,0.009693875908851624,-0.0017191367223858833
1761476321095523800,1.38152392578125,-0.0017822543159127235,0.008333533070981503,-0.00007729791104793549
1761476321105556700,1.391556640625,-0.005382596515119076,0.005902635399252176,-0.00011715665459632874
1761476321115590000,1.40158984375,-0.005019341595470905,-0.0023699416778981686,0.0029281675815582275
1761476321125623800,1.411623779296875,-0.007929021492600441,-0.011760804802179337,0.003681865520775318
1761476321135657000,1.421656982421875,-0.0042850179597735405,-0.01930873654782772,-0.0032953498885035515
1761476321145690600,1.431690673828125,-0.0035606627352535725,-0.02283732034265995,-0.0032197050750255585
1761476321155723800,1.441723876953125,-0.005046173930168152,-0.02404053695499897,-0.0042812405154109
1761476321165756700,1.451756591796875,-0.004223598167300224,-0.022972406819462776,-0.002167481929063797
1761476321175790800,1.461790771484375,-0.0021308865398168564,-0.013863330706954002,0.0004301657900214195
1761476321185823700,1.47182373046875,-0.002356532961130142,-0.00449674017727375,-0.00012841448187828064
1761476321195857000,1.48185693359375,0.00023738574236631393,0.007862724363803864,0.0022561801597476006
1761476321205890600,1.491890625,-0.00038280151784420013,0.01928190141916275,0.0012418143451213837
1761476321215923700,1.501923828125,-0.0006099697202444077,0.02342045307159424,0.001869254745543003
1761476321225956600,1.51195654296875,0.001196516677737236,0.015781227499246597,0.0020545516163110733
1761476321235990800,1.52199072265625,0.002231420949101448,0.007105180993676186,0.0001474618911743164
1761476321246023700,1.532023681640625,0.006645044311881065,-0.005361222196370363,-0.0008253362029790878
1761476321256056800,1.542056884765625,0.0065976399928331375,-0.010447327047586441,-0.00009323284029960632
1761476321266090800,1.5520908203125,0.007742808200418949,-0.014400008134543896,0.0009631989523768425
1761476321276123600,1.56212353515625,0.006031193770468235,-0.004985734820365906,0.00042124558240175247
1761476321286157800,1.57215771484375,0.006545874290168285,0.003260268596932292,-0.0010266536846756935
1761476321296190700,1.582190673828125,0.006627633236348629,0.008751973509788513,-0.00012570619583129883
1761476321306223600,1.5922236328125,0.0028897207230329514,0.012092869728803635,-0.0017792796716094017
1761476321316257800,1.6022578125,0.0017296476289629936,0.010249429382383823,-0.0002650069072842598
1761476321326291000,1.612291015625,-0.0016225297003984451,0.0057376716285943985,-0.004304036498069763
1761476321336323800,1.62232373046875,-0.0020888494327664375,0.0006515667773783207,-0.002262457273900509
1761476321346357800,1.632357666015625,-0.0036319145001471043,-0.0033233705908060074,-0.0016856109723448753
1761476321356390700,1.642390625,-0.003071052487939596,-0.0027579814195632935,-0.0017476622015237808
1761476321366423800,1.652423828125,-0.007162258494645357,-0.002013722900301218,-0.0012867478653788567
1761476321376457700,1.662457763671875,-0.006460781674832106,-0.004393789451569319,-0.002497420646250248
1761476321386491000,1.672490966796875,-0.0030126343481242657,-0.010004195384681225,-0.0019367169588804245
1761476321396524500,1.682524658203125,-0.0018030270002782345,-0.012008757330477238,0.00018662121146917343
1761476321406557700,1.6925576171875,-0.006009045988321304,-0.015469802543520927,-0.0021045729517936707
1761476321416590600,1.702590576171875,-0.003522985614836216,-0.010113388299942017,-0.00018123816698789597
1761476321426624800,1.712624755859375,-0.0017637861892580986,0.00034615956246852875,0.00417206808924675
1761476321436657700,1.72265771484375,-0.0030586151406168938,0.012008141726255417,-0.0008927322924137115
1761476321446690800,1.73269091796875,-0.0049975537694990635,0.014718117192387581,-0.000650445930659771
1761476321456724700,1.742724853515625,-0.0017255940474569798,0.011849094182252884,-0.0017316900193691254
1761476321466758000,1.7527578125,-0.0016997046768665314,0.006074658129364252,-0.003707941621541977
1761476321476790800,1.762790771484375,0.0011453507468104362,-0.003006721381098032,-0.0012612948194146156
1761476321486821400,1.7728212890625,0.0023981519043445587,-0.006661796011030674,-0.0025208452716469765
1761476321496854500,1.7828544921875,0.003079921007156372,-0.009475159458816051,-0.002676906995475292
1761476321506888400,1.792888427734375,0.0023282840847969055,-0.001879536546766758,-0.0005410797894001007
1761476321516921600,1.802921630859375,0.0006962986662983894,0.004235613625496626,-0.00046730972826480865
1761476321526954500,1.81295458984375,0.0014515835791826248,0.00611629756167531,-0.0009675445035099983
1761476321536988400,1.822988525390625,0.003413267433643341,0.004432114772498608,-0.00043011829257011414
1761476321547021300,1.833021240234375,0.0038191480562090874,-0.002218924928456545,-0.003383480943739414
1761476321557054500,1.843054443359375,0.0024321740493178368,-0.00921052135527134,0.0012714583426713943
1761476321567088600,1.853088623046875,0.0019478444010019302,-0.014605861157178879,-0.003394419327378273
1761476321577121500,1.86312158203125,0.0000993441790342331,-0.011591695249080658,-0.003816264681518078
1761476321587154400,1.873154541015625,0.0011553959921002388,-0.009552035480737686,-0.0004341118037700653
1761476321597188400,1.883188232421875,-0.0003892378881573677,-0.0053253332152962685,-0.002641073428094387
1761476321607221500,1.893221435546875,0.00086983572691679,0.002952220616862178,-0.0013950206339359283
1761476321617255400,1.90325537109375,-0.001014617271721363,0.008477214723825455,0.00033283792436122894
1761476321627288600,1.91328857421875,-0.0017370637506246567,0.012039275839924812,-0.00023703835904598236
1761476321637321500,1.923321533203125,-0.0031179124489426613,0.008135348558425903,0.004603523761034012
1761476321647355600,1.933355712890625,-0.0050311097875237465,0.006913990247994661,-0.0019420795142650604
1761476321657388500,1.943388427734375,-0.0037045893259346485,-0.002122914418578148,-0.000650978647172451
1761476321667421700,1.953421630859375,-0.0006888341158628464,-0.012359023094177246,0.001455092802643776
1761476321677455400,1.963455322265625,-0.0011263913474977016,-0.015126580372452736,-0.005366860888898373
1761476321687488500,1.973488525390625,-0.0022812969982624054,-0.013491987250745296,-0.0019255848601460457
1761476321697522400,1.9835224609375,-0.0017529260367155075,-0.004431914538145065,-0.0005061198025941849
1761476321707555600,1.9935556640625,0.0012126034125685692,0.003978308290243149,-0.0017972402274608612
1761476321717588500,2.00358837890625,0.0002456093207001686,0.011430099606513977,-0.002819361165165901
1761476321727622400,2.013622314453125,-0.0002831192687153816,0.011843711137771606,0.0006136950105428696
1761476321737655300,2.0236552734375,0.003616281785070896,0.005683820229023695,-0.0023197773844003677
1761476321747688400,2.0336884765625,0.0038569848984479904,-0.00003391271457076073,0.0016501396894454956
1761476321757722600,2.04372265625,0.005968072451651096,-0.007071582600474358,-0.004661552142351866
1761476321767755500,2.053755615234375,0.006213962100446224,-0.0052488441579043865,-0.0009693456813693047
1761476321777788400,2.063788330078125,0.0010367771610617638,0.004532946739345789,0.0006514545530080795
1761476321787822600,2.073822509765625,-0.0006112288683652878,0.00962238572537899,0.000007071532309055328
1761476321797855500,2.08385546875,-0.0013332120142877102,0.002193764317780733,0.00241030752658844
1761476321807889400,2.093889404296875,-0.003642032854259014,-0.012346209958195686,0.0017747562378644943
1761476321817922600,2.103922607421875,-0.006024496629834175,-0.020950084552168846,-0.001056184060871601
1761476321827955500,2.11395556640625,-0.004934279248118401,-0.030198434367775917,0.001379210501909256
1761476321837989600,2.12398974609375,-0.003246367909014225,-0.027664171531796455,-0.0018373560160398483
1761476321848022500,2.1340224609375,-0.0023702741600573063,-0.021344806998968124,0.00007590558379888535
1761476321858055700,2.1440556640625,-0.0002839537337422371,-0.010525448247790337,0.001347564160823822
1761476321868089300,2.15408935546875,-0.0023815776221454144,0.005413904786109924,-0.0010830014944076538
1761476321878122500,2.16412255859375,-0.0015283008106052876,0.0150204598903656,-0.000055553391575813293
1761476321888156400,2.174156494140625,-0.0021780445240437984,0.0180685855448246,-0.0017717722803354263
1761476321898189600,2.184189453125,-0.0037913876585662365,0.01298434380441904,-0.0020319633185863495
1761476321908222500,2.194222412109375,-0.0022074365988373756,0.00686545530334115,-0.0009380634874105453
1761476321918256600,2.204256591796875,0.0001827506348490715,0.0007447125390172005,-0.0019300905987620354
1761476321928289500,2.21428955078125,0.0014895638450980186,-0.0023786425590515137,-0.0012517841532826424
1761476321938322400,2.224322509765625,0.0024027619510889053,0.0008206125348806381,0.0031123384833335876
1761476321948356400,2.2343564453125,0.0038428008556365967,0.0037773363292217255,0.0001818351447582245
1761476321958389500,2.244389404296875,0.0024757999926805496,0.005537685938179493,0.00008649379014968872
1761476321968423700,2.254423583984375,0.004934726282954216,0.003327670507133007,0.0049751996994018555
1761476321978456600,2.26445654296875,0.0036263158544898033,-0.00021965987980365753,-0.0006070518866181374
1761476321988489500,2.274489501953125,0.006239388138055801,-0.00126945273950696,-0.0007454575970768929
1761476321998523400,2.2845234375,0.002433997578918934,0.0006940956227481365,0.0006324620917439461
1761476322008556500,2.294556640625,0.0009507564827799797,0.0037292048800736666,-0.0006574895232915878
1761476322018589400,2.30458935546875,0.0013651447370648384,0.008019823580980301,-0.0005043577402830124
1761476322028623600,2.31462353515625,-0.0013201311230659485,0.01084758248180151,0.0005636131390929222
1761476322038656500,2.324656494140625,-0.0006412910297513008,0.008412121795117855,0.0015801414847373962
1761476322048689700,2.334689697265625,0.0011949483305215836,0.002227475866675377,0.0008392902091145515
1761476322058723300,2.344723388671875,-0.000060199759900569916,0.0012088166549801826,0.00035246461629867554
1761476322068756500,2.354756591796875,0.00019381754100322723,-0.0052790213376283646,0.0009448947384953499
1761476322078790400,2.364790283203125,-0.0020818538032472134,-0.008468156680464745,0.0007334398105740547
1761476322088823600,2.374823486328125,-0.0016283080913126469,-0.00895446352660656,-0.001138005405664444
1761476322098856400,2.3848564453125,-0.0008791605941951275,-0.004108575638383627,-0.000356101430952549
1761476322108890600,2.394890625,0.00038107670843601227,0.004446700681000948,0.0015216320753097534
1761476322118923500,2.404923583984375,0.00010650511831045151,0.01593344658613205,0.0019309595227241516
1761476322128957400,2.41495751953125,-0.004029038827866316,0.024007156491279602,0.005880693905055523
1761476322138990300,2.424990234375,-0.003459388390183449,0.022871851921081543,0.0007913932204246521
1761476322149023500,2.4350234375,-0.004511477425694466,0.018379194661974907,-0.00015411246567964554
1761476322159057700,2.4450576171875,-0.003310391679406166,0.005126506555825472,0.00018144585192203522
1761476322169090600,2.455090576171875,-0.0005504386499524117,-0.005991992074996233,-0.0008564898744225502
1761476322179123500,2.46512353515625,-0.0008822684176266193,-0.009053561836481094,-0.0015089642256498337
1761476322189157400,2.475157470703125,0.0022466089576482773,-0.009781759232282639,-0.0024949098005890846
1761476322199190500,2.4851904296875,0.0027451524510979652,-0.0053015220910310745,-0.0014421623200178146
1761476322209223400,2.495223388671875,0.00003214273601770401,0.0056493692100048065,0.0006453059613704681
1761476322219257600,2.505257568359375,0.0010942108929157257,0.006197447422891855,0.000555824488401413
1761476322229290500,2.51529052734375,0.0025196420028805733,-0.0016954201273620129,-0.0027963602915406227
1761476322239324700,2.52532470703125,0.0006716744974255562,-0.006200689356774092,-0.0035809269174933434
1761476322249357600,2.535357666015625,0.002067962661385536,-0.014143018051981926,-0.002002161927521229
1761476322259390700,2.545390625,0.003992096520960331,-0.012153903022408485,-0.002471410669386387
1761476322269424400,2.55542431640625,0.0012093670666217804,-0.000050202012062072754,0.0016117673367261887
1761476322279457500,2.56545751953125,0.001105504110455513,0.01055477187037468,0.004143103025853634
1761476322289491500,2.575491455078125,-0.002128716092556715,0.01709657721221447,0.0030490169301629066
1761476322299524600,2.585524658203125,-0.0005625113844871521,0.016109876334667206,0.00028145965188741684
1761476322309557500,2.5955576171875,0.00012433528900146484,0.007195627316832542,0.0007466897368431091
1761476322319591400,2.60559130859375,-0.0017523937858641148,-0.0024607283994555473,0.0005677258595824242
1761476322329624300,2.615624267578125,-0.00019746087491512299,-0.008120979182422161,0.0005964701995253563
1761476322339657500,2.625657470703125,-0.002029449213296175,-0.007822172716259956,0.0020548170432448387
1761476322349691400,2.63569140625,-0.0022841058671474457,-0.006429705303162336,0.0028366390615701675
1761476322359724500,2.645724609375,-0.003294509369879961,0.00003804778680205345,-0.00001134537160396576
1761476322369758700,2.6557587890625,0.0002421978861093521,0.0009418842382729053,-0.0017872639000415802
1761476322379791600,2.66579150390625,0.001040346920490265,0.0019906368106603622,0.0006082486361265182
1761476322389824500,2.675824462890625,0.002621641382575035,0.0035985950380563736,0.0016248170286417007
1761476322399858400,2.6858583984375,0.0025838250294327736,0.009821603074669838,-0.0014207735657691956
1761476322409891600,2.6958916015625,0.0021813493221998215,0.01334700733423233,-0.00013424549251794815
1761476322419924500,2.705924560546875,0.0007384484633803368,0.014220258221030235,0.0012540603056550026
1761476322429958700,2.715958740234375,0.002263507805764675,0.0018713679164648056,0.0004770783707499504
1761476322439991600,2.725991455078125,-0.0016183159314095974,-0.007785786408931017,0.0030901720747351646
1761476322450025500,2.736025390625,-0.00008542370051145554,-0.0167640782892704,0.0024092774838209152
1761476322460058400,2.746058349609375,0.00004214141517877579,-0.026953866705298424,0.0008987328037619591
1761476322470091500,2.756091552734375,-0.0004385756328701973,-0.024544650688767433,0.001988525502383709
1761476322480125400,2.76612548828125,0.0007987292483448982,-0.019926996901631355,-0.000977170653641224
1761476322490158800,2.776158935546875,0.0007671741768717766,-0.00943459291011095,0.00013271067291498184
1761476322500192800,2.78619287109375,-0.0013103573583066463,-0.002392929047346115,0.0032520703971385956
1761476322510225700,2.7962255859375,-0.0012184050865471363,0.00825889129191637,0.0013980288058519363
1761476322520258800,2.8062587890625,-0.0009433007799088955,0.014772983267903328,0.003997541032731533
1761476322530293000,2.81629296875,-0.002968333661556244,0.01591038890182972,0.0023936713114380836
1761476322540326000,2.826325927734375,0.001345188356935978,0.011261574923992157,-0.001702270470559597
1761476322550358800,2.83635888671875,0.0004966454580426216,0.0066089327447116375,0.0020540356636047363
1761476322560393000,2.84639306640625,-0.0011867387220263481,-0.00277791079133749,0.0009067459031939507
1761476322570426000,2.856426025390625,0.00011328328400850296,-0.0038657370023429394,0.0014525633305311203
1761476322580459800,2.866459716796875,0.0003183465451002121,0.0032728658989071846,0.00211169570684433
1761476322590493000,2.876492919921875,0.0007607219740748405,0.008107815869152546,0.001811215654015541
1761476322600525800,2.88652587890625,0.0006781639531254768,0.011753416620194912,0.00201601255685091
1761476322610560000,2.89656005859375,-0.0005971025675535202,0.005415824707597494,0.0015461323782801628
1761476322620593000,2.906593017578125,0.001678035594522953,0.0011073630303144455,-0.0027404911816120148
1761476322630626000,2.9166259765625,0.00027214083820581436,-0.006610998883843422,-0.00025998521596193314
1761476322640659700,2.92665966796875,0.002508929930627346,-0.0067771803587675095,-0.0019657397642731667
1761476322650692900,2.93669287109375,0.00043861009180545807,-0.0009166519157588482,0.001276315189898014
1761476322660726800,2.946726806640625,0.0005454029887914658,0.003887424012646079,0.0038039200007915497
1761476322670760000,2.956760009765625,-0.00031579937785863876,0.008282694965600967,0.003017581067979336
1761476322680792800,2.966792724609375,-0.001803440973162651,0.011973036453127861,-0.0017252424731850624
1761476322690827000,2.976826904296875,-0.001449471339583397,0.0040551600977778435,-0.0006880545988678932
1761476322700860000,2.98685986328125,0.00144937913864851,-0.0034440350718796253,0.0002326006069779396
1761476322710893800,2.996893798828125,0.001769370399415493,-0.009883757680654526,-0.002161748707294464
1761476322720926700,3.0069267578125,-0.000895921140909195,-0.01634858176112175,-0.0007987422868609428
1761476322730960000,3.0169599609375,0.0030648130923509598,-0.008804037235677242,-0.00030259229242801666
1761476322740994000,3.026994140625,0.0020171254873275757,-0.0019650403410196304,0.00000713299959897995
1761476322751027000,3.03702685546875,0.000536896288394928,0.0035592017229646444,0.0009287437424063683
1761476322761059800,3.047059814453125,-0.00036032218486070633,0.009106832556426525,0.0006626937538385391
1761476322771093800,3.05709375,-0.00027795787900686264,0.010739706456661224,0.001176728866994381
1761476322781127000,3.067126953125,-0.0020692003890872,0.009337019175291061,0.0006315801292657852
1761476322791160800,3.077160888671875,-0.004143006168305874,0.005611670669168234,-0.0032502422109246254
1761476322801194000,3.087194091796875,-0.0005464069545269012,0.0009868252091109753,-0.0005383454263210297
1761476322811227000,3.097226806640625,-0.0021133385598659515,-0.0012268545106053352,-0.00047811493277549744
1761476322821261000,3.107260986328125,-0.0026800595223903656,-0.004816262982785702,-0.002588404342532158
1761476322831293700,3.117293701171875,-0.0021374057978391647,-0.002803402952849865,-0.0006485367193818092
1761476322841327900,3.127327880859375,0.0024184640496969223,-0.0038108769804239273,-0.0030597634613513947
1761476322851360800,3.13736083984375,0.00020886771380901337,-0.006935161538422108,-0.001187358982861042
1761476322861394000,3.147393798828125,-0.000448666512966156,-0.007064058445394039,-0.000496269203722477
1761476322871427800,3.157427734375,0.0013682348653674126,-0.006600035820156336,-0.0030017951503396034
1761476322881461000,3.1674609375,-0.0003135520964860916,-0.002400230150669813,-0.002214830368757248
1761476322891494000,3.177493896484375,-0.0031714988872408867,0.0013767192140221596,-0.0018760161474347115
1761476322901527800,3.18752783203125,-0.004516927525401115,0.003916575573384762,-0.001703975722193718
1761476322911560700,3.197560791015625,-0.001152637880295515,0.004447232931852341,0.0011567790061235428
1761476322921595000,3.207594970703125,-0.00040908344089984894,-0.00014512194320559502,-0.0018400764092803001
1761476322931628000,3.2176279296875,0.00046949367970228195,-0.0034759375266730785,0.0009778141975402832
1761476322941661000,3.227660888671875,-0.005296782590448856,-0.004840541165322065,-0.0010001156479120255
1761476322951694800,3.23769482421875,-0.0009382888674736023,-0.006503120064735413,-0.00005271565169095993
1761476322961727700,3.247727783203125,-0.000012840144336223602,-0.002117692492902279,0.00030974019318819046
1761476322971762000,3.257761962890625,0.001508696936070919,0.004533574916422367,0.0011347336694598198
1761476322981794800,3.267794921875,0.0008002957329154015,0.010139262303709984,0.001328878104686737
1761476322991828000,3.277827880859375,0.00008872430771589279,0.01329946517944336,0.0020966120064258575
1761476323001862000,3.28786181640625,0.002304207533597946,0.007388046011328697,0.0013788901269435883
1761476323011895000,3.29789501953125,-0.0006903554312884808,-0.0027053807862102985,-0.0025777947157621384
1761476323021928700,3.3079287109375,0.001459081657230854,-0.01521904207766056,-0.0009636525064706802
1761476323031961900,3.3179619140625,0.0019649751484394073,-0.017156023532152176,-0.0024671005085110664
1761476323041994800,3.327994873046875,0.002972448244690895,-0.008980384096503258,-0.0018798736855387688
1761476323052029000,3.33802880859375,0.0006094537675380707,0.004852809477597475,-0.000015759840607643127
1761476323062061800,3.348061767578125,-0.00018736440688371658,0.01726287417113781,-0.004844869486987591
1761476323072095000,3.358094970703125,-0.00034890882670879364,0.018197955563664436,-0.0009864568710327148
1761476323082128600,3.368128662109375,-0.0018860851414501667,0.007357558235526085,0.002544095739722252
1761476323092161800,3.378161865234375,-0.00019386876374483109,-0.011411525309085846,0.0026271911337971687
1761476323102196000,3.388196044921875,-0.0008135861717164516,-0.029043780639767647,0.001256994903087616
1761476323112228900,3.398228759765625,-0.0007653911598026752,-0.036307670176029205,-0.003674638457596302
1761476323122261800,3.40826171875,0.002384861931204796,-0.02815360017120838,-0.0029997937381267548
1761476323132296000,3.4182958984375,-0.0017605037428438663,-0.018370332196354866,0.0006973147392272949
1761476323142329000,3.4283291015625,-0.0012782053090631962,0.00011040829122066498,0.00103047676384449
1761476323152362800,3.43836279296875,-0.00445625651627779,0.005411886144429445,0.00032955314964056015
1761476323162396000,3.44839599609375,-0.0037731556221842766,0.010026877745985985,0.002857426181435585
1761476323172428800,3.4584287109375,-0.002912430092692375,0.006110032554715872,-0.002619326114654541
1761476323182463000,3.468462890625,-0.002706834115087986,0.003373101819306612,-0.0005548438057303429
1761476323192495900,3.478495849609375,-0.002140248194336891,0.0013522189110517502,0.0002887090668082237
1761476323202529800,3.48852978515625,-0.00157645670697093,0.004559463821351528,0.002288476563990116
1761476323212562700,3.498562744140625,0.0011195959523320198,0.0018883896991610527,0.00454670749604702
1761476323222595800,3.508595947265625,-0.00014886725693941116,0.004123314283788204,0.00004436727613210678
1761476323232629800,3.518629638671875,0.001443915069103241,0.0018639201298356056,-0.00349536444991827
1761476323242663000,3.528662841796875,0.0020125005394220352,-0.0020045870915055275,-0.0004204781726002693
1761476323252697000,3.538697021484375,0.0019648345187306404,-0.005798402242362499,-0.0024934792891144753
1761476323262730000,3.54872998046875,0.00017625559121370316,-0.003125653602182865,-0.00036241859197616577
1761476323272763000,3.558762939453125,0.0013634199276566505,-0.0005938787944614887,0.00030625518411397934
1761476323282796800,3.568796875,-0.0011673816479742527,0.009737322106957436,-0.0006311777979135513
1761476323292830000,3.578829833984375,0.0024102190509438515,0.010230185464024544,0.000012226402759552002
1761476323302862800,3.58886279296875,0.0018048826605081558,0.013945561833679676,0.001557125709950924
1761476323312897000,3.59889697265625,-0.0016653863713145256,0.007146463729441166,0.0008758632466197014
1761476323322930000,3.608929931640625,-0.001277097500860691,0.0033519917633384466,0.001750977709889412
1761476323332963800,3.6189638671875,-0.002623428590595722,-0.007517784833908081,-0.0008628498762845993
1761476323342996700,3.628996826171875,-0.002937415149062872,-0.008067194372415543,-0.0017547421157360077
1761476323353030000,3.63902978515625,-0.0006299698725342751,-0.006680791266262531,-0.0010311482474207878
1761476323363063800,3.649063720703125,0.00045526865869760513,-0.007944727316498756,-0.0022468818351626396
1761476323373097000,3.659096923828125,0.0005447706207633018,-0.004561857786029577,0.0016875946894288063
1761476323383131000,3.669130859375,-0.003216677810996771,-0.00487983925268054,0.0007272586226463318
1761476323393164000,3.6791640625,-0.0015906807966530323,-0.0039259628392755985,-0.0023970240727066994
1761476323403197000,3.689197021484375,-0.0018809656612575054,-0.0024279351346194744,0.0006996989250183105
1761476323413230800,3.69923095703125,-0.0007035625167191029,0.002366676228120923,-0.0015691258013248444
1761476323423263700,3.709263671875,-0.0023182369768619537,0.004983764607459307,-0.00046631135046482086
1761476323433298000,3.7192978515625,-0.0010574073530733585,0.010417236015200615,-0.0003682877868413925
1761476323443330800,3.729330810546875,-0.0008352994918823242,0.014393867924809456,0.0009766081348061562
1761476323453364000,3.739364013671875,-0.0026506329886615276,0.013760630041360855,-0.0013532983139157295
1761476323463398000,3.74939794921875,0.0003544781357049942,0.007377565372735262,0.0005034580826759338
1761476323473430800,3.7594306640625,0.0026320749893784523,-0.0038334415294229984,-0.001200878992676735
1761476323483465000,3.76946484375,0.001810489222407341,-0.010369902476668358,-0.002982267178595066
1761476323493497600,3.77949755859375,0.006102344952523708,-0.013319307938218117,-0.0010080402716994286
1761476323503530500,3.789530517578125,0.00520672369748354,-0.008579147048294544,-0.0020858217030763626
1761476323513564700,3.799564697265625,0.0045639220625162125,-0.00016826903447508812,-0.0010991087183356285
1761476323523597600,3.80959765625,0.005126381292939186,0.0055162482894957066,0.0011968016624450684
1761476323533631500,3.819631591796875,0.0025691548362374306,0.011633161455392838,0.0005426453426480293
1761476323543664400,3.829664306640625,-0.001117459498345852,0.007350266445428133,0.0004987027496099472
1761476323553697500,3.839697509765625,0.0007074223831295967,0.003660419723019004,-0.0009130258113145828
1761476323563731500,3.8497314453125,0.0008027637377381325,-0.0010906597599387169,-0.0019649751484394073
1761476323573764600,3.8597646484375,0.003011164255440235,0.000585213303565979,0.0014193095266819
1761476323583798500,3.869798583984375,0.0014798473566770554,0.0016906913369894028,0.0005159657448530197
1761476323593831400,3.87983154296875,0.0014930544421076775,0.009732693433761597,0.00034425221383571625
1761476323603864300,3.8898642578125,0.002514377236366272,0.012082932516932487,0.0011432003229856491
1761476323613898500,3.8998984375,-0.0011558481492102146,0.009156446903944016,-0.00093050766736269
1761476323623931400,3.909931396484375,0.0004417821764945984,0.006628574803471565,0.0005709826946258545
1761476323633965600,3.919965576171875,0.002290865406394005,0.002165614627301693,0.0003165053203701973
1761476323643998500,3.92999853515625,0.001678071916103363,-0.0005862298421561718,-0.0014880523085594177
1761476323654031600,3.940031494140625,0.0010345401242375374,-0.0016001621261239052,-0.0006445702165365219
1761476323664065500,3.9500654296875,0.0014702333137392998,0.0012904326431453228,-0.00013803690671920776
1761476323674098400,3.960098388671875,0.0029764603823423386,-0.0012062587775290012,-0.0001879194751381874
1761476323684132600,3.970132568359375,0.005195139907300472,-0.003662225790321827,0.002538624219596386
1761476323694165500,3.98016552734375,0.004063433036208153,-0.0014388184063136578,0.0007269643247127533
1761476323704198700,3.99019873046875,0.0028900448232889175,-0.0010627801530063152,0.0017040781676769257
1761476323714232300,4.000232421875,0.00035435426980257034,0.003358769929036498,-0.0007596351206302643
1761476323724265500,4.010265380859375,-0.0012222370132803917,0.010823610238730907,-0.00027467310428619385
1761476323734296600,4.020296630859375,-0.0017253896221518517,0.018044693395495415,0.000539231114089489
1761476323744330500,4.03033056640625,-0.0036782855167984962,0.010886382311582565,-0.00405924953520298
1761476323754363600,4.04036376953125,-0.005120762623846531,-0.0017215008847415447,0.00011851172894239426
1761476323764396500,4.050396484375,-0.004315422382205725,-0.015037039294838905,0.0012889709323644638
1761476323774430500,4.060430419921875,-0.005091825500130653,-0.028062917292118073,-0.0005174688994884491
1761476323784463400,4.07046337890625,-0.004534426145255566,-0.03410669416189194,-0.002950000576674938
1761476323794497500,4.08049755859375,-0.003800196573138237,-0.027206838130950928,-0.004870894365012646
1761476323804530400,4.090530517578125,-0.004902212880551815,-0.009708273224532604,-0.001118500716984272
1761476323814563600,4.1005634765625,-0.003932082559913397,0.0035763911437243223,0.0043840352445840836
1761476323824597500,4.110597412109375,-0.00413155322894454,0.012913433834910393,0.0021397890523076057
1761476323834630400,4.12063037109375,-0.001990840770304203,0.01732160709798336,0.001521180383861065
1761476323844663300,4.130663330078125,0.0001285029575228691,0.012620596215128899,-0.0025960663333535194
1761476323854697500,4.140697509765625,0.001887270249426365,0.00289792288094759,-0.000576358288526535
1761476323864730600,4.150730712890625,0.00008084811270236969,-0.0008137249387800694,0.0004654703661799431
1761476323874764500,4.1607646484375,0.008377879858016968,-0.0019667167216539383,0.0010139606893062592
1761476323884797700,4.170797607421875,0.008221818134188652,0.005189463496208191,0.0020153094083070755
1761476323894831400,4.180831298828125,0.006535857915878296,0.010830393061041832,0.0016459450125694275
1761476323904864500,4.190864501953125,0.007129210978746414,0.01466774195432663,0.0036803344264626503
1761476323914897400,4.2008974609375,0.005745328962802887,0.011778928339481354,0.00023555196821689606
1761476323924931600,4.210931640625,0.002348467707633972,0.005656587891280651,-0.0017700744792819023
1761476323934964500,4.220964599609375,0.0031583039090037346,-0.00768664013594389,0.00025505758821964264
1761476323944997600,4.23099755859375,0.0033561764284968376,-0.011416928842663765,-0.003496536985039711
1761476323955031300,4.24103125,0.005818642675876617,-0.009395500645041466,-0.001013152301311493
1761476323965064400,4.251064453125,0.0053320834413170815,-0.004117116332054138,-0.002963118255138397
1761476323975098600,4.2610986328125,0.0034237420186400414,0.005068615544587374,0.00032003317028284073
1761476323985131500,4.271131591796875,0.0025563500821590424,0.01255502738058567,0.0008590575307607651
1761476323995164400,4.281164306640625,-0.003477483056485653,0.013754873536527157,0.0013285921886563301
1761476324005198600,4.291198486328125,-0.0013877004384994507,0.010667737573385239,-0.0014626672491431236
1761476324015231500,4.3012314453125,-0.0027555949054658413,0.0028343619778752327,-0.0003089606761932373
1761476324025265400,4.311265380859375,-0.0026583895087242126,-0.004000906832516193,-0.000421878881752491
1761476324035298600,4.321298583984375,-0.0011012889444828033,-0.012457352131605148,-0.00047952402383089066
1761476324045331500,4.33133154296875,-0.0032059848308563232,-0.014744475483894348,0.0002826722338795662
1761476324055365600,4.34136572265625,-0.0035319961607456207,-0.008877243846654892,0.00017119105905294418
1761476324065398500,4.3513984375,-0.003728803712874651,-0.0020347838290035725,0.0006343144923448563
1761476324075432400,4.361432373046875,-0.00463237427175045,0.004204182885587215,-0.0021557174623012543
1761476324085465300,4.37146533203125,-0.0022584320977330208,0.011412560939788818,0.001690952107310295
1761476324095498500,4.38149853515625,-0.003212979529052973,0.009828538633883,-0.0004545394331216812
1761476324105532400,4.391532470703125,0.0007500704377889633,0.009028791449964046,0.00026611238718032837
1761476324115565600,4.401565673828125,-0.0012063048779964447,0.0024717075284570456,-0.001556522212922573
1761476324125599500,4.411599609375,-0.00298449769616127,-0.005910858511924744,-0.0036761322990059853
1761476324135632600,4.421632568359375,0.0005461554974317551,-0.009115094318985939,-0.004602133296430111
1761476324145665300,4.431665283203125,-0.0006653163582086563,-0.009046651422977448,-0.0015964899212121964
1761476324155699500,4.441699462890625,0.0031173843890428543,-0.006912363227456808,-0.00358573067933321
1761476324165732400,4.451732421875,0.002970644272863865,-0.0012656631879508495,-0.002181445248425007
1761476324175766500,4.4617666015625,0.0038714883849024773,-0.001096903346478939,-0.0007760301232337952
1761476324185799700,4.471799560546875,0.0029540294781327248,-0.00012218626216053963,-0.00015897583216428757
1761476324195832600,4.48183251953125,0.002229588106274605,-0.005307727959007025,-0.0007585380226373672
1761476324205866500,4.491866455078125,0.001623452641069889,-0.00812002643942833,-0.00024321675300598145
1761476324215899400,4.5018994140625,0.004097536206245422,-0.009735900908708572,-0.001793484203517437
1761476324225933600,4.51193359375,0.001082838512957096,-0.007912169210612774,0.000853964127600193
1761476324235966500,4.521966552734375,0.0011333432048559189,0.0019740662537515163,-0.001163620501756668
1761476324245999600,4.53199951171875,0.00018632318824529648,0.008817324414849281,-0.002841678448021412
1761476324256033500,4.542033447265625,-0.0006994782015681267,0.010169828310608864,0.0019683698192238808
1761476324266066400,4.55206640625,-0.0011484874412417412,0.01023187953978777,0.0009491778910160065
1761476324276100400,4.562100341796875,-0.0006146132946014404,0.002881731605157256,0.00029348861426115036
1761476324286133500,4.572133544921875,-0.0018111714161932468,-0.005993253085762262,-0.0014934921637177467
1761476324296166400,4.58216650390625,-0.0035833194851875305,-0.013457518070936203,-0.0025824662297964096
1761476324306200600,4.59220068359375,-0.002981445286422968,-0.014141151681542397,-0.0028631631284952164
1761476324316233500,4.6022333984375,-0.001966637559235096,-0.009762055240571499,-0.002368786372244358
1761476324326267400,4.612267333984375,0.0008411332964897156,-0.004638399928808212,-0.0006012469530105591
1761476324336300500,4.622300537109375,0.0018432969227433205,0.004649492911994457,0.0029286928474903107
1761476324346333400,4.63233349609375,0.002966884523630142,0.008375788107514381,0.0013808635994791985
1761476324356367600,4.64236767578125,-0.000543396919965744,0.012724720872938633,0.001963231712579727
1761476324366400500,4.652400390625,0.0027871523052453995,0.006856711581349373,0.000011667609214782715
1761476324376434700,4.6624345703125,0.0022148536518216133,0.0034404026810079813,-0.003468053415417671
1761476324386467600,4.672467529296875,0.0035504288971424103,-0.002279002219438553,-0.0037293098866939545
1761476324396500500,4.68250048828125,0.0012043537572026253,-0.0002996930852532387,-0.0023279283195734024
1761476324406534400,4.692534423828125,0.0029809484258294106,-0.00151036586612463,-0.00020405743271112442
1761476324416567600,4.702567626953125,0.00043352600187063217,-0.004846454132348299,0.001038101501762867
1761476324426601500,4.7126015625,-0.0022626579739153385,-0.011159742251038551,0.001995241269469261
1761476324436634600,4.722634521484375,-0.0015087309293448925,-0.017789144068956375,0.0007379967719316483
1761476324446667500,4.73266748046875,-0.003829942550510168,-0.020507697016000748,0.0010945936664938927
1761476324456701400,4.742701416015625,-0.0029625031165778637,-0.02235422469675541,-0.002840372733771801
1761476324466734300,4.752734375,0.000055390410125255585,-0.016802866011857986,0.00048165395855903625
1761476324476768500,4.7627685546875,-0.0012015113607048988,-0.010948493145406246,0.0005119545385241508
1761476324486801400,4.772801513671875,-0.0021426724269986153,0.0007704803720116615,-0.00037274789065122604
1761476324496838100,4.782838134765625,-0.0030668098479509354,0.009258916601538658,0.0003988472744822502
1761476324506872000,4.7928720703125,-0.0014385529793798923,0.015025725588202477,0.001227889209985733
1761476324516905000,4.802905029296875,-0.002347346395254135,0.01893158070743084,0.0018354514613747597
1761476324526939000,4.81293896484375,-0.0019244365394115448,0.014932043850421906,0.0009574079886078835
1761476324536972000,4.822971923828125,-0.0011693495325744152,0.012853139080107212,0.003938823007047176
1761476324547005000,4.8330048828125,-0.0003381771966814995,0.0071366638876497746,0.0021734144538640976
1761476324557039000,4.8430390625,0.0009287437424063683,0.0015908689238131046,0.0007780445739626884
1761476324567072000,4.853072021484375,0.0009255483746528625,-0.0061946166679263115,-0.0008137263357639313
1761476324577106000,4.86310595703125,0.002306154929101467,-0.011610440909862518,-0.0029608402401208878
1761476324587138800,4.873138916015625,0.0017679305747151375,-0.008257254958152771,0.0011401614174246788
1761476324597172000,4.883171875,0.002763744443655014,-0.004794364329427481,-0.0004299553111195564
1761476324607206100,4.8932060546875,0.0013317633420228958,0.007116623222827911,0.0025261538103222847
1761476324617239000,4.903239013671875,0.0027231890708208084,0.016166746616363525,-0.00003718957304954529
1761476324627273000,4.91327294921875,-0.0012635630555450916,0.0188384298235178,0.00008957739919424057
1761476324637305900,4.923305908203125,0.00017901603132486343,0.0157204270362854,-0.0017345026135444641
1761476324647339000,4.933339111328125,-0.0012977072037756443,0.005800683982670307,0.0006879093125462532
1761476324657373000,4.943373046875,-0.00038397684693336487,0.0008109854534268379,0.0027300212532281876
1761476324667406000,4.953406005859375,0.0005087153986096382,-0.006278881803154945,-0.0013842964544892311
1761476324677440000,4.96343994140625,0.0006804624572396278,-0.01017000898718834,-0.0009586513042449951
1761476324687473200,4.97347314453125,0.0010391902178525925,-0.006618152838200331,0.000007810071110725403
1761476324697506000,4.983506103515625,-0.000055635347962379456,-0.0022947764955461025,0.0030051982030272484
1761476324707540000,4.9935400390625,0.0005984371528029442,0.006362627260386944,0.003517855890095234
1761476324717572900,5.00357275390625,-0.0019132117740809917,0.009309820830821991,0.001586071215569973
1761476324727606000,5.01360595703125,-0.0017342474311590195,0.013011613860726357,0.00034051109105348587
1761476324737640000,5.023639892578125,-0.00045366864651441574,0.006471229717135429,-0.0005331374704837799
1761476324747673000,5.033673095703125,-0.001721066888421774,0.002840275876224041,-0.0008977241814136505
1761476324757707000,5.04370703125,-0.0011272532865405083,-0.004015737678855658,-0.0014405259862542152
1761476324767740000,5.053739990234375,-0.0019296640530228615,-0.0037800478748977184,0.0005975905805826187
1761476324777772800,5.063772705078125,-0.0018921131268143654,-0.0013270103372633457,-0.0005033602938055992
1761476324787807000,5.073806884765625,-0.0003434848040342331,0.006174848414957523,0.0001421906054019928
1761476324797840000,5.08383984375,0.0016596494242548943,0.01247380580753088,-0.0019236458465456963
1761476324807874000,5.0938740234375,0.002151534892618656,0.012639987282454967,-0.000966239720582962
1761476324817907200,5.1039072265625,0.0036741001531481743,0.00936761125922203,-0.0017599239945411682
1761476324827940000,5.113940185546875,0.00217420794069767,-0.0016861055046319962,0.0008108252659440041
1761476324837974000,5.12397412109375,0.002666054293513298,-0.00976637750864029,-0.0028362656012177467
1761476324848007000,5.1340068359375,0.001803722232580185,-0.014735834673047066,-0.0013611400499939919
1761476324858041000,5.144041015625,0.002421855926513672,-0.013927573338150978,-0.0010892665013670921
1761476324868074000,5.154073974609375,0.001424768939614296,-0.008333870209753513,-0.0016685044392943382
1761476324878107100,5.164107177734375,0.001496974378824234,-0.0026095551438629627,-0.001951177604496479
1761476324888140800,5.174140869140625,0.00039256084710359573,0.00813097320497036,0.004083811305463314
1761476324898174000,5.184174072265625,-0.0010691354982554913,0.011722049675881863,0.001461823470890522
1761476324908207900,5.194207763671875,-0.0009740609675645828,0.01203790120780468,-0.0001898687332868576
1761476324918241000,5.204240966796875,0.00035699736326932907,0.009310958907008171,0.0017196303233504295
1761476324928274000,5.21427392578125,-0.0021517002023756504,0.004624594002962112,0.001993670128285885
1761476324938308000,5.22430810546875,-0.0007710568606853485,-0.00035088788717985153,0.00033300649374723434
1761476324948341000,5.234341064453125,-0.0031521888449788094,-0.004893708508461714,-0.0006973706185817719
1761476324958375000,5.244375,0.0005657896399497986,-0.010265405289828777,-0.0011912044137716293
1761476324968408000,5.254407958984375,-0.0028944555670022964,-0.008350859396159649,0.00024397298693656921
1761476324978441000,5.26444091796875,-0.0018123788759112358,-0.0016936389729380608,-0.00002485327422618866
1761476324988475100,5.27447509765625,0.0018649138510227203,0.0014432980678975582,0.003329664468765259
1761476324998508000,5.284508056640625,0.00035313796252012253,0.01396262925118208,0.006356857717037201
1761476325008542000,5.2945419921875,0.00048469845205545425,0.019674310460686684,0.0031602662056684494
1761476325018574800,5.304574951171875,-0.0020206584595143795,0.01926984079182148,0.0010593971237540245
1761476325028608000,5.31460791015625,0.0003863060846924782,0.013600237667560577,-0.0008266540244221687
1761476325038642000,5.324641845703125,0.0015288982540369034,-0.006491761654615402,-0.0023809000849723816
1761476325048675000,5.334675048828125,0.0006705615669488907,-0.026428451761603355,-0.00011668074876070023
1761476325058709000,5.344708984375,-0.001304316334426403,-0.03871713951230049,0.0012291846796870232
1761476325068742100,5.3547421875,-0.00026461854577064514,-0.03468910977244377,0.0016358494758605957
1761476325078775000,5.364775146484375,0.003263309597969055,-0.017680317163467407,0.0022136028856039047
1761476325088809000,5.37480908203125,0.0006962884217500687,0.0014704731293022633,0.002388838678598404
1761476325098841900,5.384841796875,0.000618630088865757,0.015545097179710865,0.0038072215393185616
1761476325108876000,5.3948759765625,0.001605064608156681,0.01867298036813736,0.004956641234457493
1761476325118909000,5.404908935546875,-0.0030634370632469654,0.010978697799146175,0.0008576922118663788
1761476325128942000,5.414942138671875,-0.002586198505014181,-0.004342733882367611,0.0004710014909505844
1761476325138976000,5.42497607421875,0.0011607781052589417,-0.01603996567428112,-0.0011300630867481232
1761476325149009000,5.4350087890625,-0.0007977103814482689,-0.012944307178258896,-0.0016661575064063072
1761476325159041800,5.445041748046875,0.0000012954697012901306,-0.0016450677067041397,-0.0020218705758452415
1761476325169076000,5.455075927734375,-0.0009268163703382015,0.016127804294228554,0.0036037908867001534
1761476325179109000,5.465109130859375,-0.0012258016504347324,0.026089178398251534,0.0004189303144812584
1761476325189143000,5.47514306640625,-0.001091578509658575,0.02541166916489601,0.0026567839086055756
1761476325199176200,5.48517626953125,-0.0013694558292627335,0.011497240513563156,0.0005918294191360474
1761476325209209000,5.495208984375,0.0014484347775578499,-0.008153427392244339,-0.0006593232974410057
1761476325219243000,5.505242919921875,0.003600776195526123,-0.024576857686042786,-0.0017202561721205711
1761476325229276000,5.51527587890625,0.0023216595873236656,-0.027683967724442482,-0.0018805786967277527
1761476325239310000,5.52531005859375,-0.0007306849583983421,-0.015778258442878723,-0.0031948229297995567
1761476325249343000,5.535343017578125,0.0005268603563308716,0.0052119772881269455,0.00205080583691597
1761476325259376000,5.545376220703125,-0.00045927148312330246,0.024807220324873924,0.0017548194155097008
1761476325269409800,5.555409912109375,-0.003933364525437355,0.027780108153820038,0.0020421743392944336
1761476325279443000,5.56544287109375,-0.00122879259288311,0.020134780555963516,0.002901177853345871
1761476325289477000,5.57547705078125,-0.003344141412526369,0.002783221425488591,-0.0001673167571425438
1761476325299510000,5.585510009765625,0.0008730590343475342,-0.016671355813741684,-0.004163646139204502
1761476325309543000,5.59554296875,-0.001242556143552065,-0.025174297392368317,-0.0013702567666769028
1761476325319577000,5.6055771484375,0.0004792511463165283,-0.021927129477262497,-0.0013968367129564285
1761476325329610000,5.61560986328125,0.0006755255162715912,-0.015362970530986786,-0.0004820413887500763
1761476325339644000,5.625643798828125,0.0010310821235179901,0.002027185633778572,0.00012561772018671036
1761476325349677000,5.635677001953125,0.001517108641564846,0.012430291622877121,-0.0006040884181857109
1761476325359710000,5.6457099609375,0.0005350913852453232,0.013506530784070492,-0.00038884393870830536
1761476325369744100,5.655744140625,-0.0017405794933438301,0.006378579884767532,-0.003105001524090767
1761476325379777000,5.665777099609375,0.0018682107329368591,-0.004259251989424229,-0.0004925262182950974
1761476325389810200,5.67581005859375,-0.0017267907969653606,-0.009635374881327152,0.0015075085684657097
1761476325399843800,5.68584375,-0.0008894330821931362,-0.007982516661286354,0.00037574954330921173
1761476325409877000,5.695876953125,-0.0010066120885312557,0.005353263113647699,-0.00046208128333091736
1761476325419911000,5.705910888671875,-0.00001701805740594864,0.015151177532970905,0.0016762781888246536
1761476325429944000,5.715944091796875,-0.000701716635376215,0.017533907666802406,-0.0016140574589371681
1761476325439977000,5.72597705078125,-0.0010802620090544224,0.011187264695763588,-0.00016017630696296692
1761476325450011100,5.73601123046875,-0.0015372605994343758,-0.005036179441958666,-0.005874787922948599
1761476325460044000,5.7460439453125,0.00028207991272211075,-0.019211191684007645,-0.003592057153582573
1761476325470078000,5.756077880859375,-0.0006737285293638706,-0.02237769030034542,-0.0018186578527092934
1761476325480110800,5.76611083984375,0.0029291044920682907,-0.018400581553578377,-0.0016261730343103409
1761476325490144000,5.77614404296875,0.00012186728417873383,-0.006916764657944441,0.0018063755705952644
1761476325500178000,5.786177978515625,0.0007530581206083298,0.00960614625364542,0.0035967454314231873
1761476325510211000,5.796211181640625,-0.003277902491390705,0.014287451282143593,0.0007793866097927094
1761476325520244700,5.80624462890625,-0.0026361881755292416,0.01082445029169321,0.000060393474996089935
1761476325530278000,5.81627783203125,-0.0018002218566834927,0.005707452539354563,-0.0009947512298822403
1761476325540310800,5.826310791015625,-0.0009108595550060272,-0.004030320327728987,-0.0004947399720549583
1761476325550345000,5.836344970703125,-0.0004503987729549408,-0.008567547425627708,0.0012413747608661652
1761476325560377900,5.8463779296875,-0.0017122882418334484,-0.005793830845504999,-0.0001804996281862259
1761476325570412000,5.856412109375,-0.0007847095839679241,-0.0004027937538921833,-0.0012265900149941444
1761476325580445000,5.86644482421875,-0.0005257781594991684,0.0032482221722602844,-0.0015197591856122017
1761476325590477800,5.876477783203125,-0.0023969151079654694,0.005509778391569853,-0.003472123295068741
1761476325600511700,5.88651171875,-0.0011419737711548805,0.0011392519809305668,0.00014161039143800735
1761476325610545000,5.896544921875,-0.0009012236259877682,-0.004179879557341337,0.0007317662239074707
1761476325620577800,5.906577880859375,-0.0008474402129650116,-0.006443558260798454,0.001364835537970066
1761476325630612000,5.916612060546875,0.0017677843570709229,-0.0035625509917736053,-0.0011055124923586845
1761476325640644900,5.926644775390625,0.00009246263653039932,0.005713332444429398,-0.003055696375668049
1761476325650678800,5.9366787109375,-0.0017158230766654015,0.009239090606570244,-0.002033841796219349
1761476325660711700,5.946711669921875,0.0009706160053610802,0.010174071416258812,0.00180823914706707
1761476325670744800,5.956744873046875,0.0003559589385986328,0.0016956320032477379,0.0002574808895587921
1761476325680779000,5.966779052734375,-0.0011899103410542011,-0.013451142236590385,-0.0005654590204358101
1761476325690812000,5.97681201171875,-0.0007978933863341808,-0.019597982987761497,0.0035709626972675323
1761476325700846000,5.98684619140625,-0.0013289516791701317,-0.02155979909002781,-0.0005834987387061119
1761476325710879000,5.99687890625,-0.002266916912049055,-0.020445797592401505,-0.002947586588561535
1761476325720912000,6.006911865234375,0.0006001582369208336,-0.01599094457924366,-0.0025451919063925743
1761476325730945800,6.01694580078125,-0.0007766960188746452,-0.011742403730750084,-0.003566513769328594
1761476325740979000,6.02697900390625,0.0006964309141039848,-0.005627060774713755,0.0032598311081528664
1761476325751011800,6.03701171875,0.0007004253566265106,0.0016138078644871712,0.0020701969042420387
1761476325761046000,6.0470458984375,-0.0005241916514933109,0.004954521078616381,0.002880087122321129
1761476325771079000,6.057078857421875,-0.00046506989747285843,0.005693015642464161,0.0008869767189025879
1761476325781112800,6.06711279296875,0.0007733963429927826,0.00849328562617302,0.000454191118478775
1761476325791145700,6.077145751953125,0.00011080224066972733,0.009071990847587585,0.0011663204059004784
1761476325801179000,6.087178955078125,0.0003541186451911926,0.009922115132212639,0.0022766143083572388
1761476325811212800,6.097212890625,-0.00041766557842493057,0.008108236826956272,0.0003197239711880684
1761476325821246000,6.107245849609375,0.0025007659569382668,0.012154283002018929,0.000504898838698864
1761476325831279900,6.11727978515625,0.0030565671622753143,0.006981892045587301,0.0007504420354962349
1761476325841312800,6.127312744140625,-0.001390302088111639,0.0028326699975878,0.000957961194217205
1761476325851345700,6.137345703125,-0.0007181200198829174,-0.006027134135365486,-0.003185916692018509
1761476325861379800,6.1473798828125,-0.001836888026446104,-0.007767377886921167,-0.002665870822966099
1761476325871413000,6.1574130859375,0.0008169515058398247,-0.01095518283545971,-0.005852609407156706
1761476325881447000,6.167447021484375,0.0032467469573020935,-0.007203829940408468,-0.0013066455721855164
1761476325891480000,6.17747998046875,-0.0015991413965821266,0.0021755569614470005,-0.0009580375626683235
1761476325901513000,6.187512939453125,-0.0010663527064025402,0.009885730221867561,0.001991739496588707
1761476325911547000,6.197546875,0.00044845324009656906,0.015675175935029984,0.0021515293046832085
1761476325921579800,6.207579833984375,-0.0013657272793352604,0.012734011746942997,-0.000680895522236824
1761476325931613000,6.217613037109375,0.0005043437704443932,0.006712871138006449,-0.0010428186506032944
1761476325941646800,6.227646728515625,-0.0017482689581811428,-0.004800340160727501,-0.0002107946202158928
1761476325951680000,6.237679931640625,0.002953808754682541,-0.014895318076014519,-0.003832426853477955
1761476325961713700,6.247713623046875,0.00009661167860031128,-0.020085874944925308,-0.002192780375480652
1761476325971746800,6.257746826171875,0.0009355079382658005,-0.01492227241396904,-0.0012750551104545593
1761476325981779700,6.26777978515625,-0.00020677410066127777,-0.006691437680274248,-0.002224903553724289
1761476325991814000,6.27781396484375,-0.0005793501622974873,0.002072758972644806,-0.0018741646781563759
1761476326001846800,6.2878466796875,0.0004815896973013878,0.008349957875907421,-0.0012317486107349396
1761476326011880000,6.2978798828125,-0.0010201670229434967,0.008710283786058426,-0.000535864382982254
1761476326021913900,6.307913818359375,-0.0005112825892865658,0.005700056441128254,-0.0008059702813625336
1761476326031947000,6.317947021484375,-0.0021680351346731186,0.003315994516015053,0.0007620984688401222
1761476326041981000,6.32798095703125,-0.0031480584293603897,0.0013193381018936634,-0.001481388695538044
1761476326052013800,6.338013916015625,-0.0019538970664143562,-0.0004868181422352791,-0.0016883164644241333
1761476326062046700,6.348046630859375,0.000022318214178085327,0.0031548424158245325,-0.006764611694961786
1761476326072081000,6.358080810546875,0.0015347274020314217,-0.0010329782962799072,-0.0037411246448755264
1761476326082114000,6.368114013671875,0.003374764695763588,-0.004297814331948757,-0.0019823694601655006
1761476326092147700,6.378147705078125,0.0041018081828951836,-0.0030008554458618164,-0.00040338095277547836
1761476326102180900,6.388180908203125,0.0008475268259644508,-0.0038897311314940453,0.002748630940914154
1761476326112213800,6.3982138671875,0.000818232074379921,-0.0022241901606321335,-0.0019438592717051506
1761476326122248000,6.408248046875,-0.00048180948942899704,-0.0015513109974563122,0.0016498733311891556
1761476326132280800,6.41828076171875,0.0002252599224448204,0.0003312774933874607,-0.0012684185057878494
1761476326142314000,6.42831396484375,0.0017358139157295227,-0.00009750714525580406,-0.00013661757111549377
1761476326152348000,6.438347900390625,-0.0013039177283644676,0.002669517183676362,0.00007031019777059555
1761476326162381000,6.448381103515625,0.0013978248462080956,0.004770337603986263,0.002134847454726696
1761476326172414000,6.4584140625,0.000027095898985862732,0.002478421200066805,-0.0012747980654239655
1761476326182447900,6.46844775390625,0.0014944225549697876,0.004971344023942947,0.002062949351966381
1761476326192480800,6.478480712890625,-0.0003008143976330757,0.0027827583253383636,0.0011212555691599846
1761476326202515000,6.488514892578125,-0.0006116339936852455,0.004724511411041021,0.00024360138922929764
1761476326212547800,6.4985478515625,-0.003078519832342863,-0.000528041273355484,0.0007053930312395096
1761476326222581000,6.5085810546875,-0.0002666087821125984,0.00028623826801776886,-0.0035825250670313835
1761476326232614700,6.51861474609375,-0.0031761126592755318,0.00016799429431557655,-0.0027529504150152206
1761476326242647800,6.528647705078125,0.001043851487338543,0.0005530058406293392,0.0006651803851127625
1761476326252680700,6.5386806640625,0.0021378779783844948,0.0021058949641883373,0.0014358991757035255
1761476326262715000,6.54871484375,0.004417150281369686,0.0054516298696398735,0.0023204563185572624
1761476326272747800,6.558747802734375,0.004265350289642811,0.008741166442632675,0.0035130204632878304
1761476326282782000,6.568781982421875,0.0019893571734428406,0.010884334333240986,0.0014267433434724808
1761476326292814800,6.57881494140625,-0.00004423223435878754,0.011151982471346855,0.003552212379872799
1761476326302847700,6.58884765625,0.002386304549872875,0.010272769257426262,-0.000441121868789196
1761476326312882000,6.5988818359375,0.00028427131474018097,0.0095989890396595,-0.004268882796168327
1761476326322914800,6.608914794921875,0.00036770012229681015,0.0032652525696903467,0.0003892425447702408
1761476326332948000,6.618947998046875,-0.002211571205407381,-0.005094409920275211,-0.0004445929080247879
1761476326342982000,6.62898193359375,-0.0022407881915569305,-0.015568608418107033,0.0013973629102110863
1761476326353015000,6.63901513671875,-0.0024674232117831707,-0.02246992476284504,0.0015579517930746078
1761476326363048000,6.6490478515625,0.00017036031931638718,-0.02730996534228325,-0.0040771448984742165
1761476326373081900,6.659081787109375,-0.0007034232839941978,-0.02046830579638481,-0.001474970020353794
1761476326383114800,6.66911474609375,0.002215401269495487,-0.014976601116359234,0.0002582157030701637
1761476326393148000,6.67914794921875,0.00044226832687854767,-0.004919973202049732,0.002041734755039215
1761476326403181800,6.689181884765625,-0.0025267889723181725,0.003115278435871005,0.0038454746827483177
1761476326413215000,6.699215087890625,-0.0014207782223820686,0.01139664463698864,-0.0006685825064778328
1761476326423248600,6.70924853515625,-0.00016691163182258606,0.013439935632050037,0.00014220736920833588
1761476326433281800,6.71928173828125,0.0001870226114988327,0.012636460363864899,0.003762774169445038
1761476326443314700,6.729314697265625,0.00023670773953199387,0.011497767642140388,-0.0009045731276273727
1761476326453348900,6.739348876953125,-0.0004400014877319336,0.009565111249685287,-0.00032506976276636124
1761476326463381800,6.7493818359375,0.002495191991329193,0.014910513535141945,0.0020649656653404236
1761476326473415000,6.759414794921875,0.0022081024944782257,0.014450851827859879,-0.000569433905184269
1761476326483449000,6.769448974609375,0.003717011772096157,0.013479974120855331,0.00036458391696214676
1761476326493478400,6.779478515625,0.0014274921268224716,0.010240770876407623,0.001334773376584053
1761476326503511600,6.789511474609375,0.0012754295021295547,0.0026004062965512276,-0.0009508002549409866
1761476326513545500,6.79954541015625,0.0021809041500091553,-0.0045363325625658035,-0.00017182622104883194
1761476326523578400,6.809578369140625,0.0028847604990005493,-0.008019417524337769,-0.001383952796459198
1761476326533611300,6.819611328125,0.003842433914542198,-0.00874619372189045,-0.002906748093664646
1761476326543645400,6.8296455078125,0.0015351995825767517,-0.0012207790277898312,-0.00041961297392845154
1761476326553678600,6.8396787109375,0.0011242739856243134,0.007220642641186714,-0.0012414650991559029
1761476326563712300,6.849712158203125,0.0012113386765122414,0.012715631164610386,-0.0009398013353347778
1761476326573745400,6.859745361328125,0.00014687329530715942,0.012761970050632954,0.0014272164553403854
1761476326583778300,6.8697783203125,0.000615348108112812,0.008165507577359676,-0.0005187336355447769
1761476326593812500,6.8798125,-0.0018976111896336079,0.0035150954499840736,0.0017167236655950546
1761476326603845400,6.889845458984375,0.001352185383439064,-0.0017918534576892853,0.0013071047142148018
1761476326613878500,6.89987841796875,-0.00007553491741418839,-0.008100082166492939,-0.000821293331682682
1761476326623912400,6.909912353515625,-0.0005379165522754192,-0.0042108939960598946,0.0009277928620576859
1761476326633945300,6.9199453125,-0.002823175396770239,-0.0024191197007894516,0.00009395740926265717
1761476326643978200,6.929978271484375,-0.0007562390528619289,-0.0008895741775631905,-0.0030503589659929276
1761476326654012400,6.940012451171875,-0.002906208857893944,-0.0028946679085493088,-0.0018082605674862862
1761476326664045300,6.95004541015625,-0.0017087324522435665,-0.0021968153305351734,-0.002997634932398796
1761476326674078500,6.960078369140625,-0.002042692620307207,-0.0007315441034734249,-0.00048254523426294327
1761476326684112400,6.9701123046875,-0.001054986845701933,0.001790432259440422,0.0019585387781262398
1761476326694145500,6.9801455078125,-0.0006009181961417198,0.007082399912178516,-0.0009701400995254517
1761476326704178400,6.990178466796875,0.0005407752469182014,0.007085087709128857,-0.0029892977327108383
1761476326714212400,7.00021240234375,-0.0005370057187974453,0.007813728414475918,0.00376820657402277
1761476326724245200,7.010245361328125,-0.0005111885257065296,0.004185506142675877,-0.000045291148126125336
1761476326734278400,7.0202783203125,-0.00013248715549707413,-0.0002063130959868431,0.0002812119200825691
1761476326744312600,7.0303125,-0.0016837031580507755,-0.0054751127026975155,-0.0048257880844175816
1761476326754345500,7.040345458984375,0.0007059508934617043,-0.010221133008599281,-0.003596206195652485
1761476326764379400,7.05037939453125,0.0027458202093839645,-0.011872740462422371,-0.004258419387042522
1761476326774412300,7.060412353515625,0.002919458784162998,-0.008794127032160759,-0.004427263513207436
1761476326784445400,7.070445556640625,0.0007584737613797188,-0.0034850547090172768,-0.0014686575159430504
1761476326794479400,7.080479248046875,0.0012751268222928047,0.007411002181470394,0.0038459468632936478
1761476326804512500,7.090512451171875,-0.0011599194258451462,0.01047502551227808,0.0007428564131259918
1761476326814545400,7.10054541015625,-0.0023732553236186504,0.010608982294797897,0.0007335357367992401
1761476326824579600,7.11057958984375,-0.002086421474814415,0.0023426914121955633,-0.0043130964040756226
1761476326834612500,7.120612548828125,-0.00014044996351003647,-0.0067418841645121574,-0.006395421922206879
1761476326844645400,7.130645263671875,-0.0007863715291023254,-0.012405361980199814,-0.002333349548280239
1761476326854679300,7.14067919921875,0.0007044663652777672,-0.010568846017122269,-0.002597801387310028
1761476326864712400,7.15071240234375,-0.0017328588292002678,-0.0023894794285297394,0.0008411379531025887
1761476326874745300,7.160745361328125,0.003266426734626293,0.003715550759807229,0.0014954768121242523
1761476326884779500,7.170779541015625,-0.0021752631291747093,0.0073267086409032345,-0.0004556272178888321
1761476326894812400,7.1808125,-0.002000293228775263,0.007536565884947777,-0.0010367296636104584
1761476326904845600,7.190845458984375,-0.0013805227354168892,-0.0013582734391093254,-0.002106926403939724
1761476326914879200,7.200879150390625,-0.0006505502387881279,-0.00781084643676877,-0.0038840537890791893
1761476326924912400,7.210912353515625,0.0022363169118762016,-0.0119563527405262,0.0005473913624882698
1761476326934945300,7.2209453125,0.0006914166733622551,-0.008428730070590973,-0.0024630455300211906
1761476326944979500,7.2309794921875,0.004908425733447075,-0.003572929184883833,-0.003422517329454422
1761476326955012400,7.241012451171875,0.006051454693078995,0.004142780788242817,0.001101926900446415
1761476326965045500,7.25104541015625,0.004415528848767281,0.011070283129811287,0.0003475239500403404
1761476326975079400,7.261079345703125,0.004585172049701214,0.018688788637518883,0.0009994665160775185
1761476326985112300,7.2711123046875,0.004959080368280411,0.017554014921188354,0.0003014514222741127
1761476326995145200,7.281145263671875,0.003803001716732979,0.010655096732079983,-0.005493054166436195
1761476327005179400,7.291179443359375,0.002921069972217083,0.00012623053044080734,-0.002989213913679123
1761476327015212300,7.30121240234375,-0.0006030909717082977,-0.013897442258894444,-0.002441401593387127
1761476327025245400,7.311245361328125,-0.0019256188534200191,-0.02345014363527298,-0.0012726951390504837
1761476327035279600,7.321279541015625,-0.0015125623904168606,-0.030169032514095306,0.003041359595954418
1761476327045312500,7.3313125,-0.0030349302105605602,-0.026001185178756714,-0.00109963770955801
1761476327055345400,7.341345458984375,-0.003043718636035919,-0.015008721500635147,0.0004732254892587662
1761476327065379300,7.35137939453125,-0.00296797975897789,-0.004272310994565487,-0.0014654677361249924
1761476327075412500,7.36141259765625,-0.002377290278673172,0.0032745543867349625,-0.0009006112813949585
1761476327085445400,7.3714453125,-0.003779924474656582,-0.0014132880605757236,0.0005024708807468414
1761476327095479600,7.3814794921875,-0.005515506491065025,0.0018277792260050774,-0.00038143154233694077
1761476327105512400,7.391512451171875,-0.00279050599783659,-0.000181456096470356,-0.0002713128924369812
1761476327115545600,7.401545654296875,-0.0021233842708170414,0.00620320625603199,-0.0004811706021428108
1761476327125579300,7.411579345703125,-0.0001409268006682396,0.0060537694953382015,-0.0018990961834788322
1761476327135612400,7.4216123046875,0.0005459021776914597,0.005620739422738552,-0.0021134810522198677
1761476327145645300,7.431645263671875,0.0007241219282150269,0.004827567376196384,0.001399739645421505
1761476327155679500,7.441679443359375,-0.00044580549001693726,0.007071813568472862,0.00046896468847990036
1761476327165712400,7.45171240234375,-0.0007286337204277515,0.008839023299515247,-0.00031252019107341766
1761476327175745500,7.46174560546875,0.0011265240609645844,0.0021899091079831123,-0.0020430423319339752
1761476327185778400,7.4717783203125,0.005203288979828358,-0.008403414860367775,-0.00030731502920389175
1761476327195812400,7.481812255859375,0.008537034504115582,-0.01920359954237938,0.0010623494163155556
1761476327205845200,7.49184521484375,0.007103670388460159,-0.01794610545039177,-0.001273253932595253
1761476327215878400,7.50187841796875,0.0027672452852129936,-0.009059669449925423,-0.002536390908062458
1761476327225912300,7.511912353515625,0.0009792428463697433,0.004768505226820707,0.0015740850940346718
1761476327235945500,7.521945556640625,-0.00135821383446455,0.0149079579859972,-0.001974044367671013
1761476327245978400,7.531978271484375,0.0004229685291647911,0.01460721530020237,-0.0006501981988549232
1761476327256012500,7.542012451171875,-0.002468691673129797,0.001777703408151865,0.0009524915367364883
1761476327266045400,7.55204541015625,-0.00022412370890378952,-0.003980662208050489,0.0003990698605775833
1761476327276078300,7.562078369140625,-0.0021706284023821354,-0.00936051458120346,0.0018249256536364555
1761476327286112300,7.5721123046875,-0.0045541077852249146,-0.010618573054671288,-0.000406583771109581
1761476327296145400,7.5821455078125,-0.0022086617536842823,-0.009600181132555008,-0.0003650384023785591
1761476327306178300,7.59217822265625,-0.0002599703148007393,-0.008110519498586655,-0.0004292977973818779
1761476327316212500,7.60221240234375,-0.0012171105481684208,-0.0035855420865118504,-0.003931887447834015
1761476327326245400,7.612245361328125,-0.0011603347957134247,0.0017341729253530502,-0.0002029184252023697
1761476327336278500,7.622278564453125,-0.0012104022316634655,0.009005934000015259,0.0036528054624795914
1761476327346312400,7.6323125,-0.00002476666122674942,0.013116488233208656,0.004303088411688805
1761476327356345300,7.642345458984375,0.0007241144776344299,0.011226974427700043,0.0009030308574438095
1761476327366378200,7.652378173828125,-0.0042181736789643764,0.006784128025174141,-0.005263603292405605
1761476327376412400,7.662412353515625,-0.0024772649630904198,-0.0011688699014484882,-0.0021714065223932266
1761476327386445600,7.672445556640625,-0.0004770234227180481,-0.008486360311508179,0.000014530494809150696
1761476327396478500,7.682478515625,0.0037941541522741318,-0.011405184864997864,0.0026883436366915703
1761476327406511400,7.692511474609375,0.003200259990990162,-0.0055234418250620365,0.0020125117152929306
1761476327416545300,7.702545166015625,0.005389644764363766,0.0011608260683715343,0.0014042453840374947
1761476327426578400,7.712578369140625,0.003504185937345028,0.007422078866511583,-0.0019364934414625168
1761476327436611300,7.722611328125,0.002192579209804535,0.007937933318316936,-0.000028605572879314423
1761476327446645500,7.7326455078125,0.0021055471152067184,-0.004072269424796104,-0.0004995865747332573
1761476327456678400,7.742678466796875,0.004735951311886311,-0.01758940890431404,-0.0005531162023544312
1761476327466711600,7.752711669921875,0.0038202479481697083,-0.01819498836994171,0.0019521228969097137
1761476327476745500,7.762745361328125,0.001128324307501316,-0.009981799870729446,-0.0015896148979663849
1761476327486778600,7.772778564453125,-0.00431000767275691,0.004478076007217169,0.00006287358701229095
1761476327496814600,7.782814697265625,-0.004777925089001656,0.016874026507139206,0.0015643639490008354
1761476327506848500,7.7928486328125,-0.007490248419344425,0.020749129354953766,0.0016758833080530167
1761476327516881400,7.80288134765625,-0.00790836475789547,0.010057071223855019,0.0017094388604164124
1761476327526914600,7.81291455078125,-0.0025066821835935116,-0.007478857412934303,0.0012208875268697739
1761476327536948500,7.822948486328125,-0.0004195626825094223,-0.027956966310739517,0.0002661449834704399
1761476327546981600,7.832981689453125,0.0011206865310668945,-0.036229077726602554,-0.0005518440157175064
1761476327557014500,7.8430146484375,0.002587555907666683,-0.03185190632939339,0.00021514669060707092
1761476327567047700,7.853047607421875,-0.0006283549591898918,-0.01275378093123436,-0.00009098555892705917
1761476327577081300,7.863081298828125,0.00018390920013189316,0.006030293647199869,-0.00038100406527519226
1761476327587114500,7.873114501953125,-0.0022660349495708942,0.022589929401874542,0.0022663092240691185
1761476327597147400,7.8831474609375,-0.0009720050729811192,0.029273930937051773,0.003450351767241955
1761476327607181600,7.893181640625,-0.0018110326491296291,0.028306789696216583,0.00462560448795557
1761476327617214500,7.90321435546875,-0.0028347517363727093,0.02065499685704708,0.004679135046899319
1761476327627247600,7.91324755859375,-0.00019187387079000473,0.015306000597774982,-0.0010866066440939903
1761476327637281500,7.923281494140625,0.0029554497450590134,0.0010375827550888062,-0.004132464528083801
1761476327647314400,7.933314453125,0.004917195066809654,-0.0149577297270298,-0.0057133836671710014
1761476327657347300,7.943347412109375,0.005151286721229553,-0.02620852179825306,-0.003110942430794239
1761476327667380500,7.95338037109375,0.0018988791853189468,-0.03414049744606018,0.0022633159533143044
1761476327677414400,7.963414306640625,-0.0009765364229679108,-0.023267611861228943,0.001612706109881401
1761476327687447600,7.973447509765625,-0.004267793148756027,-0.00331234373152256,0.0033159302547574043
1761476327697480400,7.98348046875,-0.0068513257429003716,0.010095074772834778,0.004139378666877747
1761476327707514600,7.9935146484375,-0.00641664769500494,0.014889910817146301,0.0001907777041196823
1761476327717547500,8.003547607421876,-0.0017017871141433716,0.00498028751462698,0.0006925174966454506
1761476327727580700,8.01358056640625,-0.0007491679862141609,-0.010995704680681229,-0.0003804033622145653
1761476327737614300,8.0236142578125,0.001668982207775116,-0.02003953419625759,-0.001601995900273323
1761476327747647500,8.0336474609375,-0.0007589943706989288,-0.014234963804483414,-0.0007043881341814995
1761476327757680400,8.043680419921875,0.0009651361033320427,0.0014047152362763882,-0.00043940357863903046
1761476327767714600,8.053714599609375,0.0009077936410903931,0.018481634557247162,-0.0004015769809484482
1761476327777747500,8.06374755859375,0.000925636850297451,0.026246346533298492,0.0015009855851531029
1761476327787780600,8.073780517578125,-0.0012569837272167206,0.027905434370040894,0.003662874922156334
1761476327797813500,8.0838134765625,0.001502850092947483,0.019367873668670654,0.0049635618925094604
1761476327807847400,8.093847412109374,-0.0006817346438765526,0.005494510289281607,0.0012343088164925575
1761476327817880300,8.10388037109375,-0.00007027294486761093,-0.0021729967556893826,-0.0011598728597164154
1761476327827913500,8.11391357421875,-0.0009468519128859043,-0.008418025448918343,-0.0008694371208548546
1761476327837947600,8.12394775390625,0.002956809476017952,-0.011785859242081642,-0.0010390803217887878
1761476327847980500,8.13398046875,0.0053957803174853325,-0.010114114731550217,-0.001839829608798027
1761476327858013400,8.144013427734375,0.005273807793855667,-0.007982786744832993,-0.002663278952240944
1761476327868046600,8.154046630859375,0.0027130339294672012,-0.0012974231503903866,0.0011267410591244698
1761476327878080500,8.16408056640625,0.0014757290482521057,0.00482172193005681,-0.0014815591275691986
1761476327888113400,8.174113525390625,0.0006830031052231789,0.009212633594870567,0.0017668260261416435
1761476327898146300,8.184146240234375,-0.00048505980521440506,0.011645164340734482,0.002502923831343651
1761476327908180500,8.194180419921874,-0.002066170796751976,0.012701954692602158,-0.00039851851761341095
1761476327918213600,8.204213623046876,-0.0028624562546610832,0.006917568389326334,0.0033101998269557953
1761476327928246500,8.21424658203125,-0.005636441521346569,0.0015116892755031586,-0.002064082771539688
1761476327938279400,8.224279541015624,-0.002399901859462261,-0.00416856724768877,0.0011610053479671478
1761476327948313600,8.234313720703126,-0.0038762246258556843,-0.011068731546401978,0.0019864700734615326
1761476327958346500,8.244346435546875,-0.0008548684418201447,-0.007357617374509573,-0.0030266642570495605
1761476327968379400,8.25437939453125,-0.001204503234475851,-0.0037332926876842976,0.0006817784160375595
1761476327978413600,8.26441357421875,-0.0008489713072776794,-0.0011079483665525913,-0.001620524562895298
1761476327988446500,8.274446533203125,-0.002798105590045452,0.002084038220345974,-0.0029923012480139732
1761476327998479600,8.284479736328125,0.0010962346568703651,0.002084837295114994,-0.002262595109641552
1761476328008513500,8.294513427734374,-0.0020788623951375484,0.0022908358369022608,-0.0041662780568003654
1761476328018546700,8.304546630859376,-0.0004186481237411499,0.003484997432678938,0.00037600938230752945
1761476328028579600,8.31457958984375,-0.0015254048630595207,0.004259169101715088,0.000928991474211216
1761476328038612500,8.324612548828124,-0.001714223064482212,0.007785727269947529,-0.001163986511528492
1761476328048646400,8.334646484375,-0.00020165182650089264,0.004735937342047691,-0.00037668831646442413
1761476328058679600,8.344679443359375,-0.001681304071098566,0.005091735627502203,-0.0034859292209148407
1761476328068712400,8.35471240234375,0.00047035887837409973,0.0016883709467947483,-0.003966236487030983
1761476328078746600,8.36474658203125,0.001490083523094654,-0.003861390519887209,-0.0018072118982672691
1761476328088779500,8.374779541015625,0.00315029826015234,-0.012331841513514519,-0.0027102893218398094
1761476328098812700,8.384812744140625,0.0016240403056144714,-0.011529697105288506,-0.003184865228831768
1761476328108845600,8.394845458984374,0.0029010260477662086,-0.011106787249445915,0.0006956271827220917
1761476328118879500,8.40487939453125,0.0014144498854875565,-0.0034278281964361668,-0.0030543701723217964
1761476328128912400,8.414912353515625,-0.00022223498672246933,-0.0001639719121158123,0.00014021527022123337
1761476328138945500,8.424945556640624,0.0002576662227511406,0.004735978320240974,0.00273759663105011
1761476328148979500,8.4349794921875,-0.00021706055849790573,0.00710085267201066,-0.0019194679334759712
1761476328159012600,8.4450126953125,0.0007784292101860046,0.008080363273620605,0.001313876360654831
1761476328169045500,8.45504541015625,-0.0017204931937158108,0.007315539754927158,0.0011652503162622452
1761476328179078700,8.46507861328125,-0.003476581536233425,0.010528110899031162,-0.00040814466774463654
1761476328189112300,8.4751123046875,-0.0032780878245830536,0.0066849165596067905,-0.000791013240814209
1761476328199145500,8.4851455078125,-0.0018501006998121738,0.0005806847475469112,-0.0003515910357236862
1761476328209178400,8.495178466796874,-0.0002635028213262558,-0.0017173425294458866,-0.0027140872552990913
1761476328219212500,8.505212646484376,0.00010294746607542038,-0.007291871588677168,-0.0010591987520456314
1761476328229245400,8.515245361328125,0.0003731055185198784,-0.011216320097446442,-0.0004141759127378464
1761476328239278600,8.525278564453124,-0.0000615222379565239,-0.004445765633136034,-0.001832042820751667
1761476328249311500,8.5353115234375,-0.0005138400010764599,0.00002915831282734871,-0.0022520283237099648
1761476328259345400,8.545345458984375,-0.0021713916212320328,0.010451971553266048,-0.003071483224630356
1761476328269378300,8.55537841796875,0.000004990957677364349,0.013745047152042389,-0.0010229172185063362
1761476328279411500,8.565411376953126,-0.002260027453303337,0.014478747732937336,0.002421882003545761
1761476328289444400,8.5754443359375,-0.0036292383447289467,0.00502216350287199,0.0010524606332182884
1761476328299478500,8.585478515625,-0.0037197857163846493,-0.009275549091398716,0.0037347953766584396
1761476328309511400,8.595511474609374,-0.004450095351785421,-0.020701492205262184,0.0009294729679822922
1761476328319548700,8.605548583984374,-0.0004396410658955574,-0.029489124193787575,-0.002265787683427334
1761476328329581600,8.61558154296875,-0.001615680754184723,-0.02801554463803768,-0.0021298881620168686
1761476328339614500,8.625614501953125,-0.0028026518411934376,-0.025676755234599113,-0.00225931778550148
1761476328349648400,8.6356484375,-0.0028267824091017246,-0.019998958334326744,0.0017851563170552254
1761476328359681500,8.645681640625,-0.004838800523430109,-0.004443968180567026,0.0027135340496897697
1761476328369714400,8.65571435546875,-0.0013094055466353893,0.008694854564964771,0.000939483754336834
1761476328379747300,8.665747314453125,-0.002136582974344492,0.01979464292526245,0.0017773136496543884
1761476328389781500,8.675781494140624,-0.0035864203236997128,0.023109160363674164,0.003271002322435379
1761476328399814700,8.685814697265625,-0.002993866801261902,0.024807723239064217,0.004232402890920639
1761476328409847600,8.69584765625,-0.0003477158024907112,0.014777745120227337,0.0003039548173546791
1761476328419881500,8.705881591796874,0.0014957236126065254,0.005191164556890726,0.0006152782589197159
1761476328429914400,8.715914306640625,-0.0015747137367725372,-0.004530264064669609,-0.004214935936033726
1761476328439947500,8.725947509765625,0.0008215988054871559,-0.008457095362246037,-0.002867376431822777
1761476328449980400,8.73598046875,0.0012045949697494507,-0.011632895097136497,-0.0005435217171907425
1761476328460014600,8.7460146484375,0.0032128840684890747,-0.007289547007530928,-0.0008601713925600052
1761476328470047500,8.756047607421875,0.004923942498862743,-0.002288096584379673,0.00145714171230793
1761476328480080600,8.76608056640625,0.005187862552702427,0.0035250510554760695,-0.001010810025036335
1761476328490113500,8.776113525390626,0.005742638371884823,0.007833437994122505,-0.00012604054063558578
1761476328500145400,8.7861455078125,0.002005957067012787,0.006983622908592224,-0.00005679856985807419
1761476328510178300,8.79617822265625,0.0029752738773822784,0.002816117601469159,-0.003008604049682617
1761476328520211500,8.80621142578125,-0.0007086768746376038,0.0014709550887346268,-0.00017446838319301605
1761476328530245400,8.816245361328125,-0.002885722555220127,0.00020726770162582397,0.002951323054730892
1761476328540278500,8.826278564453125,-0.0006039263680577278,0.0028797497507184744,0.0009017549455165863
1761476328550311400,8.8363115234375,-0.0032461071386933327,0.006347322370857,-0.00029494334012269974
1761476328560344600,8.846344482421875,-0.002008802257478237,0.004564069677144289,0.0006933556869626045
1761476328570378200,8.856378173828125,-0.0046616545878350735,0.0008747042156755924,-0.002438024617731571
1761476328580411400,8.866411376953126,-0.003520756494253874,-0.006989877205342054,-0.0007506459951400757
1761476328590444300,8.8764443359375,-0.00009082350879907608,-0.011713556945323944,-0.001306578516960144
1761476328600477400,8.8864775390625,-0.0026487894356250763,-0.007400034461170435,-0.002195274457335472
1761476328610511400,8.896511474609374,-0.0021483520977199078,-0.004798539448529482,0.0024928534403443336
1761476328620544500,8.90654443359375,-0.002562739886343479,0.005941190291196108,-0.0019133463501930237
1761476328630577400,8.916577392578125,-0.0012628366239368916,0.011164931580424309,0.0021894099190831184
1761476328640611300,8.926611328125,-0.0014820150099694729,0.013904524967074394,-0.0011882772669196129
1761476328650644200,8.936644287109376,0.0014741234481334686,0.009357032366096973,-0.00002484116703271866
1761476328660677400,8.946677490234375,0.0007289713248610497,0.0030967395287007093,0.0005362872034311295
1761476328670710300,8.956710205078124,0.0002591600641608238,-0.004380898084491491,0.0003719935193657875
1761476328680744400,8.966744384765626,0.0033747926354408264,-0.0022405157797038555,-0.0008509298786520958
1761476328690777300,8.97677734375,0.00643162801861763,0.00018165400251746178,0.001773032359778881
1761476328700810500,8.986810546875,0.002339147962629795,0.003419258864596486,-0.001368432305753231
1761476328710843400,8.996843505859376,0.0007738610729575157,0.005813968367874622,-0.0012054340913891792
1761476328720877300,9.006877197265625,0.004831986501812935,0.0067458082921803,-0.0020307479426264763
1761476328730910200,9.01691015625,0.003320637159049511,0.0018702400848269463,0.0009800195693969727
1761476328740943400,9.026943359375,-0.00020725280046463013,0.0012308149598538876,-0.0009952466934919357
1761476328750976300,9.036976318359375,0.0030089030042290688,-0.004415771458297968,0.0007586609572172165
1761476328761010400,9.047010498046875,0.0031601712107658386,-0.004204050172120333,-0.0010115420445799828
1761476328771043300,9.057043212890624,0.0017191339284181595,-0.0037220180965960026,-0.0016813268885016441
1761476328781076500,9.067076416015626,0.004568716511130333,0.0005664699710905552,0.001243889331817627
1761476328791110400,9.0771103515625,0.0037450576201081276,0.006032092031091452,0.0002643214538693428
1761476328801143300,9.087143310546875,0.0012352950870990753,0.007105612196028233,0.00259219016879797
1761476328811176200,9.09717626953125,0.001382671296596527,0.015226324088871479,0.0015082117170095444
1761476328821209300,9.107209228515625,0.0018303487449884415,0.013254253193736076,0.0002570590004324913
1761476328831243500,9.117243408203125,0.002437152899801731,0.013948865234851837,0.0012960601598024368
1761476328841276400,9.1272763671875,0.00003471504896879196,0.011505947448313236,-0.001337805762887001
1761476328851309300,9.137309326171875,0.0018620723858475685,0.005964506883174181,0.0020452765747904778
1761476328861342500,9.147342529296875,0.002822408452630043,0.0021484633907675743,0.0008340710774064064
1761476328871376600,9.157376708984375,0.0010324101895093918,-0.0006865276955068111,0.0007449500262737274
1761476328881409300,9.1674091796875,0.0005919234827160835,0.0041875895112752914,-0.0014361795037984848
1761476328891442200,9.177442138671875,0.0005981894209980965,0.007326990831643343,-0.0011148927733302116
1761476328901475300,9.187475341796874,-0.0011451155878603458,0.008982677944004536,-0.0010941196233034134
1761476328911509500,9.197509521484376,0.0011443067342042923,0.0090800691395998,0.0005104411393404007
1761476328921542400,9.20754248046875,0.000438835471868515,0.0028480058535933495,0.0016923518851399422
1761476328931575300,9.2175751953125,-0.0026374668814241886,-0.00440596416592598,0.003933234140276909
1761476328941608400,9.2276083984375,-0.0024800742976367474,-0.016667958348989487,0.003735627979040146
1761476328951642600,9.237642578125,-0.0030407789163291454,-0.02443573623895645,0.0005157934501767159
1761476328961675500,9.247675537109375,-0.0017430204898118973,-0.02575533092021942,-0.0001731663942337036
1761476328971708400,9.25770849609375,0.0010743020102381706,-0.026586368680000305,-0.004888467490673065
1761476328981741300,9.2677412109375,0.0011872202157974243,-0.02311307191848755,-0.0042650215327739716
1761476328991775500,9.277775390625,0.00030540861189365387,-0.0152739267796278,0.0003117052838206291
1761476329001808400,9.287808349609374,0.0003546774387359619,-0.0008603665046393871,0.0021562110632658005
1761476329011841300,9.29784130859375,0.001594950444996357,0.011337311938405037,0.002465585246682167
1761476329021874400,9.30787451171875,0.0016364958137273788,0.02086397260427475,0.0007276060059666634
1761476329031908600,9.31790869140625,0.0015526898205280304,0.020181801170110703,0.0014520902186632156
1761476329041941500,9.32794140625,0.002748715691268444,0.014203005470335484,0.0029695602133870125
1761476329051974700,9.337974609375,0.002973153255879879,0.006423579063266516,0.003022007644176483
1761476329062007600,9.348007568359375,0.0013869740068912506,-0.0005435165949165821,0.0008286284282803535
1761476329072041500,9.35804150390625,0.000933588482439518,-0.0028189895674586296,-0.00205199234187603
1761476329082074400,9.368074462890625,0.0037637297064065933,-0.0031074099242687225,0.0008244877681136131
1761476329092107500,9.378107421875,0.0037499386817216873,0.0014944681897759438,0.0016828281804919243
1761476329102140400,9.388140380859374,0.00193046685308218,0.003107544733211398,-0.00003411155194044113
1761476329112174600,9.398174560546876,0.0003973012790083885,0.0037449037190526724,-0.0006420239806175232
1761476329122207500,9.40820751953125,0.0032202526926994324,0.0017201025038957596,-0.0018851878121495247
1761476329132240600,9.41824072265625,0.0017780726775527,0.005908790975809097,-0.0026912903413176537
1761476329142274300,9.4282744140625,0.0014347909018397331,0.0038863865192979574,-0.000387655571103096
1761476329152307500,9.438307373046875,0.0002874433994293213,0.002079227939248085,-0.0004204185679554939
1761476329162340400,9.44834033203125,-0.0017330963164567947,0.00041342107579112053,-0.0003884602338075638
1761476329172373500,9.45837353515625,-0.0018667951226234436,-0.0002607968635857105,-0.00015758629888296127
1761476329182406400,9.468406494140625,-0.0042607104405760765,-0.0013779927976429462,-0.0014337729662656784
1761476329192440600,9.478440673828125,-0.0006261244416236877,-0.001803673803806305,-0.002072976902127266
1761476329202473500,9.488473388671874,-0.0013209432363510132,-0.004374423064291477,-0.0018980074673891068
1761476329212506600,9.498506591796875,-0.0013953084126114845,-0.002074233256280422,0.0014246795326471329
1761476329222539500,9.50853955078125,-0.0008677360601723194,0.002072308212518692,0.0012148227542638779
1761476329232573400,9.518573486328124,-0.00014726724475622177,0.0029856383334845304,-0.0017611552029848099
1761476329242606300,9.5286064453125,-0.001899627037346363,0.0035004273522645235,0.0015773829072713852
1761476329252639500,9.538639404296875,-0.004046830348670483,0.00437646359205246,0.00046024657785892487
1761476329262672400,9.54867236328125,-0.002892083488404751,0.003108532400801778,-0.000929657369852066
1761476329272706600,9.55870654296875,-0.003947146236896515,-0.0012612421996891499,-0.0020567355677485466
1761476329282739500,9.568739501953125,-0.0033063897863030434,-0.001844208687543869,-0.0025664642453193665
1761476329292772600,9.578772705078125,-0.0028174137696623802,-0.006114783696830273,-0.0015607625246047974
1761476329302805500,9.588805419921876,-0.0029428484849631786,-0.00847194716334343,-0.0036795735359191895
1761476329312839400,9.59883935546875,-0.00007316842675209045,-0.007144701201468706,-0.003952129743993282
1761476329322872300,9.608872314453125,0.00251622311770916,-0.0039475760422647,-0.0014383718371391296
1761476329332905500,9.618905517578124,0.0014380719512701035,-0.0013855481520295143,-0.0010191183537244797
1761476329342938400,9.6289384765625,0.0027097314596176147,-0.0005932576023042202,-0.00034294184297323227
1761476329352972500,9.63897265625,0.0011519212275743484,0.002755043562501669,0.0015394790098071098
1761476329363005400,9.64900537109375,0.002569255419075489,0.0018889838829636574,-0.0013210223987698555
1761476329373038600,9.65903857421875,0.0003264080733060837,-0.0031718648970127106,-0.00533518148586154
1761476329383071500,9.669071533203125,0.00177862960845232,-0.008356773294508457,-0.00438975915312767
1761476329393105400,9.67910546875,0.001386428251862526,-0.010052734985947609,-0.002479235641658306
1761476329403138300,9.68913818359375,0.0031888550147414207,-0.011005613952875137,-0.00427686981856823
1761476329413171500,9.69917138671875,0.0016544647514820099,-0.0017344257794320583,-0.0006865113973617554
1761476329423204400,9.709204345703125,0.006155206821858883,0.005005235783755779,0.0015843668952584267
1761476329433238500,9.719238525390624,0.0038043661043047905,0.013785453513264656,0.0035769175738096237
1761476329443271400,9.729271484375,0.0026669297367334366,0.01068153977394104,-0.00007534120231866837
1761476329453304600,9.7393046875,0.00035850889980793,0.0072907027788460255,-0.0006481688469648361
1761476329463337500,9.74933740234375,0.0005739592015743256,-0.0028679254464805126,0.0005638357251882553
1761476329473371400,9.759371337890625,0.002771681174635887,-0.007673736196011305,-0.004759988281875849
1761476329483404300,9.769404296875,0.0025109583511948586,-0.01012331247329712,-0.0015554064884781837
1761476329493437000,9.77943701171875,0.002091469243168831,-0.009892212226986885,-0.0005482500419020653
1761476329503469800,9.7894697265625,0.0020584454759955406,-0.0014856792986392975,0.0008882591500878334
1761476329513503700,9.799503662109375,0.00006547477096319199,0.003639753209426999,0.002446843311190605
1761476329523536600,9.80953662109375,0.0007781367748975754,0.011728305369615555,0.0021544285118579865
1761476329533569800,9.81956982421875,-0.002169097773730755,0.011614799499511719,-0.0004626847803592682
1761476329543602700,9.829602783203125,0.001368645578622818,0.011211862787604332,-0.0018195649608969688
1761476329553636900,9.839636962890625,-0.0019292091019451618,0.005383932031691074,-0.0018719080835580826
1761476329563669800,9.849669677734376,-0.00115103367716074,-0.006310807541012764,-0.00030224118381738663
1761476329573703000,9.859702880859375,0.0001614801585674286,-0.013824297115206718,0.0036786431446671486
1761476329583735800,9.86973583984375,-0.0023456192575395107,-0.019286971539258957,0.003835502080619335
1761476329593769000,9.87976904296875,-0.0025218836963176727,-0.019772477447986603,-0.0008581914007663727
1761476329603802600,9.889802734375,-0.0006741825491189957,-0.016649654135107994,-0.002061407081782818
1761476329613835800,9.899835693359375,0.0008495952934026718,-0.01172301359474659,-0.0012448551133275032
1761476329623868700,9.90986865234375,0.0007105786353349686,-0.008149851113557816,0.002764534205198288
1761476329633901800,9.91990185546875,-0.0030176211148500443,-0.004220153205096722,0.0004081195220351219
1761476329643935700,9.929935791015625,-0.0026823291555047035,0.0034279129467904568,0.0052161915227770805
1761476329653969000,9.939968994140624,-0.0031750150956213474,0.008371615782380104,-0.0001656562089920044
1761476329664001800,9.950001708984376,-0.0021156095899641514,0.012742927297949791,0.0004945416003465652
1761476329674035000,9.960034912109375,-0.0006456868723034859,0.010605135932564735,0.00022172089666128159
1761476329684068600,9.970068603515625,-0.0001857588067650795,0.010718320496380329,0.0011540930718183517
1761476329694101800,9.980101806640626,0.0025839563459157944,0.010982122272253036,0.0014941990375518799
1761476329704134700,9.990134765625,0.00021827034652233124,0.006161001976579428,0.0009373314678668976
1761476329714167800,10.000167724609375,-0.0010280185379087925,0.0046996911987662315,0.0012473557144403458
1761476329724201700,10.01020166015625,0.0017083790153265,0.0007566153071820736,0.00015492737293243408
1761476329734235000,10.02023486328125,0.0003512157127261162,-0.005448271986097097,0.0018282392993569374
1761476329744267800,10.030267822265625,0.001686258241534233,-0.006655216682702303,0.0015390198677778244
1761476329754301000,10.040301025390624,0.0016346555203199387,-0.008733145892620087,-0.0013618171215057373
1761476329764333800,10.050333740234375,0.0009062802419066429,0.0007730075158178806,-0.0011144094169139862
1761476329774367700,10.06036767578125,0.0019944431260228157,0.009413015097379684,-0.00034330226480960846
1761476329784400600,10.070400634765624,0.0028035109862685204,0.01569993980228901,0.0010681739076972008
1761476329794433800,10.080433837890626,0.001840982586145401,0.015233748592436314,0.0024773720651865005
1761476329804466700,10.090466796875,-0.000264778733253479,0.008411794900894165,0.001102648675441742
1761476329814500900,10.1005009765625,-0.00032414495944976807,0.003104990581050515,0.0017754603177309036
1761476329824533800,10.11053369140625,0.00031661149114370346,-0.00448581762611866,0.003823697566986084
1761476329834567000,10.12056689453125,-0.0012053302489221096,-0.004557412583380938,0.0010028723627328873
1761476329844599800,10.130599853515625,-0.002727060578763485,-0.006659978535026312,0.0007344260811805725
1761476329854633700,10.1406337890625,-0.00009437557309865952,-0.003814571537077427,-0.000597294420003891
1761476329864666600,10.15066650390625,-0.00134659418836236,-0.00250909011811018,0.0003172345459461212
1761476329874699800,10.16069970703125,-0.0004508569836616516,0.0024656096938997507,0.00007342919707298279
1761476329884732700,10.170732666015626,0.001261022873222828,0.0034728171303868294,0.0020460328087210655
1761476329894765800,10.180765869140625,-0.00034644734114408493,0.01019195094704628,0.004079034551978111
1761476329904799700,10.1907998046875,-0.0005286079831421375,0.010966398753225803,-0.00011837389320135117
1761476329914833000,10.2008330078125,-0.0012836824171245098,0.013044440187513828,0.0029717525467276573
1761476329924865800,10.21086572265625,-0.003316739574074745,0.01152164489030838,-0.0022080959752202034
1761476329934899000,10.22089892578125,-0.001924016047269106,0.0037340044509619474,0.0016709854826331139
1761476329944932600,10.2309326171875,0.0013788361102342606,0.0033339974470436573,0.00007149111479520798
1761476329954965800,10.2409658203125,0.0012398585677146912,0.0002591707743704319,-0.003171127289533615
1761476329964998700,10.25099853515625,0.0028137871995568275,-0.0018194261938333511,0.00026514939963817596
1761476329975031800,10.26103173828125,0.0016244566068053246,-0.0057557858526706696,-0.0023668073117733
1761476329985065700,10.271065673828126,0.0005000699311494827,-0.005339800380170345,-0.0012336326763033867
1761476329995099000,10.281098876953125,0.002067592926323414,-0.007006120402365923,-0.0009092036634683609
1761476330005131800,10.2911318359375,0.0017818361520767212,-0.006079872604459524,-0.000885767862200737
1761476330015165000,10.3011650390625,0.0017639044672250748,-0.004614552948623896,0.0005720648914575577
1761476330025197800,10.31119775390625,-0.0005160276778042316,0.0009029838256537914,0.002932158298790455
1761476330035231700,10.321231689453125,-0.0012184176594018936,0.008952743373811245,0.0003074752166867256
1761476330045264600,10.3312646484375,-0.0001318482682108879,0.011440934613347054,0.0027128420770168304
1761476330055297800,10.3412978515625,-0.00025450531393289566,0.009114041924476624,0.001930277794599533
1761476330065330700,10.35133056640625,-0.003828733693808317,0.004143518395721912,0.0006876466795802116
1761476330075364900,10.36136474609375,-0.002306610345840454,-0.0012344582937657833,0.0007838141173124313
1761476330085397800,10.371397705078126,-0.0025468277744948864,-0.006572231650352478,-0.0014601647853851318
1761476330095431000,10.381430908203125,-0.00302357180044055,-0.0055174133740365505,0.00019813887774944305
1761476330105463800,10.3914638671875,-0.001606769859790802,-0.0028856773860752583,0.0038658445701003075
1761476330115496700,10.40149658203125,-0.0006228205747902393,0.0015003308653831482,0.0009859204292297363
1761476330125530600,10.411530517578125,0.0015215566381812096,0.002327775117009878,0.000027715228497982025
1761476330135563800,10.421563720703125,0.0017753560096025467,0.002877984195947647,0.0003483593463897705
1761476330145596700,10.4315966796875,0.00010661967098712921,0.00436828937381506,-0.0004684319719672203
1761476330155629600,10.441629638671875,0.00069394800812006,0.0030169328674674034,0.0014194082468748093
1761476330165663700,10.451663818359375,-0.0006488179787993431,0.0011649704538285732,-0.0011705150827765465
1761476330175697000,10.46169677734375,0.0009224023669958115,-0.0013351300731301308,-0.002118871547281742
1761476330185729800,10.471729736328125,-0.00022302288562059402,-0.005008960608392954,-0.0020909076556563377
1761476330195762700,10.4817626953125,-0.0017595840618014336,-0.017667781561613083,0.0013190517202019691
1761476330205795800,10.4917958984375,0.00017094146460294724,-0.018491230905056,0.0022426359355449677
1761476330215829800,10.501829833984376,0.00006243586540222168,-0.01833374612033367,0.0003282204270362854
1761476330225862700,10.511862548828125,0.0012041330337524414,-0.01465805247426033,-0.0014217430725693703
1761476330235895600,10.5218955078125,0.003289971500635147,-0.011419080197811127,-0.0020886100828647614
1761476330245928700,10.5319287109375,0.00021322164684534073,-0.011179927736520767,0.0016986709088087082
1761476330255963000,10.541962890625,0.0006245607510209084,-0.006701330654323101,0.0002511497586965561
1761476330265995800,10.551995849609375,-0.0004891729913651943,-0.004957492463290691,0.0029542576521635056
1761476330276028700,10.562028564453126,0.0011830814182758331,0.0038470847066491842,0.0010063666850328445
1761476330286061800,10.572061767578125,0.0005151601508259773,0.00727297505363822,0.001436999998986721
1761476330296094700,10.5820947265625,-0.0007401010952889919,0.010916273109614849,-0.0001343991607427597
1761476330306128600,10.592128662109374,-0.0005305102095007896,0.011198834516108036,0.0024677757173776627
1761476330316161500,10.60216162109375,0.000683206133544445,0.006574694067239761,0.0014204876497387886
1761476330326194700,10.612194580078125,0.0015244986861944199,0.000573793426156044,-0.0006336076185107231
1761476330336227600,10.6222275390625,0.0003046821802854538,-0.000952024944126606,0.0037408675998449326
1761476330346261800,10.63226171875,-0.0007073190063238144,0.0009729079902172089,-0.0003665247932076454
1761476330356294700,10.642294677734375,-0.00028751790523529053,-0.0019568875432014465,0.0015730345621705055
1761476330366327800,10.652327880859374,0.0005676234140992165,0.001145961694419384,0.001713383011519909
1761476330376360700,10.662360595703126,0.001939685083925724,0.003158657578751445,-0.0013457369059324265
1761476330386393900,10.672393798828125,0.0019751051440835,0.0022499870974570513,0.0015363357961177826
1761476330396427500,10.682427490234375,-0.0008527501486241817,0.005643854383379221,0.0017612176015973091
1761476330406460700,10.692460693359376,-0.0014130794443190098,0.007568254601210356,0.0025327354669570923
1761476330416493600,10.70249365234375,-0.002515174448490143,0.005897161550819874,0.0011219866573810577
1761476330426526700,10.712526611328125,-0.0030134515836834908,0.004922178573906422,-0.0008492851629853249
1761476330436560600,10.722560546875,-0.003389147110283375,0.003109749173745513,-0.0015395423397421837
1761476330446593800,10.73259375,-0.004661339335143566,0.0015664473176002502,0.001725492998957634
1761476330456626700,10.742626708984375,-0.0013384833000600338,0.0027030077762901783,0.0005954932421445847
1761476330466659800,10.752659912109374,-0.001561656128615141,0.002250004094094038,-0.0003283573314547539
1761476330476692700,10.762692626953125,-0.0002334006130695343,-0.0009836186654865742,0.0030087120831012726
1761476330486726700,10.7727265625,0.0004185410216450691,-0.0038060368970036507,-0.0016438299790024757
1761476330496759800,10.782759765625,-0.0011581871658563614,-0.0036014937795698643,-0.0006590308621525764
1761476330506793000,10.79279296875,0.0006522294133901596,-0.007948571816086769,-0.0015812832862138748
1761476330516825900,10.802825927734375,0.000025659799575805664,-0.0025100153870880604,-0.0032176291570067406
1761476330526859000,10.81285888671875,0.00010502245277166367,0.007561793550848961,0.002918027341365814
1761476330536893000,10.822892822265626,-0.0005317558534443378,0.01298270933330059,-0.0016420697793364525
1761476330546926000,10.832926025390625,-0.0025445730425417423,0.013577126897871494,-0.0021901484578847885
1761476330556959000,10.842958984375,-0.0013235872611403465,0.009770291857421398,0.0008963895961642265
1761476330566992100,10.8529921875,-0.001467664260417223,-0.0023265848867595196,-0.0013683624565601349
1761476330577025800,10.86302587890625,-0.0009712693281471729,-0.011213398538529873,-0.0023679714649915695
1761476330587059000,10.873058837890625,0.0025736643001437187,-0.0143223712220788,-0.005475614685565233
1761476330597091800,10.883091796875,0.0002664746716618538,-0.014805956743657589,-0.003725341521203518
1761476330607125000,10.893125,0.004194903187453747,-0.010013333521783352,0.0008273329585790634
1761476330617158000,10.903157958984375,0.0013584280386567116,-0.001009552739560604,0.00030769407749176025
1761476330627192000,10.913192138671874,-0.001903145108371973,0.006848636548966169,0.00041874777525663376
1761476330637225000,10.923224853515626,-0.000834569800645113,0.011490407399833202,0.0006293812766671181
1761476330647258000,10.933258056640625,-0.0012002219446003437,0.009228052571415901,-0.003317423164844513
1761476330657291000,10.943291015625,-0.00029019080102443695,-0.0002825474366545677,-0.002749125473201275
1761476330667324200,10.95332421875,-0.0007471893914043903,-0.004858124535530806,0.0009228410199284554
1761476330677357800,10.96335791015625,-0.004222263116389513,-0.010151974856853485,0.0026680007576942444
1761476330687391000,10.973390869140625,-0.0029348907992243767,-0.008173512294888496,-0.0013182181864976883
1761476330697424000,10.983423828125,-0.0015983795747160912,-0.0052235424518585205,-0.00031530391424894333
1761476330707457000,10.99345703125,-0.0014487099833786488,-0.0038333721458911896,0.0008245296776294708
1761476330717490000,11.003489990234375,-0.0004227804020047188,0.0020672171376645565,-0.0010692179203033447
1761476330727524000,11.013524169921874,0.00020599178969860077,0.006000173278152943,0.0016408152878284454
1761476330737557000,11.023556884765625,-0.0011746985837817192,0.009096991270780563,0.00020630564540624619
1761476330747590100,11.033590087890625,-0.002796563785523176,0.008494051173329353,0.001354394480586052
1761476330757623000,11.043623046875,-0.0015211636200547218,0.010562215000391006,0.0005603823810815811
1761476330767656200,11.05365625,-0.0011083735153079033,0.007489459589123726,-0.0007730619981884956
1761476330777689900,11.06368994140625,-0.002810714766383171,0.004221218638122082,0.0016206670552492142
1761476330787723000,11.073722900390624,-0.004375588148832321,0.005268639884889126,-0.0030981888994574547
1761476330797756000,11.083755859375,-0.0031722639687359333,0.0025073799770325422,-0.003673302009701729
1761476330807789000,11.0937890625,-0.004075874574482441,0.003048001555725932,-0.002794192172586918
1761476330817823000,11.103822998046875,-0.0018135788850486279,0.0005481964908540249,0.0018070079386234283
1761476330827856100,11.113856201171876,-0.007148156873881817,0.007870824076235294,0.008051589131355286
1761476330837889000,11.123888916015625,-0.007188008166849613,0.039146941155195236,0.023179665207862854
1761476330847922200,11.133922119140625,-0.005117134191095829,0.06787179410457611,0.018717803061008453
1761476330857955000,11.143955078125,0.0001975754275918007,0.051673293113708496,0.0037541640922427177
1761476330867989000,11.153989013671875,0.0028455564752221107,0.0013134502805769444,-0.010127829387784004
1761476330878022000,11.16402197265625,0.005445861257612705,-0.06016213819384575,-0.010238823480904102
1761476330888055000,11.174054931640624,0.0021600527688860893,-0.06947814673185349,-0.0011758198961615562
1761476330898088000,11.184087890625,0.0008951527997851372,-0.033047765493392944,0.00902481283992529
1761476330908121000,11.19412109375,0.0026674866676330566,0.027724238112568855,0.008030920289456844
1761476330918155000,11.204155029296874,0.0017231348901987076,0.062082454562187195,0.0006323317065834999
1761476330928188200,11.214188232421876,0.009133380837738514,0.02914714254438877,-0.016701649874448776
1761476330938221000,11.224220947265625,0.004060685634613037,-0.036956291645765305,-0.017895027995109558
1761476330948254200,11.234254150390624,0.001455049030482769,-0.07579449564218521,-0.009235226549208164
1761476330958287000,11.244287109375,-0.0038153380155563354,-0.06784313917160034,-0.0008778143674135208
