time,seconds_elapsed,z,y,x
1761475335182720500,0.072720458984375,0.0001767061767168343,-0.0006698503857478499,-0.001298323506489396
1761475335192697300,0.082697265625,0.0013263928703963757,0.0006050048395991325,0.001605320954695344
1761475335202674400,0.09267431640625,0.0005059792893007398,-0.0006463633617386222,0.0003608848783187568
1761475335212651300,0.1026513671875,0.00103008933365345,0.001376840053126216,0.00041601230623200536
1761475335222628400,0.11262841796875,-0.0027616871520876884,-0.0024191839620471,-0.001992505043745041
1761475335232604200,0.122604248046875,-0.001273246598429978,0.00021468219347298145,0.000020844716345891356
1761475335242581200,0.132581298828125,0.004086388275027275,0.0007354817353188992,-0.001183243584819138
1761475335252558300,0.142558349609375,-0.00019411061657592654,-0.00022245710715651512,0.0010045432718470693
1761475335262535400,0.152535400390625,0.00010619719978421926,0.0006369375623762608,-0.0022686582524329424
1761475335272512300,0.16251220703125,0.0005927567253820598,0.00008672848343849182,0.003467524191364646
1761475335282489300,0.1724892578125,-0.0019390564411878586,-0.0009271791204810143,0.002108556916937232
1761475335292466400,0.182466552734375,-0.0008948310860432684,0.002396712079644203,-0.0009404962183907628
1761475335302443300,0.192443359375,-0.0001646867603994906,0.0011521168053150177,-0.0017309834947809577
1761475335312420400,0.20242041015625,-0.0014656409621238708,-0.003170193638652563,-0.0003903481410816312
1761475335322397200,0.212397216796875,-0.000019931700080633163,-0.003266548737883568,-0.0009811946656554937
1761475335332374300,0.222374267578125,0.0019132569432258606,-0.0021413632202893496,0.00020071629842277616
1761475335342351000,0.23235107421875,-0.0004031671560369432,0.0007266325410455465,0.00016585708362981677
1761475335352328200,0.242328125,0.0012013873783871531,0.00045898486860096455,-0.00020405600662343204
1761475335362305300,0.25230517578125,0.0002709943801164627,0.002197487512603402,-0.003308828454464674
1761475335372282400,0.262282470703125,-0.0013183800037950277,-0.001635067630559206,-0.0004608438757713884
1761475335382259500,0.272259521484375,-0.00004895462188869715,0.0011059970129281282,-0.0022738499101251364
1761475335392236300,0.282236328125,0.0003020499716512859,-0.0015228092670440674,0.0007746706251055002
1761475335402213400,0.29221337890625,0.0021779623348265886,0.00029364554211497307,0.0034863546025007963
1761475335412190200,0.302190185546875,-0.0009693614556454122,-0.0012690973235294223,-0.002280454384163022
1761475335422167300,0.312167236328125,0.001474651973694563,-0.00021175527945160866,-0.002012841869145632
1761475335432144400,0.322144287109375,0.0010115283075720072,-0.002143878722563386,-0.002965454710647464
1761475335442121200,0.332121337890625,0.0014853330794721842,0.0021952888928353786,0.000024149776436388493
1761475335452098300,0.342098388671875,-0.0015101905446499586,0.0006109746173024178,-0.0010413810377940536
1761475335462075100,0.3520751953125,0.0009766316507011652,-0.0012197507312521338,-0.00007669921615161002
1761475335472052200,0.36205224609375,0.00038114888593554497,-0.0001662042923271656,-0.0010149308945983648
1761475335482029300,0.372029296875,0.0012776680523529649,0.00032252492383122444,-0.0009125781944021583
1761475335492006400,0.38200634765625,-0.0007010606350377202,-0.0005752267315983772,-0.0006955305580049753
1761475335501983500,0.3919833984375,0.0008459638920612633,-0.0009422627044841647,0.0017552973004058003
1761475335511960300,0.401960205078125,0.0023421277292072773,-0.0010442618513479829,-0.0007166488212533295
1761475335521937400,0.4119375,-0.00049080845201388,-0.0004129015142098069,-0.00012253844761289656
1761475335531914200,0.421914306640625,-0.00023248180514201522,-0.0014664479531347752,0.0033129393123090267
1761475335541891300,0.431891357421875,-0.000557918509002775,-0.0013081064680591226,0.000992781249806285
1761475335551868200,0.4418681640625,0.0003899005241692066,-0.0003789295442402363,0.0009304633131250739
1761475335561845200,0.45184521484375,0.0004812943225260824,-0.0005360981449484825,0.0010406444780528545
1761475335571822300,0.461822265625,-0.0007394987042061985,0.000904938206076622,-0.0015412900829687715
1761475335581799200,0.471799072265625,0.0017117866082116961,-0.0024775597266852856,-0.002937220735475421
1761475335591776300,0.4817763671875,0.0019440142204985023,-0.0025340188294649124,0.0003528484667185694
1761475335601753300,0.49175341796875,0.0033288178965449333,-0.0008600744185969234,-0.0007159491651691496
1761475335611730400,0.50173046875,-0.001478454447351396,0.0021000290289521217,0.001543742953799665
1761475335621707300,0.511707275390625,0.000654353410936892,0.0007355723064392805,0.0017709443345665932
1761475335631684400,0.521684326171875,-0.00006256945198401809,-0.00153956632129848,0.000036161200114293024
1761475335641661400,0.531661376953125,0.00021419406402856112,-0.0007121654925867915,0.0002579455904196948
1761475335651638300,0.54163818359375,-0.000044398882891982794,0.001202913699671626,-0.0014012038009241223
1761475335661615400,0.551615478515625,-0.002047652378678322,0.0008172476664185524,0.000355838390532881
1761475335671592200,0.56159228515625,-0.00030594499548897147,0.002349097980186343,-0.0009336641523987055
1761475335681569300,0.5715693359375,-0.0014164733001962304,0.001753377029672265,0.000022352141968440264
1761475335691546000,0.581546142578125,-0.0002571993973106146,0.0018601699266582727,-0.005577210336923599
1761475335701523200,0.591523193359375,0.0021897628903388977,-0.000778834568336606,0.0012334412895143032
1761475335711500300,0.601500244140625,-0.0013876613229513168,0.0010105434339493513,-0.002203368116170168
1761475335721477400,0.611477294921875,-0.0006761052645742893,-0.00012860354036092758,0.0026850528083741665
1761475335731454500,0.621454345703125,-0.0008220464223995805,0.0008525049779564142,-0.00067905243486166
1761475335741431300,0.631431396484375,-0.00006812234641984105,-0.0027195094153285027,-0.0013244020519778132
1761475335751408400,0.641408447265625,0.0002876759390346706,0.0014376852195709944,0.00046843805466778576
1761475335761385200,0.65138525390625,0.00042964910971932113,0.00008793245069682598,0.0015481164446100593
1761475335771362300,0.6613623046875,-0.002936586271971464,0.0006426689215004444,0.00031667077564634383
1761475335781340200,0.671340087890625,-0.0017316951416432858,-0.00046619796194136143,0.0013479380868375301
1761475335791317200,0.681317138671875,0.001174612669274211,0.0029338595923036337,0.0024238552432507277
1761475335801294000,0.691294189453125,0.00015460443682968616,0.00012224353849887848,-0.0015180479967966676
1761475335811271200,0.701271240234375,0.0007029492990113795,0.000543555710464716,0.001597850350663066
1761475335821248000,0.711248046875,0.0012214276939630508,0.0013785811606794596,0.0017923515988513827
1761475335831225000,0.72122509765625,-0.0010401287581771612,-0.0019146838458254933,0.0021060719154775143
1761475335841202200,0.7312021484375,-0.000313050695694983,0.0002263698261231184,0.000269635405857116
1761475335851179000,0.741178955078125,-0.002302698325365782,0.002192848129197955,0.0005127820186316967
1761475335861156400,0.75115625,-0.0020190468057990074,0.002052013296633959,-0.002110615372657776
1761475335871133200,0.76113330078125,0.000962361809797585,-0.0015118289738893509,-0.0008099273545667529
1761475335881110300,0.7711103515625,-0.0005823310348205268,0.0003827447071671486,0.00008544951560907066
1761475335891087000,0.781087158203125,-0.00037540349876508117,0.0006487944629043341,0.0012284782715141773
1761475335901064200,0.791064208984375,-0.0011769059346988797,-0.0007937477203086019,-0.0023586584720760584
1761475335911040000,0.8010400390625,-0.002522068563848734,0.003199928440153599,-0.001765306107699871
1761475335921017000,0.81101708984375,0.0018868106417357922,-0.0030156008433550596,0.00021803259733133018
1761475335930994000,0.820993896484375,-0.0018101895693689585,0.0006257393397390842,-0.0056896572932600975
1761475335940971300,0.83097119140625,-0.002599472412839532,-0.00022695749066770077,-0.002616165205836296
1761475335950948400,0.8409482421875,0.0009257539641112089,0.0019179524388164282,0.00225821859203279
1761475335960925200,0.85092529296875,0.0001446170499548316,-0.0024205639492720366,0.002175798173993826
1761475335970902300,0.86090234375,0.0014884481206536293,-0.0002298478502780199,-0.0017398475902155042
1761475335980879000,0.870879150390625,-0.000504199939314276,-0.0011174610117450356,0.0016138955252245069
1761475335990856200,0.880856201171875,0.0011701293988153338,0.0007544748950749636,0.0008402472012676299
1761475336000833000,0.8908330078125,0.001158687868155539,0.002103499136865139,0.00040686485590413213
1761475336010810000,0.90081005859375,0.001491849310696125,-0.00033702142536640167,0.0007381621398963034
1761475336020787200,0.910787109375,-0.0023533166386187077,0.0004096964839845896,0.0026823682710528374
1761475336030764000,0.920763916015625,-0.0017093642381951213,-0.0004142856923863292,0.0012194938026368618
1761475336040741000,0.9307412109375,-0.0004243528819642961,0.001163338078185916,-0.0021236592438071966
1761475336050718000,0.940718017578125,0.0002502258284948766,-0.000496610184200108,0.0006244565011002123
1761475336060695300,0.9506953125,-0.00025896268198266625,0.0012051411904394627,0.0010062953224405646
1761475336070672100,0.960672119140625,0.001027344143949449,0.002264812821522355,-0.002094422932714224
1761475336080649200,0.970649169921875,0.0002711165579967201,0.0016217618249356747,0.002657819539308548
1761475336090626300,0.980626220703125,-0.0013952234294265509,0.0005847269203513861,-0.003995289094746113
1761475336100603100,0.99060302734375,-0.0008029816672205925,-0.001212511328049004,-0.0012038518907502294
1761475336110580200,1.000580322265625,-0.0001238756231032312,0.0007867238018661737,-0.0015790913021191955
1761475336120557000,1.01055712890625,-0.0004767726641148329,-0.002031926065683365,0.0002503958239685744
1761475336130534100,1.0205341796875,0.00038449361454695463,0.0004567981231957674,0.0005225709173828363
1761475336140511000,1.030510986328125,-0.0006414002855308354,0.00006434740498661995,-0.0006587187526747584
1761475336150488000,1.040488037109375,-0.0004989212029613554,0.0006963154301047325,-0.001949020312167704
1761475336160465200,1.050465087890625,-0.0015700790099799633,0.0005061023402959108,0.0014335649320855737
1761475336170442000,1.06044189453125,-0.00001585809513926506,-0.0018571869004517794,-0.0016037703026086092
1761475336180419300,1.07041943359375,-0.0028307861648499966,0.0004799102898687124,0.0015530913369730115
1761475336190396200,1.080396240234375,-0.0008206322090700269,0.0009006897453218699,0.00012270754086785018
1761475336200373200,1.090373291015625,-0.0011092929635196924,0.00004250789061188698,0.0011948125902563334
1761475336210350000,1.10035009765625,-0.0004078164347447455,0.0012827420141547918,0.0029815274756401777
1761475336220327200,1.1103271484375,-0.0016611902974545956,-0.0003994947765022516,0.001325222896412015
1761475336230304300,1.12030419921875,-0.0007234913646243513,0.00023380480706691742,-0.0007363301701843739
1761475336240281000,1.130281005859375,-0.0025434361305087805,0.00005489611066877842,-0.0021480005234479904
1761475336250258200,1.140258056640625,-0.0009703068062663078,0.0003318649251013994,-0.00005662009061779827
1761475336260235000,1.150235107421875,0.0017876082565635443,-0.0010874620638787746,0.0030967893544584513
1761475336270212000,1.160212158203125,-0.0012254922185093164,-0.0007146195275709033,-0.0015147402882575989
1761475336280189000,1.17018896484375,-0.00009285175474360585,0.002845419105142355,0.001549015985801816
1761475336290166000,1.180166015625,0.001480543753132224,-0.0010084414388984442,-0.0018814017530530691
1761475336300143400,1.190143310546875,-0.000643817475065589,0.0019683726131916046,0.0004718919808510691
1761475336310120200,1.2001201171875,0.0005367618286982179,-0.002072707749903202,-0.00014942348934710026
1761475336320097300,1.21009716796875,0.00006613385630771518,0.00026449980214238167,-0.0014414871111512184
1761475336330074000,1.22007421875,-0.00013999477960169315,0.000017358455806970596,0.003217712976038456
1761475336340051200,1.23005126953125,-0.0006728396401740611,-0.0003897219430655241,0.0003154119476675987
1761475336350028000,1.240028076171875,-0.0018478264100849628,-0.00278763216920197,0.0004376510332804173
1761475336360005000,1.250005126953125,-0.00045841082464903593,0.0025047259405255318,-0.0009314066264778376
1761475336369982200,1.259982177734375,0.00198077829554677,-0.00020983396098017693,-0.00364623311907053
1761475336379959000,1.269958984375,0.0006682196981273592,0.0016943304799497128,0.000809968973044306
1761475336389936000,1.27993603515625,-0.00200985511764884,0.0012961882166564465,-0.0020417438354343176
1761475336399913000,1.289912841796875,0.0019447609083727002,-0.00016977963969111443,0.0012936944840475917
1761475336409890000,1.29989013671875,0.0018800460966303945,0.00022809673100709915,0.0010880985064432025
1761475336419867100,1.3098671875,0.001973748207092285,0.0015242367517203093,-0.0010857951128855348
1761475336429844200,1.31984423828125,-0.000248393218498677,0.00012075086124241352,0.003468210343271494
1761475336439821300,1.3298212890625,0.0006860517314635217,0.0016580780502408743,0.0014902233378961682
1761475336449798100,1.339798095703125,-0.0010276923421770334,-0.00006685149855911732,-0.0034478099551051855
1761475336459775200,1.349775146484375,-0.0016861229669302702,-0.00009304704144597054,-0.0013773459941148758
1761475336469752000,1.359751953125,-0.0007119387155398726,0.0011083048302680254,-0.0019475286826491356
1761475336479729200,1.369729248046875,0.0008776278700679541,0.0013821003958582878,-0.0016174598131328821
1761475336489706000,1.3797060546875,0.001404401147738099,0.0013882254716008902,0.0007002891506999731
1761475336499682300,1.389682373046875,0.0018438121769577265,-0.0011690064566209912,0.001530874753370881
1761475336509659100,1.3996591796875,-0.0001740649458952248,-0.0002685915678739548,-0.00278637558221817
1761475336519636200,1.40963623046875,-0.0007030529668554664,-0.00016937265172600746,-0.001919689355418086
1761475336529613300,1.41961328125,-0.0006758887320756912,0.0023571683559566736,0.00010804154590005055
1761475336539590100,1.429590087890625,-0.0005642880569212139,-0.0005419519729912281,-0.00001900094503071159
1761475336549567200,1.439567138671875,0.000038917933125048876,0.000990430824458599,-0.0010762759484350681
1761475336559544000,1.4495439453125,-0.0008339824271388352,0.0005203555338084698,0.000495667161885649
1761475336569521200,1.459521240234375,-0.0013048292603343725,0.0010551181621849537,-0.0015299331862479448
1761475336579498000,1.469498046875,0.00238220882602036,-0.00007323408499360085,0.0003277293290011585
1761475336589475000,1.47947509765625,-0.0006841548020020127,0.0003808347973972559,-0.004993532784283161
1761475336599452200,1.4894521484375,-0.000602106039877981,-0.00017349468544125557,0.002598934341222048
1761475336609429200,1.49942919921875,0.0007363987388089299,-0.0001351451501250267,0.000680126715451479
1761475336619406300,1.50940625,0.00019491268903948367,0.0020983878057450056,0.0023747440427541733
1761475336629383200,1.519383056640625,0.00033978864667005837,-0.0002728907857090235,-0.0011906959116458893
1761475336639360300,1.5293603515625,-0.001175925601273775,0.00044111208990216255,-0.00032938458025455475
1761475336649337000,1.539337158203125,0.001347153214737773,0.0012922585010528564,0.0008970010676421225
1761475336659314200,1.549314208984375,0.0017756863962858915,0.0001623532734811306,-0.00006123453204054385
1761475336669291300,1.559291259765625,0.003875056281685829,-0.0013585780980065465,-0.0010268967598676682
1761475336679268000,1.56926806640625,0.001293070032261312,-0.0006600525230169296,0.0018175243167206645
1761475336689245200,1.5792451171875,0.0020030688028782606,-0.0020132046192884445,0.00028540787752717733
1761475336699222000,1.589221923828125,0.0013308520428836346,-0.0024814321659505367,0.0010481079807505012
1761475336709199000,1.59919921875,0.0011018201475962996,0.0007593685295432806,-0.003634528024122119
1761475336719176000,1.609176025390625,-0.0029082810506224632,-0.002566598355770111,-0.0005539172561839223
1761475336729153300,1.6191533203125,-0.0012283590622246265,0.001994064776226878,-0.00048254456487484276
1761475336739130400,1.62913037109375,-0.002169272629544139,0.00039764796383678913,0.0003005503094755113
1761475336749107200,1.639107177734375,-0.0005697780870832503,-0.0001373810227960348,0.0021783451084047556
1761475336759084300,1.649084228515625,-0.0009110221872106194,0.00063496851362288,-0.0011720550246536732
1761475336769061000,1.65906103515625,0.0006810154882259667,0.0015668084379285574,-0.0002055938239209354
1761475336779038500,1.66903857421875,0.0020959810353815556,0.0004032626748085022,-0.0025749204214662313
1761475336789015300,1.679015380859375,0.0006818426190875471,-0.0004465520614758134,-0.00028966195532120764
1761475336798992400,1.688992431640625,0.0003578242613002658,-0.003617725567892194,0.000785771815571934
1761475336808969500,1.698969482421875,0.002670247107744217,-0.0021495248656719923,0.0009937647264450788
1761475336818946300,1.7089462890625,-0.0021001226268708706,-0.0004204375436529517,-0.0006831587525084615
1761475336828923400,1.71892333984375,-0.00013311166549101472,-0.0020790542475879192,0.002713703317567706
1761475336838900200,1.728900146484375,-0.0014657550491392612,-0.000984651385806501,-0.0002598753781057894
1761475336848877300,1.738877197265625,-0.0016143594402819872,-0.001380397123284638,-0.0008140791906043887
1761475336858854400,1.7488544921875,-0.0008688230882398784,0.00033220904879271984,0.0004329629591666162
1761475336868831500,1.75883154296875,-0.0012571120169013739,0.002274185884743929,-0.000347076915204525
1761475336878808600,1.76880859375,0.00047923822421580553,-0.0005015538772568107,-0.00019307591719552875
1761475336888785400,1.778785400390625,-0.0003420806024223566,-0.0002616031561046839,0.002170745749026537
1761475336898762500,1.788762451171875,-0.001884962897747755,0.003894640365615487,-0.000033901920687640086
1761475336908739300,1.7987392578125,-0.0017456796485930681,-0.0007472493452951312,0.000199657297343947
1761475336918716400,1.80871630859375,0.002212297637015581,0.000018293503671884537,-0.00021365660359151661
1761475336928693200,1.818693359375,0.0004993523471057415,0.00028540845960378647,-0.0007926278049126267
1761475336938670300,1.82867041015625,0.0010298650013282895,-0.001780033460818231,-0.0015573113923892379
1761475336948647400,1.8386474609375,0.0020940641406923532,0.00012758886441588402,-0.001197784673422575
1761475336958624300,1.848624267578125,-0.0011163316667079926,-0.0015103896148502827,-0.0009592160349711776
1761475336968601300,1.858601318359375,0.0016309854108840227,0.0004749968647956848,-0.0011461698450148106
1761475336978578400,1.868578369140625,-0.000007003196515142918,-0.00008873594924807549,0.001485265209339559
1761475336988555500,1.878555419921875,-0.0007564167026430368,-0.0010996719356626272,-0.0032056267373263836
1761475336998532400,1.888532470703125,0.0007894099690020084,0.001375230262055993,-0.00017162173753604293
1761475337008508400,1.89850830078125,0.0021300450898706913,0.0012607143726199865,0.0008630163501948118
1761475337018485200,1.9084853515625,-0.001992370467633009,0.0016390765085816383,-0.0009682065574452281
1761475337028462300,1.91846240234375,0.0015435083769261837,-0.0001034298911690712,-0.0005516881938092411
1761475337038439400,1.928439453125,0.0008121652062982321,0.0008511699270457029,-0.0007853375864215195
1761475337048416300,1.938416259765625,-0.0014443311374634504,-0.0005856053903698921,0.0009603644721210003
1761475337058393600,1.9483935546875,-0.0020334965083748102,-0.00028592045418918133,-0.0013949344865977764
1761475337068370400,1.958370361328125,0.00010795134585350752,0.000025669345632195473,-0.0017435422632843256
1761475337078347500,1.968347412109375,0.0022101434879004955,-0.0008485965663567185,0.00001376863474433776
1761475337088324400,1.978324462890625,-0.00008949619950726628,0.0006875146646052599,-0.0025804166216403246
1761475337098301400,1.988301513671875,-0.0009687686106190085,-0.0000070517417043447495,0.0001537751086289063
1761475337108278500,1.998278564453125,-0.000856915838085115,0.000468322541564703,-0.0021085802000015974
1761475337118255400,2.00825537109375,0.0011595766991376877,0.00025593326427042484,0.0006527258665300906
1761475337128232400,2.018232421875,0.0017819574568420649,0.00037417770363390446,-0.000018124424968846142
1761475337138209300,2.028209228515625,-0.0001764507032930851,-0.0007460238412022591,-0.001733869663439691
1761475337148186400,2.038186279296875,-0.0007431713747791946,0.0018649394623935223,-0.0003671353333629668
1761475337158163200,2.0481630859375,0.000836194260045886,0.0012913872487843037,0.0003268162254244089
1761475337168140300,2.058140380859375,-0.0007997856009751558,0.0001456954050809145,0.0004868722171522677
1761475337178117600,2.06811767578125,0.0018167955568060279,-0.00010320078581571579,0.001216498902067542
1761475337188094500,2.078094482421875,-0.0015489073703065515,0.0017160046845674515,-0.0007696865359321237
1761475337198071600,2.088071533203125,0.0005997018306516111,0.0006204391829669476,0.001506322412751615
1761475337208048400,2.09804833984375,0.0010764076141640544,-0.001517280237749219,0.0016589215956628323
1761475337218025500,2.108025390625,0.0004826075746677816,-0.0025160028599202633,-0.002308499300852418
1761475337228002300,2.118002197265625,-0.0027273003943264484,0.0007197379600256681,-0.0009263184620067477
1761475337237979400,2.1279794921875,0.00168130942620337,-0.0005653395783156157,0.0031139878556132317
1761475337247956500,2.13795654296875,-0.0006076775025576353,-0.0033906870521605015,-0.004352184012532234
1761475337257933300,2.147933349609375,-0.0002827689750120044,0.0012106806971132755,0.001993840094655752
1761475337267910400,2.157910400390625,0.00015345681458711624,0.0012956354767084122,-0.0010972911259159446
1761475337277887200,2.16788720703125,-0.0013851769035682082,-0.0005183509783819318,-0.0012357336236163974
1761475337287864300,2.1778642578125,0.0012449610512703657,-0.000468549900688231,0.000264691305346787
1761475337297841400,2.18784130859375,0.001697663450613618,-0.0020788887050002813,0.0011081586126238108
1761475337307818500,2.197818603515625,0.0003572944551706314,-0.0025284304283559322,-0.00019599130610004067
1761475337317795600,2.207795654296875,0.000032432377338409424,-0.0016925027593970299,0.0012161582708358765
1761475337327772400,2.2177724609375,0.0014753330033272505,-0.0005563982995226979,0.0015530481468886137
1761475337337749500,2.22774951171875,-0.000010173534974455833,-0.0005498650716617703,0.00004298140629543923
1761475337347726300,2.237726318359375,-0.001555073307827115,0.0008118092082440853,0.0013956009643152356
1761475337357703400,2.247703369140625,0.0006453975802287459,0.0007789363153278828,0.0007546601118519902
1761475337367680300,2.25768017578125,0.0014949459582567215,0.00009929761290550232,-0.0014781340723857284
1761475337377657300,2.2676572265625,0.0001194677606690675,-0.0006637796759605408,-0.002289247466251254
1761475337387634400,2.277634521484375,0.0019405372440814972,-0.000030480092391371727,0.0004090673173777759
1761475337397611300,2.287611328125,-0.0001489827991463244,0.0012786174193024635,0.0010247256141155958
1761475337407588600,2.297588623046875,0.002660385798662901,-0.001890810439363122,0.00026519212406128645
1761475337417565400,2.3075654296875,-0.0005725549999624491,-0.0005911133484914899,-0.00014286125951912254
1761475337427542500,2.31754248046875,0.001944398507475853,-0.0004481016658246517,-0.00007974434993229806
1761475337437519400,2.327519287109375,0.0007023612852208316,0.0007008083630353212,-0.0019109653076156974
1761475337447496400,2.337496337890625,0.0009598889155313373,-0.003130947705358267,0.00020997626415919513
1761475337457473500,2.3474736328125,-0.0006789931212551892,-0.0009354321518912911,0.0029070251621305943
1761475337467449300,2.357449462890625,0.0013343566097319126,0.0012353104539215565,0.003988801501691341
1761475337477426200,2.36742626953125,-0.00008429947774857283,0.00003634602762758732,0.0005604269681498408
1761475337487403500,2.377403564453125,-0.0008121414575725794,0.0009535388089716434,-0.0007756809354759753
1761475337497380600,2.387380615234375,0.0004467669641599059,-0.0016321197617799044,0.0022686743177473545
1761475337507357400,2.397357421875,0.002006047870963812,0.001052612904459238,-0.00003709056181833148
1761475337517334500,2.40733447265625,0.001065555727109313,-0.0011486037401482463,0.0005280923214741051
1761475337527311400,2.417311279296875,0.000033847056329250336,-0.002691639121621847,0.0018642002250999212
1761475337537288400,2.427288330078125,0.0011209931690245867,0.000312089454382658,-0.0009923006873577833
1761475337547265300,2.437265380859375,-0.0026681525632739067,0.0010300776921212673,0.000008248898666352034
1761475337557242400,2.447242431640625,0.0011230577947571874,0.0031774144154042006,0.0015984666533768177
1761475337567219500,2.457219482421875,-0.000895085686352104,0.000250866636633873,0.00008579109271522611
1761475337577196300,2.4671962890625,0.00034222195972688496,-0.0003110684920102358,-0.0011820856016129255
1761475337587173400,2.47717333984375,0.00034435250563547015,-0.0006484910845756531,0.0005423111142590642
1761475337597150200,2.487150146484375,-0.0010715320240706205,0.0008959174156188965,0.002028542570769787
1761475337607127600,2.49712744140625,-0.0003282437101006508,0.003622195217758417,-0.0029289317317306995
1761475337617104400,2.5071044921875,0.0014439262449741364,-0.00006931484676897526,0.0005870549357496202
1761475337627081500,2.51708154296875,-0.001142802182585001,-0.002666163258254528,0.0010081006912514567
1761475337637058600,2.52705859375,-0.0004380090394988656,0.00028087920509278774,0.002765027107670903
1761475337647035400,2.537035400390625,0.00160783133469522,0.00011975807137787342,0.004774115514010191
1761475337657012500,2.547012451171875,0.0007460350170731544,-0.0011403220705688,0.0014197251293808222
1761475337666989300,2.5569892578125,-0.0003248220309615135,0.0013683757279068232,0.00024660275084897876
1761475337676966400,2.56696630859375,-0.001441298983991146,0.0008540456183254719,0.0027295646723359823
1761475337686943200,2.576943115234375,-0.0012761830585077405,0.0004681535065174103,0.001613167580217123
1761475337696920300,2.58692041015625,0.00063423189567402,-0.000332921976223588,0.002248312346637249
1761475337706897400,2.5968974609375,0.001023852382786572,0.0004311390221118927,0.0005942229763604701
1761475337716874200,2.606874267578125,0.0010486774845048785,-0.002106347819790244,0.0000712370965629816
1761475337726851600,2.6168515625,0.00011843533138744533,-0.00011030863970518112,-0.0006273100152611732
1761475337736828400,2.626828369140625,-0.0020607630722224712,0.0004039532504975796,0.002252286998555064
1761475337746805500,2.636805419921875,0.0017701940378174186,0.0014159544371068478,-0.0017144912853837013
1761475337756782300,2.6467822265625,-0.0007235390949063003,0.0017662718892097473,0.0027838069945573807
1761475337766759400,2.656759521484375,0.0019377577118575573,0.0015188641846179962,-0.0035830121487379074
1761475337776736300,2.666736328125,0.00012430167407728732,-0.0012441726867109537,0.0013362400932237506
1761475337786713000,2.676713134765625,0.00025772606022655964,0.0029644204769283533,-0.001313871587626636
1761475337796690200,2.686690185546875,0.0005120924906805158,0.0006970209069550037,0.00040972299757413566
1761475337806667000,2.6966669921875,-0.003089832840487361,0.0020160845015197992,-0.0025999152567237616
1761475337816644000,2.70664404296875,-0.00019832374528050423,0.000496146734803915,0.0001378234737785533
1761475337826621200,2.71662109375,-0.0006278916262090206,-0.0009017464471980929,-0.00022543170780409127
1761475337836598300,2.726598388671875,-0.0003304308047518134,0.004234902560710907,-0.004347092006355524
1761475337846575400,2.736575439453125,0.0005809029098600149,0.0006114058196544647,0.001732905046083033
1761475337856552200,2.74655224609375,0.0010425897780805826,-0.0021274674218147993,-0.0007620132528245449
1761475337866529300,2.756529296875,-0.0007196238148026168,0.00022996263578534126,0.0008425412815995514
1761475337876506000,2.766506103515625,-0.0003590021515265107,-0.0025702291168272495,0.0007386063225567341
1761475337886483200,2.776483154296875,0.00008547946345061064,0.0014564702287316322,0.00019558781059458852
1761475337896459000,2.786458984375,-0.00040334364166483283,0.0004646929446607828,0.001047417288646102
1761475337906436000,2.79643603515625,-0.0004728521453216672,0.0013035887386649847,-0.0009709924925118685
1761475337916413200,2.8064130859375,-0.0010209823958575726,0.0014120843261480331,-0.0023341116029769182
1761475337926390300,2.816390380859375,0.002301311120390892,-0.0020513564813882113,0.00048351282021030784
1761475337936367400,2.826367431640625,-0.0005143418675288558,0.0004568647127598524,0.002414999296888709
1761475337946344200,2.83634423828125,-0.001527142128907144,-0.001297359587624669,-0.0011456467909738421
1761475337956321300,2.8463212890625,0.00040175989852286875,-0.001626030309125781,0.0021950402297079563
1761475337966298000,2.856298095703125,0.000752231921069324,0.0021181078627705574,0.0008842322858981788
1761475337976275200,2.866275146484375,0.0012495769187808037,0.001084294868633151,-0.00190418038982898
1761475337986252300,2.876252197265625,-0.0014290305553004146,-0.00041213526856154203,0.00015257892664521933
1761475337996229000,2.88622900390625,-0.0026522993575781584,-0.0002149702049791813,0.001655659987591207
1761475338006206200,2.896206298828125,-0.0027654836885631084,0.0031195736955851316,0.00013659293472301215
1761475338016183000,2.90618310546875,-0.00030796031933277845,-0.00017851591110229492,-0.0009761980036273599
1761475338026160000,2.91616015625,-0.0010256821988150477,0.0010787623468786478,-0.0021706256084144115
1761475338036137200,2.92613720703125,-0.00023534003412351012,0.0022854877170175314,-0.0005833328468725085
1761475338046114300,2.9361142578125,-0.0016116616316139698,0.0022822918836027384,0.0010164279956370592
1761475338056091400,2.94609130859375,0.0020740877371281385,-0.0014857780188322067,-0.00018024335440713912
1761475338066068200,2.956068115234375,-0.0004774868139065802,0.0012231895234435797,0.00010844331700354815
1761475338076045300,2.96604541015625,-0.0002117446274496615,-0.00018392805941402912,-0.00008124077430693433
1761475338086022100,2.976022216796875,0.0004436593153513968,-0.0023570675402879715,0.00188204157166183
1761475338095999200,2.985999267578125,0.0010612953919917345,-0.0020465680863708258,-0.0007095001055859029
1761475338105976000,2.99597607421875,0.0002660754253156483,0.0006639973726123571,-0.0025556033942848444
1761475338115953200,3.005953125,-0.0001394188147969544,-0.00023261457681655884,-0.0012893560342490673
1761475338125930200,3.01593017578125,0.00043662291136570275,-0.00018121534958481789,-0.00016150734154507518
1761475338135907000,3.025906982421875,0.0010957466438412666,-0.000766986864618957,-0.0010301042348146439
1761475338145884200,3.03588427734375,0.000042732717702165246,0.00016352161765098572,-0.0017811156576499343
1761475338155861200,3.045861328125,0.0016077198088169098,-0.0018629849655553699,0.0002815855841618031
1761475338165838300,3.05583837890625,-0.0007342640892602503,0.0022856874857097864,-0.004185068421065807
1761475338175815200,3.065815185546875,-0.0007886754465289414,0.0025448938831686974,-0.0024260343052446842
1761475338185792300,3.075792236328125,-0.0004432635032571852,0.00029638689011335373,-0.0036076789256185293
1761475338195769000,3.08576904296875,-0.0009657976916059852,-0.0004358392907306552,0.0005897238152101636
1761475338205746200,3.09574609375,-0.0018337219953536987,0.00007468857802450657,-0.002500608330592513
1761475338215723300,3.10572314453125,-0.0009320548269897699,0.0018365425057709217,0.002603284316137433
1761475338225700000,3.1157001953125,-0.00108705076854676,0.00021068286150693893,0.0029135425575077534
1761475338235677200,3.12567724609375,-0.0010452370624989271,0.002428997540846467,-0.002021110849454999
1761475338245654000,3.135654052734375,-0.00030620984034612775,-0.0013020914047956467,0.0005658838781528175
1761475338255631000,3.145631103515625,-0.001254543662071228,0.0022318712435662746,-0.0029480329249054193
1761475338265608200,3.155608154296875,-0.0004105878761038184,0.0009623423684388399,0.00008743812941247597
1761475338275585300,3.165585205078125,0.0016000461764633656,0.001519190613180399,0.0037057281006127596
1761475338285562400,3.175562255859375,-0.004600591957569122,-0.001691516488790512,-0.00233272323384881
1761475338295538200,3.1855380859375,0.0008635109406895936,0.00014601950533688068,-0.00009281728125642985
1761475338305515300,3.195515380859375,0.000021952029783278704,0.0001151268370449543,-0.0003309038875158876
1761475338315492000,3.2054921875,0.00018130367971025407,0.0024899300187826157,-0.0008103809668682516
1761475338325469200,3.21546923828125,0.0009064824553206563,-0.00026590912602841854,0.002237340435385704
1761475338335446000,3.225446044921875,-0.0001921265502460301,0.0009019924327731133,-0.0018001165008172393
1761475338345423000,3.235423095703125,-0.0007713640807196498,-0.0008586234180256724,0.0007810192182660103
1761475338355400200,3.245400146484375,0.0014871564926579595,-0.0005290375556796789,-0.0008835398475639522
1761475338365377300,3.255377197265625,0.0020192558877170086,-0.0013974944595247507,-0.0003301349643152207
1761475338375354400,3.265354248046875,-0.0011386492988094687,-0.00048470194451510906,0.0009600031189620495
1761475338385331200,3.275331298828125,-0.0010004312498494983,-0.00011052773334085941,-0.002545515540987253
1761475338395308300,3.285308349609375,-0.0011007522698491812,-0.0026728264056146145,-0.0003956742293667048
1761475338405285000,3.29528515625,-0.0006192527944222093,-0.0013734700623899698,-0.002074797172099352
1761475338415262200,3.30526220703125,0.0014176141703501344,-0.0007029903354123235,0.0010262568248435855
1761475338425239000,3.315239013671875,0.000725991209037602,-0.0011405476834625006,0.0014451721217483282
1761475338435216100,3.325216064453125,0.0008448162698186934,0.000993779394775629,0.0019933481235057116
1761475338445193200,3.335193115234375,-0.0028441944159567356,0.0006715368945151567,0.0004234146326780319
1761475338455170000,3.345170166015625,-0.0008817505440674722,-0.0020894454792141914,-0.000003673441824503243
1761475338465147100,3.355147216796875,0.00030255719320848584,-0.0006121901096776128,-0.0033464732114225626
1761475338475124200,3.365124267578125,0.000036856625229120255,-0.001101696747355163,-0.0024882450234144926
1761475338485101300,3.375101318359375,-0.0002299921470694244,0.0027755992487072945,-0.002031779382377863
1761475338495078100,3.385078125,-0.0018624678486958146,-0.0015113006811589003,0.0012513648252934217
1761475338505055200,3.39505517578125,0.0007498268969357014,-0.000977869494818151,0.001311552245169878
1761475338515032300,3.4050322265625,-0.0006616045138798654,-0.002326994203031063,-0.00004515805630944669
1761475338525009200,3.415009033203125,-0.0009686669218353927,-0.0008686472428962588,0.0008177061099559069
1761475338534986200,3.424986328125,-0.000057563476730138063,-0.0008555807871744037,-0.002752202097326517
1761475338544963000,3.434963134765625,-0.0005577051197178662,-0.0015432089567184448,0.001677699969150126
1761475338554940200,3.444940185546875,0.0009149539400823414,-0.00009753135964274406,-0.0013836795696988702
1761475338564917000,3.4549169921875,-0.0009252903982996941,0.0010167353320866823,0.0014951975317671895
1761475338574894000,3.46489404296875,-0.0007226042216643691,0.0019888177048414946,-0.00013781856978312135
1761475338584871200,3.47487109375,-0.00008344551315531135,0.0022490082774311304,0.002103231381624937
1761475338594848300,3.48484814453125,0.0020604305900633335,0.0020519322715699673,-0.00041552179027348757
1761475338604825300,3.494825439453125,0.00013017153833061457,-0.00023705465719103813,0.000734431145247072
1761475338614802200,3.50480224609375,-0.0004205278819426894,0.00043206848204135895,0.0001316364505328238
1761475338624779300,3.514779296875,-0.0000186568358913064,0.0009061109740287066,-0.0013365641934797168
1761475338634756000,3.524756103515625,-0.0014689151430502534,0.001253973226994276,-0.0015298844082280993
1761475338644733200,3.534733154296875,0.0006477652350440621,-0.0008035849314182997,-0.00002599730942165479
1761475338654710300,3.544710205078125,0.0009579345351085067,-0.0007474697194993496,-0.0012441088911145926
1761475338664687000,3.55468701171875,-0.001998706953600049,0.001342845382168889,-0.0045666685327887535
1761475338674663400,3.564663330078125,0.0008105200831778347,0.00036205328069627285,-0.0005206827190704644
1761475338684640300,3.57464013671875,-0.0009341166587546468,-0.001559417461976409,0.0003581604396458715
1761475338694617300,3.584617431640625,-0.001932309241965413,-0.0016562326345592737,0.00012837738904636353
1761475338704594200,3.59459423828125,0.0003060776216443628,0.0007462049834430218,-0.0034133605659008026
1761475338714571300,3.6045712890625,-0.0008515991503372788,0.0008280633483082056,-0.0006877201376482844
1761475338724548000,3.614548095703125,-0.0009115203283727169,0.0003377753309905529,0.0002651589456945658
1761475338734525200,3.624525146484375,0.000718300580047071,0.0007871959824115038,0.0002340259961783886
1761475338744502300,3.634502197265625,0.0007135069463402033,-0.002104198094457388,-0.0020752009004354477
1761475338754479000,3.64447900390625,-0.0020709726959466934,0.0024980392772704363,0.002165117533877492
1761475338764456200,3.654456298828125,-0.0008294068975374103,-0.0024748812429606915,0.00014990355703048408
1761475338774433000,3.66443310546875,0.0011602889280766249,-0.00036067282781004906,-0.0009606456151232123
1761475338784409300,3.674409423828125,-0.00015105149941518903,-0.0005297835450619459,0.0002803875249810517
1761475338794386400,3.684386474609375,-0.000219743640627712,0.0018858741968870163,0.00007581056706840172
1761475338804363500,3.694363525390625,-0.0005670198588632047,0.0005124821327626705,-0.0030270384158939123
1761475338814340400,3.70434033203125,-0.0005035307840444148,-0.0013206037692725658,-0.0003504779888316989
1761475338824317400,3.7143173828125,0.000195016385987401,0.0004935415927320719,0.002344907261431217
1761475338834294300,3.724294189453125,0.0010721470462158322,0.0025047562085092068,-0.0013434956781566143
1761475338844271400,3.734271240234375,-0.0002895272336900234,0.004168166313320398,-0.0011890323366969824
1761475338854248200,3.744248291015625,-0.000597110134549439,0.0009101508185267448,-0.0022009527310729027
1761475338864225300,3.754225341796875,0.0008050441392697394,0.0034950149711221457,0.003745619673281908
1761475338874202400,3.764202392578125,0.000046300701797008514,-0.0003487742505967617,-0.00017648472567088902
1761475338884179500,3.774179443359375,0.0011318051256239414,-0.0008310728007927537,-0.0005629094084724784
1761475338894156500,3.784156494140625,-0.0010755887487903237,0.0007255121599882841,0.0028152617160230875
1761475338904133400,3.79413330078125,-0.00022390985395759344,0.0004517391789704561,0.0011643681209534407
1761475338914110500,3.8041103515625,0.0013100765645503998,0.0004618766251951456,0.0006093052215874195
1761475338924087300,3.81408740234375,0.0011079425457865,0.0007963695097714663,0.001408253563567996
1761475338934064400,3.824064453125,-0.0014940851833671331,0.000735878711566329,0.001619252492673695
1761475338944041500,3.83404150390625,-0.00011163839371874928,0.0006376081146299839,0.001455201767385006
1761475338954018300,3.844018310546875,0.002100537298247218,-0.00030022813007235527,0.0026749332901090384
1761475338963995400,3.853995361328125,0.0006089007947593927,-0.0005505653098225594,0.0018187272362411022
1761475338973972200,3.86397216796875,0.000682324287481606,0.00021146307699382305,-0.0025462289340794086
1761475338983949300,3.87394921875,0.00011347309919074178,-0.0006431452929973602,0.00236384104937315
1761475338993926400,3.883926513671875,0.0017699259333312511,0.00044716778211295605,-0.0009617885225452483
1761475339003903500,3.893903564453125,0.0012418210972100496,0.0012663560919463634,-0.0014619301073253155
1761475339013880600,3.903880615234375,0.0003936186258215457,-0.00021977699361741543,-0.00007158811786212027
1761475339023857400,3.913857421875,-0.0005062635173089802,0.0014122079592198133,0.00036543660098686814
1761475339033833500,3.92383349609375,0.002173059619963169,-0.0006489604711532593,-0.000782163580879569
1761475339043810300,3.933810302734375,-0.00013243878493085504,0.0003952649421989918,-0.0018580807372927666
1761475339053787400,3.943787353515625,-0.0014971541240811348,0.001396822975948453,0.0018521087476983666
1761475339063764200,3.95376416015625,0.00016226147999987006,0.0010519437491893768,-0.00047336352872662246
1761475339073741300,3.9637412109375,0.0018106502247974277,-0.00016492977738380432,0.00029550769249908626
1761475339083718400,3.973718505859375,0.0009887986816465855,0.002947772853076458,0.0006606270908378065
1761475339093695500,3.983695556640625,-0.0019606021232903004,-0.00010246713645756245,-0.0007157504442147911
1761475339103672600,3.993672607421875,0.0011576930992305279,0.0010477523319423199,0.0023186553735285997
1761475339113649400,4.0036494140625,-0.0017006172565743327,-0.0002755201421678066,-0.00197112699970603
1761475339123626500,4.01362646484375,-0.0018249867716804147,0.0008762970101088285,-0.00015591646661050618
1761475339133603300,4.023603271484375,-0.0008239800808951259,-0.002690448658540845,-0.0006967694498598576
1761475339143580400,4.033580322265625,0.00030839594546705484,-0.0014331704005599022,-0.00006346976442728192
1761475339153557200,4.04355712890625,-0.00244539650157094,-0.0006441617151722312,0.0011506909504532814
1761475339163534300,4.053534423828125,-0.0005055498913861811,-0.00015334109775722027,0.0016894483705982566
1761475339173511400,4.063511474609375,-0.0013899789191782475,-0.0005941408453509212,-0.0012990923132747412
1761475339183488300,4.07348828125,-0.0011092815548181534,-0.001105201430618763,0.0010801758617162704
1761475339193465300,4.08346533203125,-0.0018744241679087281,0.0002624935004860163,0.0019474606961011887
1761475339203442400,4.0934423828125,-0.0007604238344356418,-0.001291194697842002,0.00048618423170410097
1761475339213419500,4.10341943359375,-0.0021353692281991243,-0.0003007007762789726,-0.0024982946924865246
1761475339223396400,4.113396240234375,-0.00002827617572620511,0.0013800200540572405,0.0029076559003442526
1761475339233373400,4.12337353515625,0.0007948984857648611,0.0005782733205705881,-0.001315134228207171
1761475339243350500,4.1333505859375,-0.0008392171002924442,-0.0016590483719483018,-0.0011137991677969694
1761475339253327400,4.143327392578125,-0.0028937216848134995,0.00009507685899734497,0.00033557176357135177
1761475339263304400,4.153304443359375,-0.000862794928252697,0.0005331668071448803,-0.0008186422055587173
1761475339273281300,4.16328125,-0.00124582857824862,0.00029907654970884323,-0.0009136950829997659
1761475339283258400,4.17325830078125,-0.0018671441357582808,0.0023401230573654175,0.001712980680167675
1761475339293235200,4.183235107421875,0.00043033447582274675,-0.00021632248535752296,0.002337619662284851
1761475339303212300,4.19321240234375,-0.000634397380053997,-0.0010618760716170073,0.001959184417501092
1761475339313189600,4.203189697265625,0.000558753905352205,-0.0005611415253952146,0.0006441264413297176
1761475339323166500,4.21316650390625,-0.0009600468911230564,-0.001401102519594133,-0.0000791881320765242
1761475339333143600,4.2231435546875,-0.0009084844496101141,0.00015910062938928604,0.0017008614959195256
1761475339343120400,4.233120361328125,0.00004599243402481079,0.001396937994286418,0.0017088510794565082
1761475339353097500,4.243097412109375,-0.0009699530783109367,0.00003294600173830986,-0.000311554002109915
1761475339363074300,4.25307421875,-0.0013886021915823221,0.0014007457066327333,0.0003156204184051603
1761475339373050400,4.26305029296875,0.0008729012915864587,-0.00207018805667758,-0.0018353709019720554
1761475339383027200,4.273027099609375,0.00033707328839227557,0.0021485253237187862,-0.0015144599601626396
1761475339393004500,4.283004638671875,-0.0010267003672197461,0.0006654562894254923,-0.00009807028982322663
1761475339402981400,4.2929814453125,-0.0009649150306358933,-0.0011071437038481236,-0.00020299882453400642
1761475339412958500,4.30295849609375,-0.0021190536208450794,-0.0005615743575617671,-0.0038468653801828623
1761475339422935600,4.312935546875,-0.00103275035507977,0.0005372460000216961,-0.001650556456297636
1761475339432912400,4.322912353515625,0.0004777179565280676,0.0002151487860828638,0.00006180338095873594
1761475339442889500,4.332889404296875,-0.00013427645899355412,0.0009389959741383791,-0.000539005734026432
1761475339452867600,4.34286767578125,-0.0023879604414105415,0.000008811010047793388,0.0007475194870494306
1761475339462843400,4.352843505859375,-0.0015618479810655117,0.002237344393506646,-0.001997933257371187
1761475339472820200,4.3628203125,-0.0028583905659615993,-0.0007698880508542061,0.0002941784914582968
1761475339482797300,4.37279736328125,0.0009720340603962541,0.0016157717909663916,-0.0008232839172706008
1761475339492774400,4.3827744140625,-0.0010655643418431282,0.0007445539813488722,0.0005545472959056497
1761475339502751200,4.392751220703125,-0.0011206917697563767,0.0001389512326568365,-0.001321649644523859
1761475339512728600,4.402728515625,0.00144606560934335,0.0013626550789922476,-0.0006111940601840615
1761475339522705400,4.412705322265625,-0.0003856566036120057,0.0013858247548341751,-0.0012948274379596114
1761475339532682500,4.4226826171875,0.00300882151350379,0.0009238345082849264,-0.0005201965104788542
1761475339542659300,4.432659423828125,-0.0012586277443915606,-0.001493250485509634,0.0011144517920911312
1761475339552636400,4.442636474609375,0.0007104161195456982,0.0012824228033423424,-0.0008049937314353883
1761475339562613500,4.452613525390625,0.0007072203443385661,0.0007388717494904995,0.0015058311400935054
1761475339572590300,4.46259033203125,0.0007741611334495246,0.00021510431542992592,-0.00023811898427084088
1761475339582567400,4.4725673828125,-0.0009387840982526541,0.0012494761031121016,0.002671384485438466
1761475339592544300,4.482544189453125,-0.00032970181200653315,0.00013580964878201485,0.0000648021450615488
1761475339602521300,4.492521240234375,-0.0005784410750493407,0.0029315962456166744,-0.0018537391442805529
1761475339612498200,4.502498291015625,-0.0006222343072295189,0.0006217234767973423,-0.00045841190149076283
1761475339622475300,4.512475341796875,0.0011399793438613415,0.0004408948589116335,0.0025901086628437042
1761475339632452600,4.52245263671875,-0.001766149653121829,-0.000012061093002557755,-0.0013759526191279292
1761475339642429400,4.532429443359375,0.00034174235770478845,0.00057649752125144,0.0014704340137541294
1761475339652406500,4.542406494140625,0.001833977410569787,-0.0005843396065756679,0.0013760420260950923
1761475339662383400,4.55238330078125,0.0008283678907901049,-0.0014693080447614193,-0.0007142731919884682
1761475339672360400,4.5623603515625,-0.001476884470321238,-0.002010304480791092,0.0003556197043508291
1761475339682337300,4.572337158203125,0.0006909285439178348,-0.0003106752410531044,-0.0017224447801709175
1761475339692314400,4.582314453125,0.00032576118246652186,-0.0011115593370050192,0.0005295349983498454
1761475339702291500,4.59229150390625,0.00006983143975958228,-0.0021445995662361383,-0.0011384027311578393
1761475339712268300,4.602268310546875,-0.0014754626899957657,0.00011913361959159374,0.0004887041286565363
1761475339722245400,4.612245361328125,-0.0018666810356080532,-0.001207653316669166,0.00039709138218313456
1761475339732222200,4.62222216796875,0.000609993701800704,0.002473242813721299,0.00022180608357302845
1761475339742199300,4.63219921875,0.0004952114541083574,-0.001082343515008688,0.0008369962451979518
1761475339752176400,4.64217626953125,-0.0009907479397952557,0.0005897206719964743,0.0017669462831690907
1761475339762153500,4.652153564453125,0.00053417804883793,0.0003380519337952137,-0.0022890481632202864
1761475339772130600,4.662130615234375,0.000013204349670559168,0.0012218786869198084,0.00011350215936545283
1761475339782107600,4.672107666015625,0.00019829405937343836,0.00039310287684202194,-0.000012465359759517014
1761475339792084700,4.682084716796875,-0.0009696603519842029,-0.0008642921457067132,-0.0005504409200511873
1761475339802061600,4.6920615234375,-0.002660235157236457,-0.004850777797400951,0.0002250716061098501
1761475339812037600,4.70203759765625,-0.00007861340418457985,0.0009695873595774174,-0.0003000039141625166
1761475339822014500,4.712014404296875,-0.0016458837781101465,-0.0005833018803969026,-0.0011772491270676255
1761475339831991600,4.721991455078125,-0.000643471023067832,0.0011420261580497026,0.0007121697999536991
1761475339841968600,4.73196875,-0.0016520100180059671,0.0006927510257810354,-0.0019720301497727633
1761475339851945700,4.74194580078125,-0.003174995072185993,-0.0003032942768186331,-0.0032156910747289658
1761475339861922800,4.7519228515625,-0.00027161696925759315,-0.00008571404032409191,0.0019042360363528132
1761475339871899600,4.761899658203125,0.0004784034099429846,-0.0007451848359778523,0.0011135516688227654
1761475339881876700,4.771876708984375,0.000896519748494029,0.0006324683781713247,0.0011103558354079723
1761475339891853600,4.781853515625,-0.0024523416068404913,-0.002000798936933279,0.0001976247294805944
1761475339901830700,4.79183056640625,-0.0017071892507374287,-0.00026468420401215553,0.0013774051330983639
1761475339911807500,4.801807373046875,0.0004989595618098974,0.0007151302415877581,0.0005776240141130984
1761475339921784600,4.81178466796875,-0.0004174341447651386,0.002023807493969798,0.0019283792935311794
1761475339931761700,4.82176171875,-0.0016533071175217628,0.0008617681451141834,-0.0030066457111388445
1761475339941738500,4.831738525390625,-0.000972336798440665,0.0004473801236599684,0.001258140429854393
1761475339951715600,4.841715576171875,0.00016469223191961646,-0.00029370374977588654,0.0000770219266996719
1761475339961692700,4.851692626953125,-0.001434269710443914,0.000886076595634222,0.001986508257687092
1761475339971669800,4.861669677734375,-0.001420080428943038,0.00025055278092622757,0.0015034795505926013
1761475339981646600,4.871646484375,-0.0013196791987866163,0.0011898495722562075,0.0005274310824461281
1761475339991623700,4.881623779296875,0.0016504281666129827,-0.000456638284958899,0.0003392029902897775
1761475340001600800,4.891600830078125,-0.0016814526170492172,0.00019849929958581924,0.001717921462841332
1761475340011577600,4.90157763671875,0.0016498168697580695,-0.0017686409410089254,0.001521184341982007
1761475340021554700,4.9115546875,0.0012202489888295531,-0.000056761084124445915,-0.0012668787967413664
1761475340031531500,4.921531494140625,0.000019482802599668503,0.002355586737394333,-0.0033953033853322268
1761475340041508600,4.931508544921875,0.0034136816393584013,-0.0013757681008428335,0.0033504837192595005
1761475340051485400,4.9414853515625,0.00014548434410244226,0.00025403103791177273,0.001740222447551787
1761475340061462500,4.951462646484375,-0.00053362175822258,0.000481731491163373,-0.00044862969662062824
1761475340071439600,4.961439697265625,-0.0018008097540587187,0.0020779981277883053,0.002479001646861434
1761475340081416700,4.971416748046875,0.001929213758558035,0.0007251121569424868,0.0007042710203677416
1761475340091393800,4.981393798828125,-0.0008192514651454985,0.0009036653209477663,0.0019943732768297195
1761475340101370600,4.99137060546875,0.0009530822280794382,0.002356952289119363,0.0005259063327684999
1761475340111347700,5.00134765625,0.0006797150708734989,0.0012901637237519026,0.00014024921983946115
1761475340121324500,5.011324462890625,-0.000057181576266884804,0.0007530043367296457,0.0013679664116352797
1761475340131300600,5.021300537109375,-0.0003747673472389579,-0.00045286468230187893,-0.001272633671760559
1761475340141277400,5.03127734375,-0.0021614821162074804,0.00041159731335937977,-0.0017996731912717223
1761475340151254500,5.041254638671875,-0.0026180909480899572,0.0005680618342012167,-0.0021208578255027533
1761475340161232000,5.05123193359375,-0.002067083027213812,-0.0002822855021804571,-0.0021831756457686424
1761475340171208700,5.061208740234375,-0.0005061129340901971,-0.000340350903570652,-0.00040199278737418354
1761475340181185800,5.071185791015625,-0.0011119821574538946,0.0003850942011922598,0.0006816474488005042
1761475340191162600,5.08116259765625,-0.00008945242734625936,-0.00026294938288629055,0.0002550279605202377
1761475340201139700,5.0911396484375,-0.0025313047226518393,-0.0017729616956785321,0.001612973865121603
1761475340211116500,5.101116455078125,0.0009838202968239784,0.0023394396994262934,-0.00173765083309263
1761475340221093600,5.11109375,0.00014332664432004094,-0.00034476001746952534,0.00007409757381537929
1761475340231070700,5.12107080078125,-0.0015071537345647812,0.001699244137853384,-0.0022718145046383142
1761475340241047600,5.131047607421875,-0.0005441546090878546,-0.00030478439293801785,0.0017676681745797396
1761475340251024600,5.141024658203125,0.000025261135306209326,-0.002444252837449312,-0.00118035648483783
1761475340261001500,5.15100146484375,0.0005243375198915601,0.0023465075064450502,-0.0020141920540481806
1761475340270978800,5.160978759765625,-0.0002819912042468786,-0.0021986698266118765,0.0025233044289052486
1761475340280955600,5.17095556640625,0.0019782334566116333,-0.0003815949894487858,0.0012300735106691718
1761475340290932700,5.1809326171875,-0.0017274069832637906,-0.00035881041549146175,-0.0018007095204666257
1761475340300909800,5.190909912109375,-0.0020728190429508686,0.0006752950139343739,0.003816695883870125
1761475340310886700,5.20088671875,0.0012243111850693822,0.0005091929342597723,0.000762103358283639
1761475340320863700,5.21086376953125,-0.0005916982772760093,0.0021249325945973396,-0.0019724303856492043
1761475340330840600,5.220840576171875,0.00007956766057759523,0.0002772565931081772,-0.0008075847290456295
1761475340340817700,5.230817626953125,0.00236003240570426,0.0011707472149282694,0.0022430664394050837
1761475340350794500,5.24079443359375,0.000494740903377533,-0.0016413985285907984,0.002415891969576478
1761475340360771600,5.250771484375,0.001092886901460588,0.002353076823055744,-0.0019239953253418207
1761475340370748700,5.260748779296875,0.00015218305634334683,0.00009578443132340908,0.0034082119818776846
1761475340380725500,5.2707255859375,-0.000057940371334552765,0.000008965376764535904,-0.0013609768357127905
1761475340390702800,5.280702880859375,0.0034237850923091173,-0.002950466237962246,0.0032013680320233107
1761475340400679700,5.2906796875,-0.002176043577492237,0.0014205800835043192,-0.0012303981930017471
1761475340410656800,5.30065673828125,-0.0003785233129747212,-0.0010636810911819339,-0.0026076342910528183
1761475340420633600,5.310633544921875,0.0007013885187916458,-0.00005088094621896744,-0.0002451440959703177
1761475340430610700,5.320610595703125,0.00006593455327674747,0.0009368695318698883,-0.0024520615115761757
1761475340440586500,5.33058642578125,-0.001134352060034871,-0.0004250712227076292,-0.0010443145874887705
1761475340450563600,5.3405634765625,0.0004962122766301036,0.0011399760842323303,-0.0010839698370546103
1761475340460540400,5.35054052734375,-0.0010556115303188562,-0.001110128709115088,-0.0005995408282615244
1761475340470517800,5.360517822265625,0.0005877821822650731,-0.0012623175280168653,0.0005655477289110422
1761475340480494800,5.370494873046875,-0.0005296802264638245,0.0005603497847914696,-0.0006043789908289909
1761475340490471700,5.3804716796875,0.0010877492604777217,0.00043221423402428627,-0.002138931304216385
1761475340500448800,5.39044873046875,-0.00035355350701138377,0.0013976101763546467,0.0015831026248633862
1761475340510425600,5.400425537109375,0.000923491723369807,-0.0007986758137121797,-0.00020646504708565772
1761475340520402700,5.410402587890625,-0.0006144838407635689,0.0015963050536811352,-0.002911970252171159
1761475340530379500,5.420379638671875,-0.001170956064015627,0.0014461700338870287,-0.0002862305846065283
1761475340540356600,5.430356689453125,0.0007294756942428648,0.0012565527576953173,0.0016331096412613988
1761475340550333700,5.440333740234375,-0.0013344734907150269,-0.0006994378054514527,-0.0013740691356360912
1761475340560310500,5.450310546875,0.0005188202485442162,0.0002270760014653206,0.0022310519125312567
1761475340570287600,5.46028759765625,-0.0010263880249112844,0.0010077133774757385,0.0014113979414105415
1761475340580264400,5.470264404296875,-0.002764633158221841,0.0016623183619230986,0.00037090093246661127
1761475340590241800,5.48024169921875,-0.0007202686974778771,0.00012535578571259975,0.002454833360388875
1761475340600218600,5.490218505859375,0.0024595456197857857,0.0005032583139836788,-0.0007494821329601109
1761475340610195700,5.50019580078125,-0.0016607407014817,-0.0004364396445453167,-0.0012887424090877175
1761475340620172800,5.5101728515625,0.0017715414287522435,0.001011787448078394,0.0002479014510754496
1761475340630149600,5.520149658203125,0.0012779744574800134,-0.00039855879731476307,-0.0010629610624164343
1761475340640126700,5.530126708984375,-0.001460287719964981,0.00007814704440534115,-0.001094652689062059
1761475340650103600,5.540103515625,0.0023573958314955235,0.0017200438305735588,0.0014529302716255188
1761475340660080600,5.55008056640625,0.001927561592310667,-0.0029197153635323048,0.0015794304199516773
1761475340670057500,5.560057373046875,0.0007512076990678906,0.0018017736729234457,-0.0013753006933256984
1761475340680034600,5.57003466796875,0.00019167759455740452,-0.0002746931277215481,0.0033613976556807756
1761475340690011600,5.58001171875,0.000743657408747822,0.001252723392099142,0.0014460550155490637
1761475340699988500,5.589988525390625,-0.0004326608031988144,0.0009757545776665211,0.0020215639378875494
1761475340709965800,5.5999658203125,0.0003100611502304673,-0.000444751582108438,-0.0009439227869734168
1761475340719942700,5.609942626953125,0.0017122154822573066,-0.0010532838059589267,0.0036939720157533884
1761475340729919700,5.619919677734375,0.0008885394199751318,-0.000804586336016655,0.0008200246375054121
1761475340739896600,5.629896484375,-0.0014710212126374245,0.0005797247868031263,-0.0020918757654726505
1761475340749872600,5.63987255859375,-0.00021985307103022933,0.0013986302074044943,0.001774503500200808
1761475340759849500,5.649849365234375,0.0025676775258034468,0.0010484245140105486,0.0016352202510461211
1761475340769826600,5.65982666015625,-0.0012350340839475393,0.0010921829380095005,0.001872276421636343
1761475340779803600,5.6698037109375,-0.0025431786198168993,0.0012977791484445333,-0.0014923613052815199
1761475340789780700,5.67978076171875,0.0007608863525092602,0.002043584594503045,0.0012179261539131403
1761475340799757800,5.6897578125,-0.0011131800711154938,0.0008345097303390503,0.0014232557732611895
1761475340809735000,5.69973486328125,0.00006632384611293674,-0.001999006839469075,0.0016425170470029116
1761475340819711700,5.709711669921875,-0.0009043983300216496,-0.0008450591703876853,0.0032049936708062887
1761475340829688800,5.719688720703125,0.0021483604796230793,-0.00014124554581940174,0.0004826819058507681
1761475340839666000,5.729666015625,0.0015536766732111573,0.0021530676167458296,0.0006531242397613823
1761475340849642800,5.739642822265625,0.0011675371788442135,-0.0005955839296802878,-0.00007753730460535735
1761475340859619800,5.749619873046875,-0.00008175172843039036,0.0019722359720617533,-0.0032493621110916138
1761475340869596700,5.7595966796875,0.0008349957643076777,0.0007494878955185413,0.004613404627889395
1761475340879573800,5.76957373046875,0.00012499699369072914,0.00028902734629809856,0.00021839007968083024
1761475340889550600,5.779550537109375,-0.000023465428967028856,-0.0007202023407444358,-0.0035530009772628546
1761475340899527700,5.789527587890625,-0.00008098973194137216,0.001677441643550992,0.0008875538478605449
1761475340909504800,5.7995048828125,-0.00008867279393598437,0.0002228766679763794,-0.00017895633936859667
1761475340919481900,5.80948193359375,-0.00039946375181898475,-0.000668217078782618,0.0009555502329021692
1761475340929459000,5.819458984375,0.00007416610606014729,0.0023004242684692144,-0.002432962879538536
1761475340939435800,5.829435791015625,-0.0003040027804672718,0.001886302838101983,-0.0023410837166011333
1761475340949412900,5.839412841796875,0.0014541731216013432,0.002174974884837866,-0.0010635970393195748
1761475340959389700,5.8493896484375,0.000567340524867177,0.0013533898163586855,0.0028461897745728493
1761475340969366800,5.85936669921875,0.001391188707202673,-0.0008760577766224742,-0.0005578948766924441
1761475340979344000,5.86934375,0.0006886468618176877,-0.002365297405049205,0.0034304552245885134
1761475340989320700,5.87932080078125,-0.0005264630308374763,-0.0006614603335037827,0.00041810705442912877
1761475340999297800,5.8892978515625,0.0008168354397639632,-0.0019107491243630648,0.0005113176885060966
1761475341009274600,5.899274658203125,-0.001022067037411034,0.001042104559019208,-0.001159296720288694
1761475341019251700,5.909251708984375,0.0004320189473219216,0.0011081509292125702,0.0018828321481123567
1761475341029228800,5.919228759765625,0.00003962137270718813,0.0005013849586248398,-0.0032056530471891165
1761475341039206000,5.929205810546875,-0.001038159942254424,0.0012963383924216032,-0.0007638006354682148
1761475341049181700,5.939181640625,-0.0017675822600722313,0.0014132768847048283,0.002789536491036415
1761475341059158800,5.94915869140625,-0.0011172383092343807,0.0015576202422380447,-0.0013889633119106293
1761475341069135600,5.959135498046875,-0.0004576576757244766,0.002247371943667531,-0.0003319155948702246
1761475341079112700,5.96911279296875,-0.0001719004358164966,-0.00009407917968928814,-0.0018973216647282243
1761475341089089800,5.97908984375,-0.001647101598791778,0.0032513155601918697,-0.0016497999895364046
1761475341099066600,5.989066650390625,-0.001170662115328014,0.0016515548340976238,-0.0003805374726653099
1761475341109043700,5.999043701171875,0.0005998957203701138,-0.0017232510726898909,0.0009059152798727155
1761475341119020800,6.009020751953125,-0.0013918825425207615,-0.0007858184399083257,0.0015932770911604166
1761475341128998000,6.018997802734375,-0.0007383634801954031,0.0022621590178459883,0.00007686245953664184
1761475341138974700,6.028974609375,-0.0006020095897838473,0.003485082881525159,-0.0025783090386539698
1761475341148951800,6.038951904296875,0.00023543491261079907,-0.00040345487650483847,0.0026676079723984003
1761475341158929000,6.048928955078125,-0.00010784657206386328,-0.0005262265913188457,0.0034154236782342196
1761475341168905700,6.05890576171875,0.0001627085148356855,-0.00010740081779658794,-0.0007643075659871101
1761475341178882800,6.0688828125,0.000524365808814764,-0.0017654848052188754,-0.00023300691100303084
1761475341188859600,6.078859619140625,-0.002784091280773282,0.00038269138894975185,-0.00048803925164975226
1761475341198836700,6.088836669921875,-0.0015063066966831684,-0.00024741259403526783,0.0002443300618324429
1761475341208813600,6.0988134765625,0.0014222005847841501,0.0012375125661492348,0.0017931091133505106
1761475341218790700,6.108790771484375,-0.0006342923152260482,-0.00009539956226944923,-0.00046551780542358756
1761475341228767700,6.118767822265625,0.002186448546126485,0.00014709844253957272,-0.0019627821166068316
1761475341238744800,6.128744873046875,0.0002972020301967859,-0.0005136317340657115,-0.0021412139758467674
1761475341248722000,6.138721923828125,-0.0006693133618682623,0.00000551203265786171,-0.00010387651855126023
1761475341258698800,6.14869873046875,-0.00014973070938140154,-0.0008600153960287571,0.0027968385256826878
1761475341268675800,6.15867578125,0.0012141629122197628,-0.0003756063524633646,0.0005360972136259079
1761475341278652700,6.168652587890625,0.0022578558418899775,-0.00007493561133742332,0.0028067082166671753
1761475341288629800,6.178629638671875,-0.00036420830292627215,-0.0006664055399596691,-0.0018938715802505612
1761475341298606800,6.18860693359375,-0.0002901723491959274,-0.001463489606976509,-0.0028984160162508488
1761475341308583700,6.198583740234375,0.001268408028408885,0.00010004639625549316,0.0025718016549944878
1761475341318560800,6.208560791015625,0.0029150405898690224,0.002134701469913125,-0.000029840521165169775
1761475341328536800,6.218536865234375,-0.0012630342971533537,-0.00006826594471931458,-0.001099871937185526
1761475341338514000,6.228513916015625,-0.0036111432127654552,0.0031075538136065006,-0.002269798656925559
1761475341348490800,6.23849072265625,-0.0005623119650408626,0.0012340329121798277,0.0019264166476204991
1761475341358467800,6.2484677734375,0.00227688392624259,-0.0007260536076501012,0.0009213397279381752
1761475341368444700,6.258444580078125,0.000034611672163009644,0.0005764379166066647,-0.0002359182690270245
1761475341378421800,6.268421875,0.0006149144610390067,-0.0007388974772766232,-0.0006313977064564824
1761475341388398800,6.27839892578125,0.0035422162618488073,-0.0019739295821636915,0.0014487848384305835
1761475341398375700,6.288375732421875,0.002240729285404086,-0.0005763027584180236,0.0004903131048195064
1761475341408352800,6.298352783203125,-0.0006436091498471797,0.00044563040137290955,-0.0013740500435233116
1761475341418329600,6.30832958984375,-0.002245767042040825,0.0010131499730050564,0.0006134670693427324
1761475341428307000,6.318306884765625,-0.00007124326657503843,-0.0003129041288048029,-0.0020820905920118093
1761475341438283800,6.32828369140625,-0.00034554890589788556,0.002273025456815958,0.0009416625835001469
1761475341448260900,6.3382607421875,-0.001118269981816411,-0.002183708129450679,0.001542190439067781
1761475341458238000,6.348238037109375,-0.0006455588154494762,0.00104377674870193,-0.0003470559895504266
1761475341468214800,6.35821484375,-0.000383324280846864,0.0011385853867977858,-0.0013692091451957822
1761475341478191900,6.36819189453125,-0.0015452613588422537,-0.00020844163373112679,0.002004749607294798
1761475341488168700,6.378168701171875,-0.0017797877080738544,-0.0007776238489896059,-0.002291708020493388
1761475341498145800,6.388145751953125,0.0013409043895080686,-0.0009547240333631635,0.001436717459000647
1761475341508122600,6.39812255859375,-0.0007332423701882362,0.002052057534456253,0.0011649542720988393
1761475341518099700,6.408099609375,-0.0016224718419834971,0.00012179836630821228,-0.0009743630653247237
1761475341528076800,6.418076904296875,-0.0004788006190210581,-0.00013393210247159004,-0.0010204369900748134
1761475341538053600,6.4280537109375,-0.002215980552136898,0.0013395948335528374,-0.0006667691050097346
1761475341548031000,6.438031005859375,0.0011605549370869994,-0.000027616508305072784,-0.003463266184553504
1761475341558007800,6.4480078125,0.0012953109107911587,-0.0003756915684789419,0.002800222486257553
1761475341567985000,6.45798486328125,0.00002833292819559574,-0.0003547351807355881,0.00017070272588171065
1761475341577961700,6.467961669921875,-0.0004126865533180535,-0.00083623465616256,0.00226447987370193
1761475341587938800,6.477938720703125,-0.002073809737339616,-0.001260957564227283,-0.0008152558002620935
1761475341597916000,6.487916015625,0.0008665864006616175,0.0022160655353218317,0.0006223184755071998
1761475341607891700,6.4978916015625,0.0010490705026313663,0.0015510825905948877,-0.0017076500225812197
1761475341617868500,6.50786865234375,0.00010497990297153592,-0.0011088828323408961,0.000022073014406487346
1761475341627846000,6.517845947265625,0.0023674352560192347,0.00021160650067031384,-0.0003180961648467928
1761475341637823000,6.527822998046875,-0.0003575110458768904,0.0016670238692313433,0.0009692759485915303
1761475341647799800,6.5377998046875,0.0003417236148379743,-0.000020182225853204727,0.003949341829866171
1761475341657777000,6.54777685546875,-0.0014649648219347,0.0011137917172163725,0.002540263580158353
1761475341667753700,6.557753662109375,0.0013419410679489374,0.001430803444236517,-0.0003114475985057652
1761475341677730800,6.567730712890625,0.0027470248751342297,0.000454222084954381,0.002605246379971504
1761475341687707600,6.577707763671875,0.00025139073841273785,-0.0014314126456156373,0.0017101335106417537
1761475341697684700,6.587684814453125,0.0011422181269153953,-0.0005938485264778137,-0.00012798032548744231
1761475341707661800,6.597661865234375,-0.00007271586218848825,-0.0014703134074807167,-0.001461458276025951
1761475341717638700,6.607638671875,-0.00042345415567979217,-0.0018982833717018366,-0.002058805199339986
1761475341727615700,6.61761572265625,-0.0014771921560168266,-0.0006948130903765559,-0.0016580898081883788
1761475341737592600,6.627592529296875,0.002243243856355548,-0.0004370191600173712,-0.0007797791622579098
1761475341747570000,6.63756982421875,-0.0022326945327222347,-0.0008236715802922845,0.0024795918725430965
1761475341757546800,6.647546630859375,-0.00014104775618761778,0.0003656961489468813,-0.00033323877141810954
1761475341767523800,6.65752392578125,0.001734541729092598,-0.0017867451533675194,0.0020054741762578487
1761475341777501200,6.667501220703125,-0.0016929465346038342,0.001314239576458931,0.00023074366617947817
1761475341787478000,6.67747802734375,-0.0028405406046658754,-0.0006391388596966863,0.0010446610394865274
1761475341797455000,6.687455078125,-0.0011667439248412848,0.0009944441262632608,-0.0026209137868136168
1761475341807432000,6.697431884765625,0.00023393123410642147,-0.0014949851902201772,0.002833678387105465
1761475341817409000,6.707408935546875,0.0013697694521397352,0.002784182084724307,-0.0010665209265425801
1761475341827386000,6.71738623046875,-0.0006990529363974929,-0.0014927617739886045,0.0012447615154087543
1761475341837363000,6.727363037109375,0.00008231849642470479,0.002331537427380681,-0.002103364560753107
1761475341847340000,6.737340087890625,-0.0009439326822757721,0.0011562539730221033,-0.002395698567852378
1761475341857316900,6.74731689453125,-0.0013972027227282524,-0.0013487152755260468,-0.0005280237528495491
1761475341867294000,6.7572939453125,0.00029439054196700454,-0.0013962836237624288,-0.0013772189849987626
1761475341877271000,6.76727099609375,0.0010091830044984818,0.001441314583644271,0.00036368941073305905
1761475341887247000,6.7772470703125,-0.0010412117699161172,-0.0009898022981360555,0.0016083206282928586
1761475341897224000,6.787223876953125,0.0010799960000440478,0.002788158133625984,0.004107963759452105
1761475341907201000,6.797200927734375,0.00007206207374110818,0.0016445140354335308,-0.003581777447834611
1761475341917177900,6.807177734375,-0.0006472577224485576,-0.0017600711435079575,-0.0021021252032369375
1761475341927155000,6.817155029296875,-0.00008187245111912489,0.0009620883502066135,0.0018511454109102488
1761475341937132000,6.827132080078125,0.0011770038399845362,0.0018555789720267057,-0.0014074984937906265
1761475341947108900,6.83710888671875,0.00036981666926294565,0.0002775958273559809,0.0009185546077787876
1761475341957086200,6.847086181640625,0.0019876870792359114,0.0012533781118690968,0.0005044330609962344
1761475341967063000,6.85706298828125,-0.0023254642728716135,-0.0014806155813857913,-0.001058338675647974
1761475341977040100,6.8670400390625,0.000876986829098314,-0.0011530467309057713,0.0027459869161248207
1761475341987017000,6.877016845703125,-0.0006587107200175524,-0.001234115450643003,0.0049056136049330235
1761475341996994000,6.886994140625,-0.0001420575426891446,0.0021289242431521416,0.0037900153547525406
1761475342006971100,6.89697119140625,-0.001751253381371498,-0.00013786554336547852,-0.0014725765213370323
1761475342016948000,6.906947998046875,0.0002655585412867367,-0.001112316269427538,-0.0011519319377839565
1761475342026925000,6.916925048828125,-0.0005675731808878481,0.0007033322472125292,-0.000046997040044516325
1761475342036902000,6.92690185546875,0.0006926346104592085,-0.0011518258834257722,-0.00398155115544796
1761475342046879000,6.93687890625,0.0011829785071313381,0.0014530159533023834,0.00023934249475132674
1761475342056855800,6.946855712890625,0.0017225348856300116,0.0002537944819778204,-0.0021276751067489386
1761475342066833000,6.9568330078125,-0.0005699468310922384,0.0012566016521304846,0.00004726682527689263
1761475342076810200,6.966810302734375,-0.0015995248686522245,-0.0005599404685199261,-0.0010813807602971792
1761475342086787000,6.976787109375,-0.0006043975590728223,0.000508464640006423,-0.0015560253523290157
1761475342096764200,6.98676416015625,0.0005916280206292868,0.0006240459624677896,0.00037742964923381805
1761475342106741000,6.996740966796875,-0.0007132036844268441,0.0016384422779083252,-0.0008134049130603671
1761475342116718000,7.006718017578125,-0.00035713904071599245,0.001292497618123889,-0.0011654747650027275
1761475342126695000,7.01669482421875,0.0005837162025272846,0.00138564920052886,0.0029871026054024696
1761475342136672000,7.026672119140625,0.00040608333074487746,0.0004575375933200121,-0.0017583839362487197
1761475342146649000,7.036649169921875,-0.0003029123763553798,-0.000701392418704927,-0.00006324956484604627
1761475342156625200,7.046625244140625,0.002022826112806797,-0.0008004619739949703,0.0013274531811475754
1761475342166602200,7.056602294921875,0.0014719250611960888,0.0006897102575749159,-0.0006532429251819849
1761475342176579000,7.0665791015625,-0.0003816351527348161,-0.00065412069670856,-0.0002604267210699618
1761475342186556200,7.07655615234375,-0.0016931118443608284,-0.0022899582982063293,0.00019680515106301755
1761475342196533000,7.086532958984375,-0.0014947063755244017,0.0004602882545441389,0.00038003065856173635
1761475342206510000,7.096510009765625,0.001126773888245225,-0.0011895211646333337,-0.0010624052956700325
1761475342216487000,7.10648681640625,-0.002401648322120309,0.0007442000787705183,-0.0021705464459955692
1761475342226464000,7.116464111328125,-0.00025389797519892454,-0.00019452860578894615,0.0012765447609126568
1761475342236441000,7.126441162109375,-0.00016175257042050362,0.00044462992809712887,-0.0031597488559782505
1761475342246418000,7.13641796875,0.0014363143127411604,0.000053398311138153076,-0.000992756919004023
1761475342256395000,7.14639501953125,0.001030448591336608,0.0005993463564664125,0.0022437828592956066
1761475342266371800,7.156371826171875,0.0008265427313745022,0.0023131517227739096,-0.0011612670496106148
1761475342276349200,7.16634912109375,-0.000029663555324077606,0.0009149922989308834,0.003292603651061654
1761475342286326000,7.176325927734375,-0.0008617467829026282,0.0014196496922522783,-0.002590988064184785
1761475342296303000,7.18630322265625,-0.0004228578764013946,0.0004329485818743706,-0.00013848315575160086
1761475342306280200,7.1962802734375,0.0011629071086645126,-0.0013094560708850622,0.0015293039614334702
1761475342316257000,7.206257080078125,-0.0025237067602574825,0.0005494302604347467,-0.0013000383041799068
1761475342326234000,7.216234130859375,-0.00034427893115207553,-0.00048703677020967007,0.0038150285836309195
1761475342336211000,7.2262109375,-0.0009195217280648649,0.0022749274503439665,0.0005089804180897772
1761475342346188000,7.23618798828125,-0.00021212734282016754,0.002344279084354639,-0.0014388811541721225
1761475342356164900,7.246164794921875,-0.0006920290179550648,-0.00034258398227393627,0.0002623461768962443
1761475342366142000,7.256141845703125,-0.000265438633505255,0.0004687989130616188,-0.0007263867883011699
1761475342376119000,7.266119140625,0.0012214041780680418,-0.0009562586201354861,-0.00219112541526556
1761475342386096000,7.27609619140625,-0.0012800146359950304,-0.0010189415188506246,0.000326772453263402
1761475342396073200,7.2860732421875,0.001309376792050898,0.0007573869079351425,0.0007121318485587835
1761475342406050000,7.296050048828125,0.0017453748732805252,-0.0003441828303039074,0.0017367828404530883
1761475342416027100,7.306027099609375,-0.001506877364590764,0.0009069701191037893,-0.002271540928632021
1761475342426003000,7.3160029296875,-0.0007816473953425884,0.0026249170769006014,-0.00030577307916246355
1761475342435980000,7.32597998046875,-0.0027121729217469692,0.0013085163664072752,0.00009609793778508902
1761475342445956900,7.335956787109375,0.0012690078001469374,-0.0007404467323794961,-0.0011103004217147827
1761475342455934000,7.345933837890625,0.0003166613751091063,0.00037461891770362854,-0.0005510365008376539
1761475342465910800,7.355910888671875,-0.0015694530447944999,-0.00017685792408883572,0.0004170835600234568
1761475342475888000,7.36588818359375,0.00017758063040673733,-0.0009553000563755631,0.00248822383582592
1761475342485865200,7.375865234375,0.00021468423074111342,-0.0002455443609505892,-0.0007832645205780864
1761475342495842000,7.385842041015625,0.00016221997793763876,-0.001899101072922349,0.0016601856332272291
1761475342505819100,7.395819091796875,0.0012920855078846216,0.0006299642845988274,-0.0020842975936830044
1761475342515796000,7.4057958984375,0.00009952194523066282,-0.0009458281565457582,-0.00004298456769902259
1761475342525773000,7.41577294921875,0.0007744397735223174,-0.0033379208762198687,0.0022546749096363783
1761475342535750000,7.42575,0.003221884835511446,0.0019481873605400324,0.001616581343114376
1761475342545727000,7.43572705078125,-0.00041261158185079694,0.0007932372391223907,0.0012919402215629816
1761475342555704000,7.4457041015625,0.0007618424133397639,-0.000491738086566329,0.004085596185177565
1761475342565681000,7.455680908203125,0.0022395169362425804,0.0008631080854684114,0.0008799556526355445
1761475342575658000,7.465657958984375,-0.0000822269357740879,0.0006817467510700226,-0.0000058117148000746965
1761475342585635000,7.475635009765625,-0.000327028741594404,0.001906039658933878,-0.002702409867197275
1761475342595612200,7.485612060546875,-0.0003006634651683271,0.0005504908040165901,0.0012683633249253035
1761475342605589000,7.495589111328125,-0.000618559424765408,-0.0006020594155415893,0.002106321044266224
1761475342615566000,7.505566162109375,-0.0005293434951454401,0.0006357778329402208,0.00045596007839776576
1761475342625543200,7.515543212890625,-0.000443842145614326,0.0009770060423761606,-0.0018799669342115521
1761475342635520000,7.52552001953125,-0.00031867355573922396,0.0004094864707440138,-0.0023398948833346367
1761475342645497000,7.5354970703125,0.0005398106295615435,0.0019959211349487305,-0.00010976006160490215
1761475342655474000,7.545473876953125,0.0017744521610438824,0.0008638114668428898,-0.0021590625401586294
1761475342665451000,7.555450927734375,0.0009779718238860369,0.00016764388419687748,0.002103581326082349
1761475342675427000,7.565427001953125,0.0012975512072443962,0.0003487388603389263,0.0001823767670430243
1761475342685404200,7.575404052734375,-0.00031173083698377013,0.0007842439226806164,0.003594503039494157
1761475342695381000,7.585381103515625,0.001443824963644147,-0.000803000177256763,0.00010975691839121282
1761475342705358000,7.595358154296875,-0.0007195986690931022,-0.00043217185884714127,0.005364725366234779
1761475342715335200,7.605335205078125,-0.000692168076056987,-0.0001259082928299904,-0.0022026472724974155
1761475342725312000,7.61531201171875,-0.0002529434277676046,0.00043867016211152077,-0.001559585565701127
1761475342735289000,7.6252890625,0.0007947441772557795,-0.00016719894483685493,0.00476329168304801
1761475342745266000,7.635265869140625,-0.0007745128823444247,0.0012385707814246416,0.0006314290803857148
1761475342755243000,7.645242919921875,-0.00004454038571566343,0.0004896898753941059,-0.0026740864850580692
1761475342765219800,7.6552197265625,-0.001512319315224886,0.00005178176797926426,0.002117860596626997
1761475342775197000,7.665197021484375,-0.0003170926938764751,0.0010435429867357016,0.0007173040648922324
1761475342785173800,7.675173828125,-0.0006232984596863389,-0.00031128607224673033,0.00038841349305585027
1761475342795150600,7.685150634765625,-0.0008147797780111432,0.00243203598074615,-0.00011891868780367076
1761475342805127700,7.695127685546875,-0.0019283483270555735,0.0021333785261958838,0.002098941942676902
1761475342815104500,7.7051044921875,0.0006554505089297891,0.0007666442543268204,-0.0002973703667521477
1761475342825081600,7.71508154296875,0.0010263171279802918,0.002319459803402424,0.0009761707624420524
1761475342835058400,7.725058349609375,0.0022961122449487448,-0.0022071152925491333,0.0007830915856175125
1761475342845035500,7.735035400390625,0.0002336828620173037,0.0010561647359281778,0.0022600931115448475
1761475342855012600,7.7450126953125,-0.0004701906000263989,-0.000341994920745492,0.0005585994804278016
1761475342864989400,7.754989501953125,-0.002243336755782366,0.0025818366557359695,0.00006762249540770426
1761475342874966500,7.764966552734375,0.0017612585797905922,0.0013799520675092936,-0.002069564303383231
1761475342884943400,7.774943359375,-0.00018311780877411366,-0.0010301087750121951,-0.0016305078752338886
1761475342894920700,7.784920654296875,-0.0018401367124170065,-0.0020437079947441816,-0.0005202360916882753
1761475342904897500,7.7948974609375,0.0011494653299450874,-0.0018558065639808774,0.0001233442744705826
1761475342914874600,7.80487451171875,0.00040564441587775946,0.0004454308655112982,0.0012264256365597248
1761475342924850400,7.814850341796875,0.0006156394956633449,-0.0008103045402094722,0.00007085393008310348
1761475342934827500,7.82482763671875,0.0006087152287364006,0.0020683060865849257,-0.0029630193021148443
1761475342944804600,7.8348046875,-0.0011962372809648514,0.0009246300905942917,-0.000667640648316592
1761475342954781400,7.844781494140625,-0.0011174078099429607,0.0009778933599591255,0.0030796932987868786
1761475342964758500,7.854758544921875,0.000028716924134641886,-0.0002591903321444988,-0.0008121873252093792
1761475342974735600,7.864735595703125,-0.0010618474334478378,0.0006856992840766907,0.001491180737502873
1761475342984712700,7.874712646484375,-0.00079604476923123,0.0008759449701756239,-0.0013909415574744344
1761475342994689500,7.884689453125,0.0014258305309340358,0.0010804757475852966,0.0005307954270392656
1761475343004666600,7.89466650390625,-0.00004473293665796518,0.0020490630995482206,-0.002352638402953744
1761475343014643700,7.904643798828125,0.0013997657224535942,0.00047779781743884087,-0.0024378595408052206
1761475343024620500,7.91462060546875,0.0009077549329958856,-0.0010982643580064178,-0.000016730802599340677
1761475343034597600,7.92459765625,-0.0009735021158121526,0.0013379952870309353,0.001570779480971396
1761475343044574500,7.934574462890625,-0.0015363828279078007,-0.00026603147853165865,0.001984980655834079
1761475343054551600,7.944551513671875,0.0013731207000091672,0.0003140049520879984,-0.0010571482125669718
1761475343064528400,7.9545283203125,-0.0014705099165439606,-0.0017733369022607803,0.0017739786999300122
1761475343074505500,7.96450537109375,-0.0014057951048016548,0.0018371103797107935,0.002437372226268053
1761475343084482600,7.974482666015625,-0.00033032480860129,0.0014699536841362715,-0.0011530867777764797
1761475343094459600,7.984459716796875,-0.0018509896472096443,-0.00016549346037209034,0.0014842415694147348
1761475343104436700,7.994436767578125,-0.0003569965483620763,0.002235346706584096,-0.0025011985562741756
1761475343114412500,8.00441259765625,0.0012427642941474915,-0.0015221075154840946,-0.0018934651743620634
1761475343124389600,8.0143896484375,0.0003893931279890239,0.0019151305314153433,0.00253958348184824
1761475343134366500,8.024366455078125,-0.000505695294123143,-0.00012138858437538147,-0.000812803627923131
1761475343144343600,8.034343505859376,-0.0023677346762269735,-0.00016222894191741943,0.0025732030626386404
1761475343154320400,8.0443203125,-0.0028100856579840183,0.0004066221881657839,-0.0029453991446644068
1761475343164297500,8.05429736328125,-0.000053076655603945255,0.0005690280813723803,0.0005108266486786306
1761475343174274600,8.064274658203125,-0.0013092897133901715,0.00021482771262526512,-0.001974701415747404
1761475343184251600,8.074251708984375,0.0034233606420457363,0.0014838643837720156,0.0023375232703983784
1761475343194228700,8.084228759765624,-0.002055560704320669,0.0004798527806997299,-0.0014628074131906033
1761475343204205600,8.09420556640625,-0.00034534308360889554,0.0016308107879012823,0.0013558723730966449
1761475343214182700,8.1041826171875,0.0010245869634673,0.0030201817862689495,0.001748954877257347
1761475343224159500,8.114159423828125,0.0019018745515495539,0.0011986831668764353,0.0012157285818830132
1761475343234136600,8.124136474609376,-0.00020228902576491237,-0.00031851965468376875,-0.0011523542925715446
1761475343244113700,8.13411376953125,0.0012656068429350853,-0.0004005392547696829,-0.0008589608478359878
1761475343254090500,8.144090576171875,-0.0008609273354522884,0.0013377058785408735,-0.0008989082998596132
1761475343264067600,8.154067626953125,0.0014356686733663082,-0.0005718870088458061,0.002374204806983471
1761475343274044400,8.16404443359375,-0.00017581001156941056,0.003926458768546581,0.0020953717175871134
1761475343284021500,8.174021484375,0.0013286771718412638,0.00017123715952038765,0.0009387352038174868
1761475343293998600,8.18399853515625,0.000514282553922385,-0.0011635392438620329,0.0012833483051508665
1761475343303975700,8.1939755859375,0.00006421585567295551,-0.00039196270518004894,0.0012028391938656569
1761475343313952800,8.203952880859376,-0.0007917241891846061,0.000950004206970334,-0.001997214974835515
1761475343323929600,8.2139296875,-0.0016061069909483194,-0.000775351538322866,0.0008459988748654723
1761475343333906700,8.22390673828125,-0.0011256725993007421,0.000613753218203783,0.0005645027267746627
1761475343343882500,8.233882568359375,0.0005194005789235234,0.00004593958146870136,0.0024832843337208033
1761475343353859600,8.243859619140625,-0.0016641252441331744,0.0034531878773123026,-0.00005444203270599246
1761475343363836400,8.25383642578125,0.0005817038472741842,0.0012206374667584896,-0.0012704315595328808
1761475343373813500,8.2638134765625,0.0000906169880181551,-0.0002752601867541671,0.0011261471081525087
1761475343383790600,8.27379052734375,-0.00011571089271456003,0.0009928408544510603,-0.002139862161129713
1761475343393767700,8.283767578125,-0.0008882938418537378,-0.001700413879007101,0.0008370192954316735
1761475343403744500,8.29374462890625,-0.0006517551373690367,0.0020815532188862562,-0.0019128513522446156
1761475343413721600,8.3037216796875,0.0004374777781777084,-0.0015030615031719208,-0.00238982355222106
1761475343423698700,8.31369873046875,0.0021663892548531294,-0.001111938850954175,0.00018045850447379053
1761475343433675500,8.323675537109375,-0.00018038821872323751,0.0009280424565076828,-0.001238207332789898
1761475343443652600,8.333652587890626,0.0010051135905086994,0.0011293513234704733,0.0008070264593698084
1761475343453629400,8.34362939453125,-0.0010116982739418745,-0.000008883653208613396,0.0004371133982203901
1761475343463606500,8.3536064453125,0.0024428979959338903,0.0012731519527733326,0.0016850853571668267
1761475343473583400,8.363583251953125,0.001094006933271885,0.0006323955021798611,0.0003029047802556306
1761475343483560400,8.373560546875,-0.0011562429135665298,0.0005447219591587782,-0.0003226655535399914
1761475343493537800,8.383537841796874,-0.0004531684098765254,0.003610286395996809,-0.0007216070662252605
1761475343503514600,8.3935146484375,-0.00027197785675525665,-0.0010929718846455216,0.0016571074957028031
1761475343513491700,8.40349169921875,0.002459093928337097,-0.0016825958155095577,-0.00022335049288813025
1761475343523468500,8.413468505859376,0.000026247580535709858,0.001145683927461505,-0.0009068488143384457
1761475343533445600,8.423445556640624,0.0019445226062089205,0.0022109481506049633,0.0002678715391084552
1761475343543422500,8.43342236328125,-0.0003158556064590812,-0.0008372097508981824,-0.0023673581890761852
1761475343553399600,8.443399658203125,-0.002722021657973528,0.0001777210272848606,0.00106332590803504
1761475343563376600,8.453376708984376,-0.00164168537594378,0.000550620025023818,-0.001663433969952166
1761475343573353500,8.463353515625,0.002737083937972784,-0.0009596586460247636,-0.000901503604836762
1761475343583330600,8.47333056640625,-0.0012648728443309665,-0.0010880546178668737,0.0016285876045003533
1761475343593307400,8.483307373046875,-0.001796706230379641,-0.0009924471378326416,-0.001460679224692285
1761475343603284500,8.493284423828126,-0.001191497314721346,0.0005685531068593264,-0.0020181573927402496
1761475343613260500,8.503260498046876,0.0004641897976398468,0.0011272842530161142,-0.0024370725732296705
1761475343623237600,8.513237548828124,0.00007382099283859134,-0.0006972799310460687,-0.00187706109136343
1761475343633214500,8.52321435546875,-0.00029209733474999666,0.0018002325668931007,-0.001094624400138855
1761475343643191600,8.533191650390625,-0.0018286502454429865,-0.0004848473472520709,0.0049214670434594154
1761475343653168600,8.543168701171876,0.001751969801262021,0.0010102512314915657,-0.0002469299652148038
1761475343663145500,8.5531455078125,0.0001538892393000424,0.001769370399415493,-0.0034122499637305737
1761475343673122600,8.56312255859375,-0.0008948636241257191,0.0012974583078175783,0.0009633238078095019
1761475343683099400,8.573099365234375,-0.0017652225214987993,-0.00016838056035339832,0.002790977479889989
1761475343693076700,8.58307666015625,-0.001460823230445385,-0.0011321785859763622,-0.0023358738981187344
1761475343703053600,8.593053466796874,-0.00012332969345152378,-0.00024272873997688293,-0.0021733336616307497
1761475343713030700,8.60303076171875,0.00025111070135608315,0.0006219996139407158,-0.001427382230758667
1761475343723007700,8.6130078125,0.0006414023227989674,-0.0002355413744226098,0.0004531586018856615
1761475343732984600,8.622984619140626,-0.0030571958050131798,0.0015727449208498001,0.00007365814235527068
1761475343742961700,8.632961669921874,0.0009341704426333308,0.0023245562333613634,-0.0006584041984751821
1761475343752938500,8.6429384765625,-0.0027348666917532682,0.000001480570062994957,-0.0002714469446800649
1761475343762915600,8.65291552734375,-0.0005694094579666853,-0.00020222237799316645,0.0033470112830400467
1761475343772892400,8.662892333984376,0.0017808300908654928,0.000281407730653882,-0.001406198600307107
1761475343782869500,8.672869384765624,-0.00046181154903024435,-0.0002286782255396247,-0.0013912406284362078
1761475343792846600,8.6828466796875,0.0011648472864180803,0.0023716322612017393,0.0017041515093296766
1761475343802823700,8.69282373046875,-0.0005554577801376581,0.00033454527147114277,-0.0006483184406533837
1761475343812800800,8.70280078125,0.0012701391242444515,-0.0010297921253368258,0.0013908640248700976
1761475343822777900,8.71277783203125,0.0013089063577353954,-0.0012831020867452025,0.0013772420352324843
1761475343832754700,8.722754638671875,-0.001620038179680705,0.0007038824260234833,-0.0001434228615835309
1761475343842730800,8.732730712890625,-0.0008338454645127058,-0.0025741453282535076,0.0014797656331211329
1761475343852707600,8.74270751953125,-0.00009242142550647259,0.0012466919142752886,-0.0010816626017913222
1761475343862684700,8.7526845703125,0.0012590179685503244,-0.00009650993160903454,-0.000008019240340217948
1761475343872661500,8.76266162109375,-0.001113325939513743,0.00010775448754429817,-0.0004477071634028107
1761475343882638600,8.772638671875,-0.0000014310935512185097,-0.0012097377330064774,-0.0036369366571307182
1761475343892615700,8.78261572265625,-0.0013924002414569259,0.0016784605104476213,-0.000685621693264693
1761475343902592800,8.7925927734375,0.0010150125017389655,-0.0001695621758699417,-0.0009651680593378842
1761475343912569900,8.80256982421875,-0.0009722383110783994,-0.0010380189632996917,0.0001834532304201275
1761475343922546700,8.812546630859375,0.0024017086252570152,0.0022068454418331385,-0.000368153938325122
1761475343932523800,8.822523681640625,-0.0014223243342712522,0.0007897773757576942,-0.002293619327247143
1761475343942500600,8.83250048828125,-0.00003112072590738535,-0.0010774696711450815,0.0013370765373110771
1761475343952477700,8.842477783203124,-0.0012971875257790089,0.0012746341526508331,0.0007844706415198743
1761475343962454800,8.852454833984375,-0.0011168255005031824,0.001277801813557744,0.00014948657189961523
1761475343972431600,8.862431640625,0.00128214992582798,-0.0005898731760680676,-0.0001759517181199044
1761475343982408700,8.87240869140625,0.001974135171622038,-0.0008231708779931068,-0.0025120347272604704
1761475343992385500,8.882385498046874,0.0005482787964865565,-0.0022620768286287785,0.0016598071670159698
1761475344002362600,8.892362548828125,0.0005275122821331024,0.001951148035004735,0.002401065081357956
1761475344012339700,8.902339599609375,0.00131793855689466,0.00006669526919722557,0.0014636324485763907
1761475344022316800,8.91231689453125,-0.0023414106108248234,0.0035812414716929197,-0.00173368735704571
1761475344032294000,8.9222939453125,-0.00017386372201144695,-0.0006750226020812988,-0.0002180823648814112
1761475344042270700,8.932270751953125,-0.0033260518684983253,-0.00026471028104424477,-0.003450786229223013
1761475344052247800,8.942247802734375,-0.0011702229967340827,0.0016152150928974152,0.00075221445877105
1761475344062224600,8.952224609375,-0.0007036991883069277,0.0015760310925543308,0.003783618099987507
1761475344072201700,8.96220166015625,-0.00004137109499424696,0.0015267624985426664,0.00020965610747225583
1761475344082177500,8.972177490234374,-0.00032571214251220226,0.0011268300004303455,-0.0014946528244763613
1761475344092154600,8.982154541015625,-0.00028816156554967165,0.0007286872714757919,-0.0035594014916568995
1761475344102131700,8.992131591796875,0.0010381708852946758,-0.000366995926015079,0.00138770358171314
1761475344112108800,9.00210888671875,-0.0005189793882891536,0.0008556612301617861,0.00030060127028264105
1761475344122085600,9.012085693359374,0.000731467385776341,-0.0005464511923491955,-0.00009307768777944148
1761475344132062700,9.022062744140625,-0.0005178214050829411,-0.002320382744073868,0.0004328966315370053
1761475344142039800,9.032039794921875,-0.00195200159214437,0.0009998967871069908,-0.00312500330619514
1761475344152016600,9.0420166015625,0.0007311332738026977,-0.0021042837761342525,-0.0006448013009503484
1761475344161993700,9.05199365234375,-0.00011794664897024632,-0.0014018412912264466,0.0032170757185667753
1761475344171970600,9.061970458984375,0.0025409534573554993,0.00015610805712640285,0.0008050507167354226
1761475344181947600,9.07194775390625,0.0003517777658998966,-0.001167824026197195,-0.0024233716540038586
1761475344191924500,9.081924560546875,0.00009025534382089972,0.0012593809515237808,0.0025870995596051216
1761475344201901600,9.091901611328124,-0.000560736982151866,0.00025776191614568233,-0.0014832471497356892
1761475344211878700,9.101878662109375,-0.0003703208640217781,-0.000445046229287982,0.0011021497193723917
1761475344221855700,9.111855712890625,0.0010631622280925512,0.003116286126896739,-0.00007991337042767555
1761475344231832800,9.121832763671875,0.0014567774487659335,-0.00036579708103090525,-0.00039363373070955276
1761475344241809700,9.1318095703125,-0.0034201168455183506,-0.0008549434132874012,-0.0002515002270229161
1761475344251786800,9.141786865234375,-0.0026227664202451706,0.0017959673423320055,-0.002075499389320612
1761475344261763600,9.151763671875,-0.0004675185773521662,0.000025755027309060097,0.000016858837625477463
1761475344271740700,9.16174072265625,-0.0012680648360401392,0.00009366567246615887,-0.00011416869529057294
1761475344281717800,9.1717177734375,-0.0012244388926774263,-0.0010732347145676613,-0.003911165054887533
1761475344291694600,9.181694580078124,0.001691722311079502,0.0015750126913189888,0.0011834618635475636
1761475344301671700,9.191671630859375,0.00011984928278252482,0.0014482256956398487,0.0016586408019065857
1761475344311647700,9.201647705078125,-0.00006843626033514738,-0.004774516448378563,0.000588316295761615
1761475344321624800,9.211624755859376,0.00016057421453297138,0.0014494084753096104,-0.00014566758181899786
1761475344331601700,9.2216015625,0.00013340992154553533,0.0011876197531819344,0.00213932478800416
1761475344341578800,9.231578857421875,-0.0018251955043524504,0.00024156691506505013,-0.0008294189465232193
1761475344351555600,9.2415556640625,0.0008957560639828444,0.0010208080057054758,0.0014654268743470311
1761475344361532700,9.25153271484375,0.0002687934320420027,0.00019422476179897785,0.003193241311237216
1761475344371509800,9.261509765625,-0.00011470180470496416,0.00019209436140954494,0.000977757852524519
1761475344381486600,9.271486572265625,0.0006899925647303462,0.0025069520343095064,-0.003095425432547927
1761475344391463700,9.281463623046875,-0.0008237481815740466,0.0007966700941324234,0.0006268748547881842
1761475344401440500,9.2914404296875,0.0004035636084154248,-0.0020462260581552982,0.0032037831842899323
1761475344411417600,9.30141748046875,-0.001476095407269895,-0.00009119953028857708,-0.0015686014667153358
1761475344421394700,9.311394775390625,0.0024274715688079596,0.00036199530586600304,0.0007547824061475694
1761475344431371800,9.321371826171875,-0.0006585994269698858,-0.0003269644221290946,0.0014421442756429315
1761475344441348900,9.331348876953125,0.002787097357213497,0.00007627229206264019,0.0016080797649919987
1761475344451325700,9.34132568359375,0.0012850743951275945,-0.0012947231298312545,-0.0013594806659966707
1761475344461302800,9.351302734375,-0.00031139899510890245,0.0014480373356491327,0.00041161803528666496
1761475344471279600,9.361279541015625,-0.0013383137993514538,-0.00042309961281716824,0.0006494382978416979
1761475344481256700,9.371256591796875,0.0007629240280948579,0.0022434128914028406,0.0006269427249208093
1761475344491233500,9.381233642578126,-0.0012672035954892635,0.0009624322410672903,-0.0007118283538147807
1761475344501210600,9.391210693359374,-0.0005435538478195667,0.0008126080501824617,-0.0018294260371476412
1761475344511187700,9.401187744140625,0.0014114726800471544,0.0017548343166708946,0.0005972463404759765
1761475344521164500,9.41116455078125,-0.0012962401378899813,0.0007357241120189428,-0.000595840800087899
1761475344531140900,9.421140869140626,0.0015104652848094702,0.0008971116039901972,-0.0004810585523955524
1761475344541117700,9.43111767578125,0.001425813534297049,0.0020885756239295006,-0.000013015262084081769
1761475344551094800,9.4410947265625,-0.0004730202490463853,-0.0003756474470719695,0.0001358554291073233
1761475344561071600,9.451071533203125,-0.0032922145910561085,0.0005634319968521595,0.0007781246677041054
1761475344571048700,9.461048583984375,0.0005328835686668754,-0.003280308563262224,-0.0013372241519391537
1761475344581025500,9.471025634765626,0.002184666693210602,-0.002471680287271738,0.0009432456572540104
1761475344591002600,9.481002685546875,-0.0014966209419071674,0.0011819102801382542,-0.0004895349848084152
1761475344600979700,9.490979736328125,0.0010921912034973502,-0.0009550810791552067,-0.0017221388407051563
1761475344610956500,9.50095654296875,0.00026101863477379084,-0.00042990571819245815,-0.0005181236192584038
1761475344620934000,9.510933837890626,0.0025066807866096497,0.0005350878927856684,0.003779051825404167
1761475344630910700,9.52091064453125,-0.0012132225092500448,0.0005774321034550667,-0.0011611118679866195
1761475344640887800,9.5308876953125,-0.0017439263174310327,-0.00023811683058738708,0.00011522799468366429
1761475344650864600,9.54086474609375,-0.000774535583332181,0.0024745790287852287,0.0023448262363672256
1761475344660841700,9.550841796875,-0.0017347335815429688,-0.0004900280619040132,-0.0008170100627467036
1761475344670818800,9.56081884765625,-0.00169691676273942,0.00026630982756614685,0.0022331082727760077
1761475344680795600,9.570795654296875,-0.00015078694559633732,0.0012210214044898748,0.0006673373281955719
1761475344690772700,9.580772705078125,-0.00048448098823428154,-0.0002831320744007826,-0.003292250679805875
1761475344700749600,9.59074951171875,0.0024902932345867157,-0.00033603969495743513,0.0020457024220377207
1761475344710726700,9.6007265625,-0.0014160315040498972,-0.00015041744336485863,-0.0024968513753265142
1761475344720703500,9.610703369140625,0.0006963276537135243,-0.0006516925059258938,-0.002415762050077319
1761475344730680800,9.620680908203125,0.0020409575663506985,0.004228550009429455,-0.0012514281552284956
1761475344740656600,9.63065673828125,0.00039616075810045004,0.00023091165348887444,-0.0005976086249575019
1761475344750633700,9.6406337890625,0.0004424997605383396,-0.00010917405597865582,-0.0034794150851666927
1761475344760610600,9.650610595703125,-0.0013535707257688046,-0.0008805051911622286,-0.0041580707766115665
1761475344770587600,9.660587646484375,-0.0013684842269867659,0.0012438984122127295,-0.0016051646089181304
1761475344780564500,9.670564453125,-0.002543885260820389,0.00007953355088829994,0.001615104149095714
1761475344790541300,9.680541259765626,-0.0004074975149706006,0.0006862014997750521,-0.0031205287668854
1761475344800518400,9.690518310546874,0.0006806371966376901,-0.0007324980106204748,0.0011163238668814301
1761475344810495500,9.70049560546875,-0.002445913851261139,0.0019122874364256859,-0.0008187290513888001
1761475344820472600,9.71047265625,0.001326657715253532,0.0008677353616803885,0.001262740115635097
1761475344830449700,9.72044970703125,0.0014409073628485203,-0.0006044601323083043,0.0008504828438162804
1761475344840426500,9.730426513671874,0.0000211027218028903,-0.0012109940871596336,0.0013445615768432617
1761475344850403600,9.740403564453125,-0.0013347127242013812,0.0006811819039285183,0.0008382945670746267
1761475344860380400,9.75038037109375,-0.0005935425870120525,0.00036073499359190464,-0.00021429263870231807
1761475344870357500,9.760357421875,0.001211015391163528,0.0022071043495088816,0.002045399509370327
1761475344880334600,9.77033447265625,-0.0011167137417942286,0.00040630041621625423,0.00001301632437389344
1761475344890311400,9.7803115234375,0.00028916896553710103,0.00251792068593204,-0.00025090292911045253
1761475344900288500,9.79028857421875,-0.0015872690128162503,-0.00009679864160716534,0.0017406814731657505
1761475344910265300,9.800265380859376,-0.00039816752541810274,0.00011465628631412983,-0.0003253988397773355
1761475344920242400,9.810242431640624,-0.0012200832134112716,0.0002929873298853636,0.0010023120557889342
1761475344930219500,9.820219482421875,0.0006904684705659747,0.0006386656314134598,-0.0002384546387474984
1761475344940196600,9.830196533203125,0.0001789195230230689,0.0004148860462009907,-0.000718947034329176
1761475344950172400,9.84017236328125,-0.0029708012007176876,0.0009533772245049477,-0.0008449145825579762
1761475344960150500,9.850150634765624,0.0005710498080588877,0.00039331521838903427,-0.0009890369838103652
1761475344970126600,9.860126708984374,0.001009139814414084,0.001437274506315589,0.00018062334856949747
1761475344980103400,9.870103515625,0.0018583727069199085,0.0008184057660400867,0.0013669466134160757
1761475344990080500,9.88008056640625,-0.001305728917941451,-0.0002796156331896782,0.0014710761606693268
1761475345000057300,9.890057373046876,0.002575403545051813,0.0004580558743327856,-0.0009730880265124142
1761475345010034700,9.90003466796875,0.002875275444239378,0.0006253023166209459,0.0005246737855486572
1761475345020011500,9.910011474609375,0.0006934505654498935,0.0017255856655538082,-0.0019998946227133274
1761475345029988600,9.919988525390625,-0.002485564909875393,0.0012595322914421558,-0.0015903005842119455
1761475345039965700,9.929965576171876,0.0031736763194203377,-0.0004939497448503971,-0.00008366000838577747
1761475345049942500,9.939942626953124,0.00019413151312619448,-0.0010388324735686183,-0.001611249172128737
1761475345059919600,9.949919677734375,-0.0014510741457343102,0.0006921542808413506,0.00004460278432816267
1761475345069896400,9.959896484375,0.00313116074539721,0.0031039128080010414,0.0030672906432300806
1761475345079873500,9.96987353515625,0.002574463374912739,-0.00004353024996817112,0.0030923732556402683
1761475345089850400,9.979850341796874,0.003530005691573024,-0.0009276997298002243,0.002014858415350318
1761475345099827500,9.989827392578125,-0.0013166518183425069,-0.001284615253098309,0.00378368329256773
1761475345109804500,9.999804443359375,-0.0015685869148001075,-0.00020869821310043335,0.0011863023974001408
1761475345119781400,10.009781494140626,0.0018878709524869919,-0.0005276326555758715,-0.00026613962836563587
1761475345129758700,10.0197587890625,0.0013701524585485458,0.001341906376183033,0.002059865277260542
1761475345139735600,10.029735595703125,-0.0008592157391831279,0.0007517612539231777,-0.0014143188018351793
1761475345149712600,10.039712646484375,-0.0010728011839091778,0.000955226831138134,0.0006158089963719249
1761475345159689500,10.049689453125,-0.0011986475437879562,-0.0020295400172472,-0.000600223895162344
1761475345169665500,10.05966552734375,-0.0004977035569027066,0.00343819591216743,0.0025763947051018476
1761475345179642400,10.069642333984374,-0.00033142371103167534,-0.0007427935488522053,0.0015642951475456357
1761475345189619500,10.079619384765625,-0.001741301268339157,-0.001479157479479909,-0.0025769202038645744
1761475345199596300,10.08959619140625,0.0014070628676563501,0.00035048904828727245,0.002017747377976775
1761475345209573600,10.09957373046875,0.000790807418525219,0.0007140105590224266,-0.00033382384572178125
1761475345219550700,10.10955078125,0.0015055496478453279,-0.001199646620079875,0.0009874089155346155
1761475345229527600,10.119527587890625,-0.0020481725223362446,0.0034965716768056154,-0.0009076964342966676
1761475345239504600,10.129504638671875,0.000016067293472588062,-0.0023744115605950356,0.001382485032081604
1761475345249481500,10.1394814453125,-0.0000025748740881681442,-0.0011653363471850753,-0.0017544524744153023
1761475345259458600,10.14945849609375,0.0009415308013558388,0.0006251770537346601,0.0027816370129585266
1761475345269435400,10.159435302734375,-0.0002662127371877432,0.00009174575097858906,0.000900113838724792
1761475345279412500,10.16941259765625,0.003291109576821327,-0.0013315712567418814,0.0020838258787989616
1761475345289389600,10.1793896484375,-0.0014165600296109915,0.0005640669260174036,0.0004185514117125422
1761475345299366400,10.189366455078124,0.001346828998066485,0.0010025585070252419,0.0011902216356247663
1761475345309343500,10.199343505859375,0.00035054044565185905,0.00008163740858435631,-0.002859114669263363
1761475345319320300,10.2093203125,0.0002471785410307348,0.001296777743846178,0.0013139784568920732
1761475345329297700,10.219297607421876,0.0010320120491087437,0.0012472430244088173,0.0008455284987576306
1761475345339274500,10.2292744140625,0.000035467674024403095,-0.0018092705868184566,0.0022012803237885237
1761475345349251600,10.23925146484375,-0.0008090207120403647,-0.0005951354978606105,-0.0009274011827073991
1761475345359228700,10.249228759765625,0.0024437829852104187,-0.0028386791236698627,0.0010080833453685045
1761475345369205500,10.25920556640625,-0.001957889646291733,-0.001372875296510756,0.0000016748090274631977
1761475345379181600,10.269181640625,-0.0008055587531998754,-0.0007900052005425096,-0.000932113965973258
1761475345389158400,10.279158447265624,-0.0011033001355826855,-0.0000637611374258995,0.0004101191589143127
1761475345399135500,10.289135498046875,-0.0017515055369585752,0.000324868131428957,0.000027728936402127147
1761475345409112600,10.299112548828125,0.0012035379186272621,-0.0021047338377684355,-0.0002740072086453438
1761475345419089700,10.309089599609376,-0.00010934541933238506,-0.0008956169476732612,0.0008575715473853052
1761475345429066500,10.31906640625,0.0013343541650101542,-0.0036871423944830894,0.0028320392593741417
1761475345439043600,10.329043701171875,-0.0010289328638464212,0.0010037319734692574,-0.0007592755719088018
1761475345449020700,10.339020751953125,0.001492281793616712,0.0016066713724285364,-0.0029097781516611576
1761475345458997500,10.34899755859375,-0.0002706472296267748,-0.00015089777298271656,0.0001264913153136149
1761475345468974600,10.358974609375,-0.0010442956117913127,-0.00026088650338351727,0.002040505176410079
1761475345478951400,10.368951416015625,-0.0004343684995546937,-0.0014885395066812634,-0.0004564805421978235
1761475345488928500,10.378928466796875,-0.0004932243609800935,0.0003610257990658283,0.0023614102974534035
1761475345498905300,10.3889052734375,-0.0013697652611881495,0.001385986339300871,0.0047176796942949295
1761475345508882400,10.39888232421875,-0.001487210625782609,-0.00018155016005039215,0.0005783282686024904
1761475345518859500,10.408859619140625,-0.00242251786403358,-0.0020383368246257305,-0.001005819533020258
1761475345528836600,10.418836669921875,-0.00043207115959376097,0.0004253534134477377,0.0006764993886463344
1761475345538813700,10.428813720703126,0.0007601076504215598,-0.0006755708018317819,0.00012781978875864297
1761475345548790500,10.43879052734375,0.0023273779079318047,0.0005244496278464794,-0.00027431754278950393
1761475345558767600,10.448767578125,-0.0014453461626544595,0.0013421631883829832,0.0000023673783289268613
1761475345568744400,10.458744384765625,0.0024010571651160717,0.0011381651274859905,0.002247678581625223
1761475345578721500,10.468721435546875,0.0008996512042358518,-0.0014058940578252077,0.0037006675265729427
1761475345588697300,10.478697265625,0.0008879333036020398,-0.00031799287535250187,0.001936589484103024
1761475345598674400,10.48867431640625,0.0005666202632710338,-0.00030450988560914993,-0.001312379026785493
1761475345608651500,10.498651611328125,0.00029577675741165876,-0.0019431528635323048,-0.00036775582702830434
1761475345618628600,10.508628662109375,0.0022764019668102264,-0.0011674476554617286,-0.0005231998511590064
1761475345628605700,10.518605712890626,0.0022982400842010975,-0.0006438702112063766,-0.0011181500740349293
1761475345638582500,10.52858251953125,-0.00047799351159483194,0.00010654027573764324,0.0024254333693534136
1761475345648559600,10.5385595703125,0.0015119204763323069,-0.002102019265294075,-0.00004890970012638718
1761475345658536400,10.548536376953125,0.0022458992898464203,-0.0022212809417396784,-0.00005066920130047947
1761475345668513500,10.558513427734376,-0.0014372523874044418,-0.00035653566010296345,-0.0033814848866313696
1761475345678490600,10.56849072265625,0.0018770727328956127,-0.00003819447010755539,0.0007371696992777288
1761475345688467500,10.578467529296875,-0.00018874136731028557,0.0009881879668682814,0.000957679410930723
1761475345698444500,10.588444580078125,0.000014023389667272568,-0.0027562968898564577,0.0016549318097531796
1761475345708421400,10.59842138671875,-0.0008784019155427814,-0.0014050088357180357,-0.00041860545752570033
1761475345718398500,10.6083984375,0.0006035675760358572,-0.0025513037107884884,-0.0013458140892907977
1761475345728375600,10.61837548828125,0.0013905316591262817,-0.001508676097728312,0.0027096476405858994
1761475345738352600,10.6283525390625,-0.0009878664277493954,0.001170242903754115,0.001574573339894414
1761475345748329700,10.638329833984375,-0.0002733403816819191,0.0007822203915566206,-0.002304320689290762
1761475345758306600,10.648306640625,-0.00008356559555977583,0.0018869589548557997,-0.0009184232912957668
1761475345768283600,10.65828369140625,-0.0025347392074763775,0.000885344110429287,-0.0006142903584986925
1761475345778260500,10.668260498046875,-0.0015869878698140383,0.000055539654567837715,-0.0011422473471611738
1761475345788237000,10.678237060546875,0.0006436757976189256,0.0022071076091378927,0.002278316766023636
1761475345798214000,10.6882138671875,-0.0006823514122515917,0.0010473944712430239,-0.00223152874968946
1761475345808191000,10.69819091796875,0.001586395432241261,0.002312395954504609,-0.0017646764172241092
1761475345818167800,10.708167724609375,0.002595561323687434,0.00034576375037431717,-0.00025321575230918825
1761475345828145200,10.718145263671875,0.0017952814232558012,0.0003055501729249954,0.0017960866680368781
1761475345838122200,10.728122314453126,-0.000003716209903359413,-0.0008361013606190681,0.00008068112947512418
1761475345848099000,10.73809912109375,0.0007917700568214059,0.002187651814892888,-0.001379796420224011
1761475345858076200,10.748076171875,-0.00015634798910468817,0.0015775200445204973,0.00011208211071789265
1761475345868053000,10.758052978515625,0.0018743122927844524,-0.00019800965674221516,0.0011712212581187487
1761475345878030000,10.768030029296876,0.0006199744530022144,0.0010348705109208822,-0.0007925693644210696
1761475345888007000,10.7780068359375,-0.0012500971788540483,0.0002606895286589861,-0.0017827326664701104
1761475345897984000,10.78798388671875,-0.0014754878357052803,0.0012654894962906837,-0.0006692309398204088
1761475345907961000,10.797961181640625,-0.001006771344691515,-0.00009005959145724773,0.00022026487567927688
1761475345917938000,10.80793798828125,0.0002504431176930666,-0.001471892697736621,-0.004502318799495697
1761475345927915000,10.8179150390625,0.0009700292721390724,0.003068530699238181,0.0013963168021291494
1761475345937891800,10.827891845703125,-0.0006532102124765515,0.005047347396612167,0.00025895453291013837
1761475345947869200,10.837869140625,-0.0008388325804844499,0.003668362507596612,0.003614271292462945
1761475345957846000,10.847845947265625,0.0014161246363073587,0.00037956121377646923,-0.0013286540051922202
1761475345967823000,10.857822998046874,-0.0023956578224897385,-0.0034005295019596815,0.0004857575986534357
1761475345977800200,10.86780029296875,0.0000018991995602846146,-0.003012118861079216,-0.0008585816249251366
1761475345987776000,10.87777587890625,0.0006019093561917543,-0.0025255593936890364,0.0005648779333569109
1761475345997752800,10.8877529296875,-0.00029158475808799267,-0.0007085235556587577,-0.0017426065169274807
1761475346007730000,10.89772998046875,0.00016594631597399712,-0.000955931143835187,0.0002936464734375477
1761475346017707000,10.90770703125,0.0004503178643062711,0.0026397984474897385,0.0026866800617426634
