time,seconds_elapsed,z,y,x
1761476307680655400,0.0876552734375,0.009430133737623692,0.09736691415309906,0.008595162071287632
1761476307690688300,0.097688232421875,0.007572046481072903,0.10018640011548996,0.01147324126213789
1761476307700721200,0.10772119140625,0.007880233228206635,0.07711583375930786,0.010146059095859528
1761476307710754000,0.117754150390625,0.007694875821471214,0.03450392186641693,0.0017648255452513695
1761476307720788200,0.127788330078125,0.0075765857473015785,-0.007240240462124348,-0.004227270372211933
1761476307730821000,0.137821044921875,0.009980355389416218,-0.03657842427492142,-0.007603625766932964
1761476307740854000,0.14785400390625,0.01050134003162384,-0.04879240319132805,-0.009116013534367085
1761476307750887200,0.15788720703125,0.005132673308253288,-0.04055897518992424,-0.0015893876552581787
1761476307760921300,0.16792138671875,-0.0012989467941224575,-0.013631625100970268,0.0023565106093883514
1761476307770954200,0.177954345703125,-0.007271351758390665,0.010981043800711632,0.006885216571390629
1761476307780987100,0.187987060546875,-0.008508552797138691,0.0358935184776783,0.009583460167050362
1761476307791020000,0.19802001953125,-0.011084362864494324,0.043271005153656006,0.0046065449714660645
1761476307801054200,0.20805419921875,-0.009409289807081223,0.03228820115327835,-0.001367991790175438
1761476307811087000,0.218087158203125,-0.008301947265863419,0.004648582544177771,-0.002530195750296116
1761476307821120000,0.2281201171875,-0.0047332728281617165,-0.020721621811389923,-0.0017944509163498878
1761476307831153200,0.238153076171875,-0.002690628170967102,-0.03592640534043312,0.0013044029474258423
1761476307841187300,0.248187255859375,-0.00014786887913942337,-0.03435780853033066,0.0025103148072957993
1761476307851220200,0.25822021484375,-0.001674925908446312,-0.01570795848965645,0.000041564926505088806
1761476307861253000,0.268253173828125,0.000008931383490562439,0.0036879777908325195,0.0009194696322083473
1761476307871286300,0.278286376953125,0.0023386646062135696,0.024374080821871758,0.0014491723850369453
1761476307881320200,0.2883203125,0.004516441375017166,0.02587996795773506,0.0017089014872908592
1761476307891353000,0.29835302734375,0.004655991680920124,0.02131051756441593,0.002904128283262253
1761476307901386000,0.308385986328125,0.0030543478205800056,0.00985904410481453,-0.00011565815657377243
1761476307911419100,0.318419189453125,0.005719373002648354,-0.002839440945535898,-0.00011858716607093811
1761476307921453300,0.328453369140625,0.008805031888186932,-0.0032273828983306885,0.003242810256779194
1761476307931486200,0.338486328125,0.008231121115386486,-0.0013650348410010338,0.003111517056822777
1761476307941519000,0.34851904296875,0.007202687673270702,-0.0016196989454329014,0.0010057203471660614
1761476307951552300,0.35855224609375,0.006229301914572716,0.0068904319778084755,0.0016621900722384453
1761476307961586200,0.368586181640625,0.0071042608469724655,0.008031385950744152,0.0008945353329181671
1761476307971619000,0.378619140625,0.003834964707493782,0.00919119268655777,-0.000959557481110096
1761476307981652000,0.38865185546875,0.0006113387644290924,0.010109391994774342,0.0029309550300240517
1761476307991685000,0.39868505859375,-0.003008163534104824,0.00889605563133955,-0.0018504848703742027
1761476308001719300,0.40871923828125,-0.004467411898076534,0.002743687015026808,-0.0024022217839956284
1761476308011752200,0.418752197265625,-0.0060027241706848145,-0.0003445143811404705,-0.00008660275489091873
1761476308021785000,0.42878515625,-0.004852979443967342,-0.005378822796046734,-0.001529894769191742
1761476308031818200,0.438818359375,-0.005655655637383461,-0.009497401304543018,-0.001616448163986206
1761476308041852200,0.44885205078125,-0.007317253854125738,-0.009711980819702148,-0.0013261614367365837
1761476308051885000,0.458885009765625,-0.005258097779005766,-0.010645151138305664,-0.0037088915705680847
1761476308061918000,0.46891796875,-0.00676067266613245,-0.009698815643787384,-0.0028955917805433273
1761476308071951000,0.478951171875,-0.005581158213317394,-0.009585896506905556,-0.002442588098347187
1761476308081985300,0.4889853515625,-0.00467284582555294,-0.005820972379297018,-0.0012705745175480843
1761476308092018200,0.49901806640625,-0.006100833415985107,-0.0008983858861029148,-0.0000990498811006546
1761476308102051000,0.509051025390625,-0.004645192064344883,-0.0011069807223975658,-0.0010338742285966873
1761476308112084200,0.519084228515625,-0.00461270147934556,0.000513286329805851,-0.0032967617735266685
1761476308122118100,0.5291181640625,-0.0032398742623627186,-0.003909333609044552,-0.003539695404469967
1761476308132151000,0.539151123046875,-0.00231469189748168,-0.0056169526651501656,-0.006409517489373684
1761476308142184000,0.549183837890625,-0.0006558205932378769,-0.011059548705816269,-0.0020808177068829536
1761476308152217000,0.559217041015625,0.001011851243674755,-0.007929002866148949,-0.002165505662560463
1761476308162251300,0.569251220703125,0.0034021716564893723,-0.006064469926059246,-0.0046224407851696014
1761476308172284200,0.5792841796875,0.0065391091629862785,-0.0007123150862753391,-0.00020958296954631805
1761476308182317000,0.589317138671875,0.005455009639263153,-0.0005134553648531437,-0.0032304544001817703
1761476308192350200,0.59935009765625,0.004191339947283268,0.0024586322251707315,-0.0031721312552690506
1761476308202384100,0.609384033203125,0.00456475093960762,-0.001860584132373333,-0.002981744706630707
1761476308212417000,0.6194169921875,0.005156239494681358,-0.0027543408796191216,-0.002664562314748764
1761476308222450000,0.629449951171875,0.00411224365234375,-0.006263079587370157,-0.0015209866687655449
1761476308232484000,0.639484130859375,0.0034296754747629166,-0.001963938120752573,-0.0014307061210274696
1761476308242517200,0.649517333984375,0.001994289457798004,0.0033096412662416697,-0.0008395956829190254
1761476308252550100,0.659550048828125,0.0008256947621703148,0.004548809956759214,0.000024333596229553223
1761476308262583000,0.6695830078125,-0.0011112331412732601,0.003992031328380108,-0.0003581894561648369
1761476308272617200,0.6796171875,-0.0007125576958060265,0.0009791972115635872,-0.0007198462262749672
1761476308282650000,0.689650146484375,-0.0013722698204219341,-0.004035220015794039,0.000017803162336349487
1761476308292683000,0.69968310546875,-0.0021174224093556404,-0.008767124265432358,-0.0028722593560814857
1761476308302716000,0.7097158203125,-0.0016161217354238033,-0.011247565969824791,-0.0014508236199617386
1761476308312750000,0.71975,-0.003032923210412264,-0.009028621017932892,-0.0025981133803725243
1761476308322783200,0.729783203125,-0.0029203183948993683,-0.004547927062958479,-0.0018359776586294174
1761476308332816100,0.739816162109375,-0.0020374804735183716,0.002036738209426403,0.0017449092119932175
1761476308342849000,0.74984912109375,-0.002015052828937769,0.011294811964035034,0.0019855303689837456
1761476308352883200,0.75988330078125,-0.0023889606818556786,0.012282578274607658,0.00132053904235363
1761476308362916400,0.769916259765625,-0.0049897669814527035,0.01728152483701706,0.0009913956746459007
1761476308372949200,0.77994921875,-0.0018616179004311562,0.017430396750569344,-0.0026629939675331116
1761476308382983200,0.789983154296875,-0.0028295647352933884,0.0071630943566560745,-0.0040182750672101974
1761476308393016000,0.80001611328125,-0.00226790364831686,-0.0005339737981557846,-0.0030542099848389626
1761476308403049200,0.81004931640625,-0.00315150897949934,-0.010040673427283764,0.0020288871601223946
1761476308413082000,0.82008203125,0.00014947913587093353,-0.020959101617336273,0.003318656235933304
1761476308423116300,0.8301162109375,-0.00005106627941131592,-0.020726123824715614,0.0033582653850317
1761476308433149200,0.840149169921875,0.0017779935151338577,-0.017424071207642555,0.0015614312142133713
1761476308443182300,0.850182373046875,0.0024369144812226295,-0.015432469546794891,-0.0015499219298362732
1761476308453216000,0.860216064453125,0.0000051818788051605225,-0.01151549257338047,-0.0007677515968680382
1761476308463249200,0.870249267578125,0.0006883228197693825,-0.008160975761711597,0.000015951693058013916
1761476308473281300,0.88028125,-0.000748718623071909,-0.000829826109111309,0.0025534117594361305
1761476308483314400,0.890314453125,-0.0029460014775395393,0.004198338836431503,0.0010727569460868835
1761476308493348400,0.900348388671875,-0.0012208055704832077,0.009479653090238571,0.004195312969386578
1761476308503381500,0.910381591796875,-0.001054455991834402,0.010768730193376541,0.0016305586323142052
1761476308513414400,0.920414306640625,-0.000045384280383586884,0.009450199082493782,0.0010523870587348938
1761476308523448600,0.930448486328125,0.0018942682072520256,0.009495454840362072,0.002111058682203293
1761476308533481500,0.9404814453125,0.005321756936609745,0.006585418712347746,0.0032423697412014008
1761476308543514400,0.950514404296875,0.0025480687618255615,0.007432263810187578,0.0032335156574845314
1761476308553548500,0.960548583984375,0.0028311628848314285,0.007694052532315254,0.002359732985496521
1761476308563581400,0.97058154296875,0.002842503599822521,0.006883406545966864,0.0036561600863933563
1761476308573614300,0.9806142578125,0.0010888120159506798,0.004855941981077194,0.0011764904484152794
1761476308583647500,0.9906474609375,0.0013981247320771217,0.0013334378600120544,-0.0015571145340800285
1761476308593681700,1.000681640625,0.0007232800126075745,-0.007053122390061617,-0.001975497230887413
1761476308603714600,1.010714599609375,-0.0007415637373924255,-0.0030692387372255325,-0.0010079052299261093
1761476308613747500,1.02074755859375,0.002535189501941204,0.0018727891147136688,-0.0014356086030602455
1761476308623781400,1.030781494140625,0.00011132657527923584,0.006055224686861038,-0.0005766004323959351
1761476308633814500,1.040814453125,0.00010253861546516418,0.01000575814396143,0.0005909297615289688
1761476308643847400,1.050847412109375,0.0022347699850797653,0.010147642344236374,0.0023623965680599213
1761476308653881600,1.060881591796875,-0.0018388009630143642,0.007588611450046301,0.001293669454753399
1761476308663914500,1.07091455078125,-0.0003753993660211563,0.005223682150244713,-0.0002488996833562851
1761476308673947600,1.08094775390625,0.00012926943600177765,-0.0023825722746551037,-0.0030510779470205307
1761476308683980500,1.09098046875,-0.0003610244020819664,-0.005527276545763016,-0.0017872108146548271
1761476308694014500,1.101014404296875,-0.004057758487761021,-0.0034742457792162895,0.0007366668432950974
1761476308704047400,1.11104736328125,-0.0006657671183347702,0.001145312562584877,-0.0009204251691699028
1761476308714080500,1.12108056640625,-0.0006204936653375626,0.005347780417650938,0.0005339272320270538
1761476308724114400,1.131114501953125,-0.00220694113522768,0.013436028733849525,0.0007120305672287941
1761476308734147600,1.141147705078125,-0.0012972052209079266,0.014831792563199997,-0.0006709489971399307
1761476308744180500,1.151180419921875,0.0009620599448680878,0.012695875950157642,0.00005869101732969284
1761476308754214400,1.16121435546875,0.0037972619757056236,0.0038733556866645813,-0.0020561255514621735
1761476308764247300,1.171247314453125,0.0024183345958590508,0.0016228770837187767,-0.0023795049637556076
1761476308774280400,1.181280517578125,0.004311042837798595,-0.0006408095359802246,-0.0027582067996263504
1761476308784313300,1.191313232421875,0.004671897739171982,-0.0005548265762627125,-0.0031209923326969147
1761476308794347500,1.201347412109375,0.007026132196187973,0.0050711012445390224,-0.0029175272211432457
1761476308804380400,1.21138037109375,0.004977204836905003,0.0054945205338299274,-0.003087972290813923
1761476308814413600,1.22141357421875,0.00679667666554451,0.004362677223980427,-0.002475445158779621
1761476308824447500,1.231447509765625,0.007838764227926731,-0.0005320231430232525,-0.001642267219722271
1761476308834480600,1.241480712890625,0.006455519236624241,-0.006355024874210358,0.0005532428622245789
1761476308844513500,1.251513427734375,0.007808202877640724,-0.008216873742640018,-0.00528675178065896
1761476308854547500,1.26154736328125,0.005687261000275612,-0.010506660677492619,-0.0015641851350665092
1761476308864580400,1.271580322265625,0.004309556446969509,-0.00698681129142642,0.0013567591086030006
1761476308874613500,1.281613525390625,0.0029468173161149025,0.001992302481085062,-0.0008992040529847145
1761476308884647400,1.2916474609375,0.0018802192062139511,0.010392144322395325,0.0019252849742770195
1761476308894680600,1.3016806640625,0.0012309402227401733,0.009259502403438091,0.0005524251610040665
1761476308904713500,1.31171337890625,-0.003236036282032728,0.007977567613124847,0.0016971258446574211
1761476308914746600,1.32174658203125,-0.0046997093595564365,-0.0007775747217237949,0.001738404855132103
1761476308924780300,1.3317802734375,-0.006344640627503395,-0.006451536901295185,-0.0013219602406024933
1761476308934813400,1.3418134765625,-0.006310286000370979,-0.007320526987314224,0.0011039134114980698
1761476308944846300,1.351846435546875,-0.005325229838490486,-0.004521325696259737,0.0009217448532581329
1761476308954880500,1.361880615234375,-0.007164941634982824,0.003410366829484701,0.0026746373623609543
1761476308964913400,1.371913330078125,-0.005285812541842461,0.007494425866752863,0.0011858418583869934
1761476308974946600,1.381946533203125,-0.0037156129255890846,0.008568212389945984,0.003132346086204052
1761476308984980500,1.39198046875,-0.0052160900086164474,0.0063332002609968185,-0.0016227997839450836
1761476308995013400,1.402013427734375,-0.005480275489389896,0.0019890516996383667,-0.001364738680422306
1761476309005046300,1.41204638671875,-0.004617952276021242,-0.0032277200371026993,-0.001782354898750782
1761476309015080400,1.42208056640625,-0.001175816636532545,-0.00801208894699812,-0.0005612950772047043
1761476309025113600,1.432113525390625,-0.0029432433657348156,-0.004285415168851614,-0.00033948756754398346
1761476309035146500,1.442146484375,0.0014656195417046547,-0.0001228945329785347,-0.0011083418503403664
1761476309045180700,1.4521806640625,0.0012680627405643463,0.005249751731753349,-0.0017113881185650826
1761476309055213600,1.462213623046875,0.003241465426981449,0.009809349663555622,-0.0008381372317671776
1761476309065246500,1.47224658203125,0.003372759558260441,0.01487894356250763,-0.0012538572773337364
1761476309075280400,1.4822802734375,0.004770386032760143,0.011441867798566818,-0.002454410307109356
1761476309085313500,1.4923134765625,0.001950048841536045,0.00399059196934104,0.0005893651396036148
1761476309095346400,1.502346435546875,0.004218263551592827,-0.0077358391135931015,0.0035047270357608795
1761476309105380600,1.512380615234375,0.002808172255754471,-0.01820824295282364,0.0014003301039338112
1761476309115413500,1.52241357421875,0.003910454921424389,-0.019864995032548904,0.001262112520635128
1761476309125446700,1.53244677734375,0.0007241955026984215,-0.018295476213097572,0.0003090491518378258
1761476309135480300,1.542480224609375,0.0020547108724713326,-0.0152131337672472,-0.0008062832057476044
1761476309145513500,1.552513427734375,-0.0010237428359687328,-0.013330582529306412,-0.0006284918636083603
1761476309155546400,1.56254638671875,-0.001249578781425953,-0.0075339446775615215,-0.0003933347761631012
1761476309165580500,1.57258056640625,-0.0036225616931915283,-0.0031846431083977222,-0.0008550025522708893
1761476309175613400,1.582613525390625,-0.0034683644771575928,0.0026668542996048927,-0.002056088298559189
1761476309185646600,1.592646484375,-0.003078591078519821,0.006214657798409462,-0.0011758394539356232
1761476309195679500,1.602679443359375,-0.0023720543831586838,0.008992867544293404,-0.001765197142958641
1761476309205713400,1.61271337890625,-0.0028113098815083504,0.013064518570899963,0.001504478044807911
1761476309215746300,1.622746337890625,-0.004476584494113922,0.01349195558577776,0.0002519935369491577
1761476309225779500,1.632779541015625,-0.0005014985799789429,0.012338955886662006,0.0011014603078365326
1761476309235813400,1.6428134765625,0.0006436612457036972,0.003063964657485485,-0.001670357771217823
1761476309245846500,1.652846435546875,-0.0033279121853411198,-0.0026370356790721416,-0.0013171695172786713
1761476309255879400,1.66287939453125,-0.0009534377604722977,-0.007519941311329603,-0.0008724220097064972
1761476309265913600,1.67291357421875,0.0010654516518115997,-0.009699590504169464,-0.002329830080270767
1761476309275946500,1.682946533203125,0.0025256630033254623,-0.0031737806275486946,-0.001822497695684433
1761476309285979400,1.6929794921875,0.0013534482568502426,-0.0015590228140354156,-0.0018848404288291931
1761476309296013300,1.703013427734375,0.004802773706614971,0.004876771941781044,0.0011887140572071075
1761476309306046500,1.71304638671875,-0.00016972050070762634,0.014127949252724648,0.0020667267963290215
1761476309316079400,1.723079345703125,-0.000799025408923626,0.014938082545995712,-0.0005399752408266068
1761476309326113500,1.733113525390625,-0.0023348722606897354,0.011119671165943146,-0.00009623635560274124
1761476309336146400,1.743146484375,-0.002167359460145235,0.004580012988299131,-0.0008813366293907166
1761476309346179600,1.7531796875,0.000050785019993782043,-0.0004908842965960503,0.0009293993934988976
1761476309356213500,1.763213623046875,0.0018572071567177773,-0.009915279224514961,-0.0008021881803870201
1761476309366246400,1.773246337890625,0.0016581667587161064,-0.011803220957517624,-0.0007410356774926186
1761476309376279300,1.783279296875,0.0004272535443305969,-0.00549472589045763,-0.00038763415068387985
1761476309386313500,1.7933134765625,0.00037478748708963394,-0.0008253459818661213,0.0006359294056892395
1761476309396346600,1.8033466796875,-0.0010875537991523743,0.0020719068124890327,0.0008561732247471809
1761476309406379500,1.813379638671875,0.0018146391957998276,0.0032779485918581486,-0.0017851442098617554
1761476309416413400,1.823413330078125,0.0011658938601613045,0.00506040221080184,-0.0013087047263979912
1761476309426446300,1.8334462890625,-0.0011871648021042347,0.0018232474103569984,-0.0020702164620161057
1761476309436479500,1.8434794921875,0.0007766503840684891,0.006818804889917374,0.0013878988102078438
1761476309446513400,1.853513427734375,-0.000037097372114658356,0.0016334913671016693,-0.0033258525654673576
1761476309456546600,1.863546630859375,-0.0008192672394216061,0.0004574395716190338,-0.003080841153860092
1761476309466579500,1.873579345703125,-0.00047934241592884064,0.0003175931051373482,0.0007399851456284523
1761476309476614100,1.8836142578125,-0.0017898846417665482,-0.0024118805304169655,-0.0014824224635958672
1761476309486647300,1.893647216796875,-0.002739842515438795,-0.005670979153364897,-0.0028388816863298416
1761476309496680200,1.90368017578125,-0.0004721609875559807,-0.010082239285111427,-0.0014561684802174568
1761476309506714400,1.91371435546875,0.0014908136799931526,-0.010574113577604294,-0.002114095725119114
1761476309516747300,1.923747314453125,0.0028242580592632294,-0.009282214567065239,0.0014529423788189888
1761476309526780400,1.933780517578125,0.0018417583778500557,-0.006199876312166452,-0.000031150877475738525
1761476309536814300,1.943814453125,0.002247890457510948,0.0008396576158702374,0.001778733916580677
1761476309546847200,1.95384716796875,-0.00014826934784650803,0.005176192615181208,-0.0003910427913069725
1761476309556880100,1.963880126953125,-0.0005506733432412148,0.004865135066211224,0.0013730349019169807
1761476309566914300,1.973914306640625,0.0007074717432260513,0.002258653985336423,0.0002814820036292076
1761476309576947500,1.983947509765625,0.0006651272997260094,-0.0027843075804412365,0.00023833848536014557
1761476309586980400,1.99398046875,-0.001029514241963625,-0.007216538302600384,0.00014110561460256577
1761476309597014500,2.0040146484375,-0.0016385791823267937,-0.009336680173873901,0.001478279009461403
1761476309607047400,2.01404736328125,-0.0008608126081526279,-0.0025287633761763573,-0.000973481684923172
1761476309617080600,2.02408056640625,-0.0012783962301909924,0.00419571902602911,0.00002174079418182373
1761476309627114200,2.0341142578125,-0.0006514959968626499,0.006410484202206135,0.00023947842419147491
1761476309637147400,2.0441474609375,0.00016476307064294815,0.008573237806558609,-0.0017134174704551697
1761476309647180300,2.05418017578125,0.0017236210405826569,0.007063141092658043,0.001664954237639904
1761476309657214500,2.06421435546875,0.0025537284091115,0.0007349378429353237,0.001695847138762474
1761476309667247400,2.074247314453125,0.0004039071500301361,-0.006968123372644186,0.0005088252946734428
1761476309677280500,2.084280517578125,0.0019245725125074387,-0.007102346513420343,-0.0006376653909683228
1761476309687314200,2.094314208984375,0.0017696833238005638,-0.004433384630829096,0.000262686051428318
1761476309697347300,2.104347412109375,0.0014375867322087288,0.0030386466532945633,-0.0006385277956724167
1761476309707380200,2.114380126953125,0.002128097228705883,0.01145888864994049,0.00043508224189281464
1761476309717414400,2.124414306640625,0.0014045163989067078,0.018028907477855682,0.0018766513094305992
1761476309727447300,2.134447265625,-0.0031940098851919174,0.012461932376027107,0.00004416424781084061
1761476309737480400,2.14448046875,-0.00334634305909276,-0.0023630866780877113,0.0045656803995370865
1761476309747514400,2.154514404296875,-0.0025841519236564636,-0.01765463873744011,0.002570010721683502
1761476309757547300,2.16454736328125,-0.004765014164149761,-0.027928847819566727,0.0018749255686998367
1761476309767580200,2.174580078125,-0.004974823445081711,-0.030050447210669518,-0.0009758099913597107
1761476309777614300,2.1846142578125,0.00006121397018432617,-0.024721726775169373,-0.0019611790776252747
1761476309787647200,2.194647216796875,-0.00004431977868080139,-0.014074703678488731,0.0001055002212524414
1761476309797680400,2.204680419921875,-0.0017058658413589,0.0018515316769480705,0.006285632029175758
1761476309807714300,2.21471435546875,-0.001025955192744732,0.011165916919708252,0.0061164740473032
1761476309817747500,2.22474755859375,-0.0027948268689215183,0.01680302992463112,0.0028591621667146683
1761476309827780400,2.2347802734375,-0.0034687547013163567,0.01871374621987343,0.0018493970856070518
1761476309837814300,2.244814208984375,-0.003347314428538084,0.010102149099111557,0.00035776104778051376
1761476309847847200,2.25484716796875,-0.0015656384639441967,0.0030111679807305336,0.0046689799055457115
1761476309857881300,2.26488134765625,-0.001274022739380598,-0.002975618001073599,0.0017940979450941086
1761476309867914500,2.27491455078125,-0.0005896156653761864,-0.008446212857961655,0.0009237322956323624
1761476309877947400,2.284947509765625,0.0015198737382888794,-0.001732650212943554,0.003742421977221966
1761476309887981300,2.294981201171875,-0.0010507595725357533,0.0020795604214072227,0.0024892427027225494
1761476309898014200,2.30501416015625,-0.0009919037111103535,0.00648842379450798,0.0019331742078065872
1761476309908047400,2.31504736328125,0.0011788131669163704,0.006315694190561771,0.0004018312320113182
1761476309918081300,2.325081298828125,0.002643285319209099,0.0015257326886057854,-0.0003465162590146065
1761476309928114400,2.335114501953125,0.002698649652302265,-0.002774409018456936,-0.0015167612582445145
1761476309938147300,2.345147216796875,0.004155399277806282,-0.004769648425281048,-0.0015455232933163643
1761476309948181500,2.355181396484375,0.004592486657202244,0.0008208989165723324,-0.001974053680896759
1761476309958214400,2.36521435546875,-0.0018651466816663742,0.005746148992329836,0.0002691270783543587
1761476309968247300,2.375247314453125,-0.00046535301953554153,0.009040161035954952,0.002754184417426586
1761476309978281200,2.38528125,-0.003089099656790495,0.01101462822407484,-0.001169450581073761
1761476309988314400,2.395314453125,-0.0017176787368953228,0.006804760545492172,0.0010032206773757935
1761476309998347300,2.40534716796875,-0.0019693472422659397,-0.0010433085262775421,0.0007499540224671364
1761476310008381400,2.41538134765625,0.00027356017380952835,-0.01162375882267952,0.0016552098095417023
1761476310018414300,2.425414306640625,0.001720988191664219,-0.014167610555887222,0.0031047677621245384
1761476310028447500,2.435447509765625,-0.0013748230412602425,-0.0101034389808774,0.000869198702275753
1761476310038481200,2.445481201171875,-0.0015063830651342869,-0.004287894815206528,-0.0008778348565101624
1761476310048514300,2.455514404296875,0.0012130606919527054,0.008011918514966965,0.004014205187559128
1761476310058547200,2.465547119140625,-0.0014263982884585857,0.014939332380890846,0.0021214960142970085
1761476310068581400,2.475581298828125,0.0010694144293665886,0.01505681499838829,0.0010879402980208397
1761476310078614300,2.4856142578125,0.001210828311741352,0.013336414471268654,0.0017220387235283852
1761476310088648200,2.495648193359375,-0.0017218790017068386,0.00873988401144743,0.0022678067907691
1761476310098681300,2.505681396484375,0.0006592534482479095,0.004875637125223875,-0.0006986884400248528
1761476310108714200,2.51571435546875,-0.002526102587580681,-0.0034934966824948788,-0.0018486138433218002
1761476310118748400,2.52574853515625,-0.0029135923832654953,-0.004439185839146376,-0.0031213387846946716
1761476310128781300,2.53578125,-0.0013564536347985268,-0.006905760616064072,-0.0018971888348460197
1761476310138814500,2.545814453125,-0.004475547932088375,-0.004636215046048164,-0.0020026499405503273
1761476310148848400,2.555848388671875,-0.0019231438636779785,-0.0031185741536319256,-0.004364877939224243
1761476310158881500,2.565881591796875,-0.00012657511979341507,-0.006201715674251318,0.00027008727192878723
1761476310168914400,2.57591455078125,0.0010114433243870735,-0.009932423941791058,-0.0032632704824209213
1761476310178948400,2.5859482421875,0.00207404512912035,-0.01415486540645361,-0.0019442066550254822
1761476310188981200,2.595981201171875,0.00607720110565424,-0.012354512698948383,0.001092657446861267
1761476310199014400,2.606014404296875,0.0010462235659360886,-0.008389065973460674,0.001634344458580017
1761476310209048300,2.61604833984375,0.0002609807997941971,0.0020222030580043793,0.002543661743402481
1761476310219081500,2.62608154296875,0.0008612573146820068,0.009143229573965073,0.0037620579823851585
1761476310229114400,2.6361142578125,-0.00041923578828573227,0.011914113536477089,0.00035543739795684814
1761476310239148300,2.646148193359375,-0.001832309179008007,0.016030028462409973,0.0013730311766266823
1761476310249181200,2.65618115234375,-0.001636567059904337,0.02142692543566227,0.003477460704743862
1761476310259214300,2.66621435546875,-0.0049101244658231735,0.016950152814388275,-0.0008869273588061333
1761476310269248300,2.676248291015625,-0.008553051389753819,0.014722107909619808,-0.001143219880759716
1761476310279281400,2.686281494140625,-0.006479513831436634,0.010330822318792343,-0.0006281640380620956
1761476310289315300,2.6963154296875,-0.005242290906608105,0.0062990495935082436,-0.0024962620809674263
1761476310299348500,2.706348388671875,-0.004561853129416704,0.0028345431201159954,-0.002343396656215191
1761476310309381000,2.716381103515625,-0.0013258205726742744,-0.003202657215297222,-0.002225073054432869
1761476310319415300,2.726415283203125,0.000969558022916317,-0.008110863156616688,-0.00022929999977350235
1761476310329448200,2.7364482421875,-0.0007121455855667591,-0.012346597388386726,-0.0036721108481287956
1761476310339481300,2.7464814453125,0.001583498902618885,-0.014548765495419502,-0.00019242428243160248
1761476310349515500,2.756515625,-0.0011019115336239338,-0.023036088794469833,0.0011515198275446892
1761476310359548400,2.76654833984375,0.0005463194102048874,-0.023898951709270477,0.006516191177070141
1761476310369581600,2.77658154296875,-0.00039424654096364975,-0.027180161327123642,0.00010652467608451843
1761476310379615200,2.786615234375,-0.0007061031647026539,-0.02342883124947548,-0.00087724719196558
1761476310389648400,2.7966484375,0.000983797013759613,-0.023737339302897453,0.000720675103366375
1761476310399681300,2.806681396484375,-0.0003352668136358261,-0.01981210522353649,0.0034128641709685326
1761476310409715500,2.816715576171875,-0.0022471845149993896,-0.014622019603848457,0.004775657318532467
1761476310419748400,2.826748291015625,-0.0028088451363146305,-0.009425660595297813,0.0002253800630569458
1761476310429782300,2.8367822265625,0.002644825726747513,-0.004863285459578037,0.004158727824687958
1761476310439815200,2.846815185546875,0.005759924650192261,-0.001241919118911028,0.00022843480110168457
1761476310449848300,2.856848388671875,0.004367592744529247,-0.002188339363783598,0.000031002797186374664
1761476310459882200,2.86688232421875,0.005566014908254147,-0.004689580295234919,-0.0012747449800372124
1761476310469915400,2.876915283203125,0.010388593189418316,-0.006718731485307217,-0.00030869804322719574
1761476310479948300,2.8869482421875,0.01094945427030325,-0.006527516059577465,-0.002029898576438427
1761476310489982500,2.896982421875,0.011045310646295547,-0.004432108253240585,0.001226966269314289
1761476310500015400,2.907015380859375,0.010181114077568054,-0.002443259581923485,0.0005763564258813858
1761476310510048500,2.917048583984375,0.006906983442604542,-0.0017698751762509346,0.00010640919208526611
1761476310520082200,2.927082275390625,0.007192741148173809,0.002762558637186885,0.0003021508455276489
1761476310530115300,2.937115234375,0.0037386035546660423,0.006080355495214462,-0.000044774264097213745
1761476310540148200,2.947148193359375,0.000001389533281326294,0.011050879955291748,-0.00013372395187616348
1761476310550182400,2.957182373046875,-0.003485428635030985,0.012486953288316727,0.002111402340233326
1761476310560215300,2.96721533203125,-0.003998087253421545,0.012890156358480453,0.0007140412926673889
1761476310570249200,2.977249267578125,-0.010650813579559326,0.011735604144632816,0.0006454959511756897
1761476310580282400,2.987282470703125,-0.009881692938506603,0.004593804944306612,0.0030830875039100647
1761476310590315300,2.997315185546875,-0.01485876552760601,0.0023660140577703714,-0.0002909349277615547
1761476310600349400,3.007349365234375,-0.017650555819272995,-0.004317987710237503,-0.004225222393870354
1761476310610382300,3.01738232421875,-0.01853035017848015,-0.008792173117399216,-0.002397068776190281
1761476310620415500,3.02741552734375,-0.018970303237438202,-0.01122550293803215,-0.004473002627491951
1761476310630449400,3.037449462890625,-0.019159603863954544,-0.010951614938676357,-0.003169526346027851
1761476310640482300,3.047482421875,-0.020415816456079483,-0.00952229741960764,-0.0025780387222766876
1761476310650515200,3.05751513671875,-0.019302504137158394,-0.003580122720450163,-0.0018043862655758858
1761476310660549400,3.06754931640625,-0.018093163147568703,-0.00037128012627363205,-0.001209968701004982
1761476310670582300,3.077582275390625,-0.014956827275454998,0.0010143625549972057,-0.0021256674081087112
1761476310680616400,3.087616455078125,-0.016577361151576042,-0.002222709823399782,-0.0023373886942863464
1761476310690649300,3.0976494140625,-0.015761619433760643,-0.005652094725519419,-0.004221396520733833
1761476310700682500,3.1076826171875,-0.012667291797697544,-0.012935575097799301,-0.008849703706800938
1761476310710716200,3.117716064453125,-0.010271462611854076,-0.017019152641296387,-0.0035309800878167152
1761476310720749300,3.127749267578125,-0.008193131536245346,-0.02245439775288105,-0.007035700138658285
1761476310730782200,3.1377822265625,-0.005251025781035423,-0.020341580733656883,-0.006156319752335548
1761476310740816400,3.14781640625,-0.0007974216714501381,-0.013773426413536072,-0.004563482943922281
1761476310750849300,3.157849365234375,0.00023277755826711655,-0.007174857426434755,-0.004093211144208908
1761476310760882400,3.16788232421875,0.0016429219394922256,-0.001902064774185419,-0.0017416393384337425
1761476310770916000,3.177916015625,0.0032371599227190018,-0.00028499355539679527,-0.0018600467592477798
1761476310780949200,3.18794921875,0.00518339779227972,-0.0047633652575314045,-0.002992156893014908
1761476310790983400,3.1979833984375,0.005820238031446934,-0.00916975922882557,-0.00026800762861967087
1761476310801016300,3.208016357421875,0.008360893465578556,-0.014901415444910526,-0.002869916148483753
1761476310811049200,3.21804931640625,0.009062724187970161,-0.016803206875920296,-0.001971079036593437
1761476310821083400,3.22808349609375,0.011320551857352257,-0.016683897003531456,-0.00436739157885313
1761476310831116500,3.238116455078125,0.013659617863595486,-0.008995630778372288,-0.002917073667049408
1761476310841149400,3.2481494140625,0.01618322730064392,-0.0015262626111507416,0.0030950121581554413
1761476310851183400,3.258183349609375,0.012261616066098213,0.005784436594694853,-0.0017257807776331902
1761476310861216300,3.26821630859375,0.010503396391868591,0.009899552911520004,-0.001322045922279358
1761476310871250400,3.27825048828125,0.011575347743928432,0.003635668894276023,0.0006108125671744347
1761476310881283300,3.288283447265625,0.009713797830045223,-0.0045663341879844666,-0.0026094820350408554
1761476310891316500,3.29831640625,0.01059417799115181,-0.013336224481463432,0.0018973005935549736
1761476310901350100,3.30835009765625,0.009001873433589935,-0.01746518909931183,0.003554852679371834
1761476310911383300,3.31838330078125,0.0047408584505319595,-0.008903177455067635,0.003869744949042797
1761476310921416200,3.328416259765625,0.0038939733058214188,0.0008991197682917118,0.003202623687684536
1761476310931450400,3.338450439453125,0.0002788202837109566,0.011351199820637703,0.0017605423927307129
1761476310941483300,3.348483154296875,-0.004198751877993345,0.016878323629498482,0.0013956893235445023
1761476310951516400,3.358516357421875,-0.006731185596436262,0.01749434880912304,0.0034789294004440308
1761476310961550300,3.36855029296875,-0.006223320960998535,0.006941039580851793,0.006652086973190308
1761476310971583500,3.37858349609375,-0.0076904320158064365,-0.0053465417586266994,0.005249589681625366
1761476310981617400,3.388617431640625,-0.010465179570019245,-0.022192366421222687,0.0019541941583156586
1761476310991650300,3.398650390625,-0.0053468202240765095,-0.023491231724619865,-0.003059063106775284
1761476311001683200,3.40868310546875,-0.008004921488463879,-0.023529579862952232,-0.0010206792503595352
1761476311011717400,3.41871728515625,-0.005483993329107761,-0.01893346942961216,0.001972530037164688
1761476311021750500,3.42875048828125,-0.004711410496383905,-0.004864522255957127,0.002542979083955288
1761476311031783400,3.438783447265625,-0.007184370420873165,0.005950839724391699,0.0025492338463664055
1761476311041817300,3.4488173828125,-0.007519662380218506,0.01547829806804657,0.00012043118476867676
1761476311051850200,3.458850341796875,-0.00454825721681118,0.01967921294271946,0.0037978803738951683
1761476311061884400,3.468884521484375,-0.003947714809328318,0.015543590299785137,0.0022505847737193108
1761476311071917300,3.478917236328125,-0.0036890124902129173,0.015083872713148594,0.003212191164493561
1761476311081950500,3.488950439453125,-0.0010692612268030643,0.017161671072244644,0.002889948897063732
1761476311091984400,3.498984375,-0.0011050659231841564,0.013114001601934433,0.003970494493842125
1761476311102017300,3.509017333984375,0.0011295927688479424,0.009771468117833138,0.0022202646359801292
1761476311112050200,3.51905029296875,0.003656545653939247,0.008554554544389248,0.000739317387342453
1761476311122084400,3.52908447265625,0.0021878117695450783,0.006702592596411705,0.0012471824884414673
1761476311132117200,3.5391171875,0.004450228996574879,0.001783483661711216,0.0015008626505732536
1761476311142151400,3.5491513671875,0.003160727210342884,0.003925730474293232,-0.000662689097225666
1761476311152184300,3.559184326171875,0.002428963780403137,0.005482858046889305,-0.00046396534889936447
1761476311162217500,3.569217529296875,0.005219423212110996,0.006274083163589239,-0.0003198878839612007
1761476311172251100,3.579251220703125,0.0026751328259706497,0.009544510394334793,-0.000115920789539814
1761476311182284300,3.5892841796875,0.0026690075173974037,0.01607884280383587,0.0009091300889849663
1761476311192317200,3.599317138671875,0.0025934623554348946,0.011042241007089615,0.00160316564142704
1761476311202351400,3.609351318359375,0.0010514920577406883,0.011394577100872993,-0.0005121827125549316
1761476311212384300,3.61938427734375,0.003758837468922138,0.004935900215059519,-0.0002929298207163811
1761476311222418400,3.62941845703125,0.0033849291503429413,0.0010229176841676235,-0.0008386112749576569
1761476311232451300,3.639451416015625,0.004384171217679977,-0.004463928751647472,-0.0022566141560673714
1761476311242484200,3.649484130859375,0.004417726770043373,-0.006937206722795963,0.0003231903538107872
1761476311252518400,3.659518310546875,0.00536548625677824,-0.005743496585637331,-0.00209151953458786
1761476311262551300,3.66955126953125,0.0036346977576613426,0.0009362436830997467,-0.0003410233184695244
1761476311272584400,3.67958447265625,0.0037694042548537254,0.006198007147759199,0.004202206619083881
1761476311282618400,3.689618408203125,0.001234607771039009,0.013640210032463074,-0.00016431231051683426
1761476311292651500,3.699651611328125,-0.0015644519589841366,0.01739555224776268,0.0038977498188614845
1761476311302685200,3.709685302734375,-0.003021201118826866,0.009145611897110939,0.00034429412335157394
1761476311312718300,3.71971826171875,0.0002818498760461807,0.0026415542233735323,-0.0032358355820178986
1761476311322751200,3.729751220703125,-0.0021253814920783043,-0.007328255567699671,-0.004920018836855888
1761476311332785400,3.739785400390625,-0.0010663634166121483,-0.010834505781531334,-0.0033862050622701645
1761476311342818300,3.749818359375,-0.0012812805362045765,-0.013208447024226189,-0.003400052897632122
1761476311352851500,3.7598515625,0.001852857880294323,-0.0072374544106423855,-0.004798352252691984
1761476311362885000,3.769885009765625,-0.0008012484759092331,-0.002124450635164976,-0.004761600401252508
1761476311372918300,3.779918212890625,0.00036666635423898697,0.004172789864242077,-0.0018953438848257065
1761476311382952400,3.789952392578125,0.0032740384340286255,0.0026039215736091137,-0.0015123812481760979
1761476311392985300,3.7999853515625,0.001141093671321869,-0.001004901248961687,-0.0003873798996210098
1761476311403018200,3.810018310546875,0.0019504278898239136,-0.003443824127316475,0.00009997840970754623
1761476311413052400,3.820052490234375,0.0016254615038633347,-0.006786723621189594,-0.0013403426855802536
1761476311423085600,3.83008544921875,-0.0009998823516070843,-0.002585853450000286,-0.001024492084980011
1761476311433118500,3.840118408203125,-0.001955314539372921,0.0016059065237641335,-0.000046372413635253906
1761476311443152400,3.85015234375,-0.0008423794060945511,0.007078436203300953,-0.0010328078642487526
1761476311453185300,3.860185302734375,-0.0014104223810136318,0.012518196366727352,0.002002091147005558
1761476311463219500,3.870219482421875,-0.0017206808552145958,0.011842818930745125,0.00032030511647462845
1761476311473251600,3.88025146484375,-0.0019030915573239326,0.005004232749342918,-0.0006499132141470909
1761476311483284500,3.890284423828125,-0.003638673573732376,-0.00038600480183959007,-0.0018291613087058067
1761476311493318700,3.900318603515625,-0.001541276928037405,-0.0080284234136343,-0.0016599902883172035
1761476311503351800,3.910351806640625,0.0015927311033010483,-0.012062846682965755,-0.002890104427933693
1761476311513384700,3.920384765625,-0.000535888597369194,-0.009449265897274017,-0.0019589513540267944
1761476311523418600,3.930418701171875,-0.0008179172873497009,-0.009130485355854034,-0.0018316525965929031
1761476311533451500,3.940451416015625,0.0017895493656396866,-0.0030150325037539005,0.003732074983417988
1761476311543485700,3.950485595703125,0.00030244048684835434,0.002094508148729801,0.001709669828414917
1761476311553518600,3.9605185546875,0.0012109177187085152,0.005941799376159906,0.0008124969899654388
1761476311563551700,3.9705517578125,0.0008615106344223022,0.013865768909454346,0.0018133129924535751
1761476311573585400,3.98058544921875,-0.0007393271662294865,0.015314093790948391,-0.0021596113219857216
1761476311583618600,3.99061865234375,-0.000023202970623970032,0.01564166322350502,-0.001205134205520153
1761476311593648600,4.000648681640625,-0.0006864769384264946,0.0054316334426403046,-0.0021103788167238235
1761476311603681500,4.010681640625,-0.0029075532220304012,-0.012315139174461365,-0.000669342465698719
1761476311613715700,4.0207158203125,-0.00091217877343297,-0.02709282748401165,0.0023225853219628334
1761476311623748600,4.03074853515625,-0.00047542061656713486,-0.030000997707247734,0.0038818661123514175
1761476311633781800,4.04078173828125,0.0013044923543930054,-0.02707744762301445,-0.004216373898088932
1761476311643815400,4.0508154296875,0.00017824117094278336,-0.020776940509676933,0.0013650795444846153
1761476311653848600,4.0608486328125,0.0018406454473733902,-0.008679698221385479,0.00048179179430007935
1761476311663882500,4.070882568359375,-0.0012664645910263062,-0.00215868279337883,0.0007369229570031166
1761476311673915600,4.08091552734375,-0.0029804138466715813,0.00010206038132309914,0.00014872103929519653
1761476311683948500,4.090948486328125,0.0005922168493270874,-0.004157133400440216,-0.004127782769501209
1761476311693982700,4.100982666015625,-0.0008944687433540821,-0.00395190017297864,-0.0030182553455233574
1761476311704015600,4.111015625,-0.0014247037470340729,-0.006039019208401442,-0.004067274741828442
1761476311714049500,4.121049560546875,0.0006727054715156555,-0.00046961894258856773,0.000894756056368351
1761476311724082700,4.131082763671875,0.002930799499154091,0.009483412839472294,0.00284392386674881
1761476311734115600,4.141115478515625,0.0013608410954475403,0.016971293836832047,0.0046839723363518715
1761476311744149800,4.151149658203125,0.0009427247568964958,0.019380919635295868,-0.00034247804433107376
1761476311754182700,4.1611826171875,0.0022226618602871895,0.010600720532238483,0.000918717123568058
1761476311764215800,4.1712158203125,0.0022056177258491516,0.0020730122923851013,-0.0005420269444584846
1761476311774249500,4.18124951171875,0.005457025952637196,-0.013204699382185936,-0.0045049237087368965
1761476311784282600,4.19128271484375,0.0039283717051148415,-0.018268432468175888,-0.0021464284509420395
1761476311794316500,4.201316650390625,0.004024511203169823,-0.015783172100782394,-0.0018079401925206184
1761476311804349700,4.211349609375,0.0033544600009918213,-0.004732384346425533,-0.000318966805934906
1761476311814382600,4.221382568359375,0.001781342551112175,0.0071138786152005196,-0.0023398110643029213
1761476311824416500,4.23141650390625,0.0035890964791178703,0.016148652881383896,-0.00007585715502500534
1761476311834449400,4.241449462890625,-0.001501802820712328,0.01774468459188938,-0.0003837188705801964
1761476311844482600,4.251482666015625,-0.001170238945633173,0.008997532539069653,-0.0019613755866885185
1761476311854516500,4.2615166015625,0.0013822568580508232,-0.004318606108427048,-0.002568143419921398
1761476311864549600,4.271549560546875,0.0012405766174197197,-0.015273785218596458,0.0016961107030510902
1761476311874583600,4.28158349609375,0.0013765422627329826,-0.02084451913833618,-0.0017507197335362434
1761476311884616700,4.29161669921875,0.0049957772716879845,-0.0168007742613554,-0.00009955931454896927
1761476311894649600,4.301649658203125,0.00016459915786981583,-0.005503013264387846,0.00037403497844934464
1761476311904683500,4.31168359375,0.0023691635578870773,0.005598107352852821,-0.000994829460978508
1761476311914716400,4.32171630859375,-0.001342980656772852,0.015506519004702568,0.0027798255905508995
1761476311924750600,4.33175048828125,-0.000045754946768283844,0.01696752943098545,0.002128949388861656
1761476311934783700,4.34178369140625,-0.0008007972501218319,0.018575157970190048,0.0008486108854413033
1761476311944816600,4.351816650390625,-0.0038394639268517494,0.012646695598959923,0.0029138922691345215
1761476311954850600,4.3618505859375,-0.0038801738992333412,0.011104313656687737,-0.00010171439498662949
1761476311964883500,4.371883544921875,-0.003975781612098217,0.009988982230424881,-0.0018223831430077553
1761476311974916600,4.38191650390625,-0.006286159157752991,0.00910111889243126,0.0011635394766926765
1761476311984950500,4.391950439453125,-0.0042784023098647594,0.0079618189483881,-0.0009470153599977493
1761476311994983700,4.401983642578125,-0.003526325337588787,0.006203599739819765,-0.0029585007578134537
1761476312005017600,4.412017578125,-0.006450742483139038,0.00456309225410223,0.0026306752115488052
1761476312015050800,4.42205078125,-0.003856449853628874,-0.0010323836468160152,-0.0011449484154582024
1761476312025083600,4.432083740234375,-0.002167739439755678,-0.0018931166268885136,-0.000536150299012661
1761476312035117600,4.44211767578125,-0.0005345670506358147,-0.003464179113507271,0.0009886818006634712
1761476312045150500,4.452150390625,-0.00419241888448596,-0.007095132954418659,-0.0016838004812598228
1761476312055184600,4.4621845703125,-0.004378839861601591,-0.0018857233226299286,0.0006288886070251465
1761476312065217500,4.472217529296875,-0.002826483454555273,0.0004858216270804405,0.0007713679224252701
1761476312075250700,4.482250732421875,-0.0043212417513132095,-0.0009173057042062283,-0.004874751903116703
1761476312085284600,4.49228466796875,-0.0054320464842021465,-0.0023125354200601578,0.0005940496921539307
1761476312095317500,4.5023173828125,-0.0024713738821446896,-0.0043678442016243935,-0.0009027551859617233
1761476312105350400,4.512350341796875,-0.00030542537569999695,-0.0017752572894096375,-0.00006785430014133453
1761476312115384600,4.522384521484375,-0.0009020701982080936,0.0008059251122176647,0.0026848120614886284
1761476312125417700,4.532417724609375,-0.00013055186718702316,0.0016011451371014118,-0.003100106492638588
1761476312135451600,4.54245166015625,0.0007635438814759254,-0.0038137701340019703,-0.003617776557803154
1761476312145484800,4.55248486328125,0.0028693052008748055,-0.005565065424889326,0.002494710497558117
1761476312155517700,4.562517578125,0.0015707099810242653,-0.013214168138802052,0.0011682119220495224
1761476312165551600,4.572551513671875,0.0021696556359529495,-0.01338647399097681,-0.0032965783029794693
1761476312175584500,4.58258447265625,0.002988542430102825,-0.009339919313788414,-0.0025134989991784096
1761476312185619700,4.59261962890625,0.00632867868989706,-0.004767538048326969,-0.002430674619972706
1761476312195652600,4.602652587890625,0.0063298046588897705,0.006939019542187452,0.00015453994274139404
1761476312205686500,4.6126865234375,0.008122644387185574,0.017084065824747086,-0.0019709281623363495
1761476312215719700,4.6227197265625,0.006290365010499954,0.018656795844435692,0.0010084183886647224
1761476312225752600,4.632752685546875,0.006486106663942337,0.008769277483224869,0.0025109732523560524
1761476312235786800,4.642786865234375,0.002357662655413151,-0.0053382739424705505,0.002477189525961876
1761476312245819600,4.652819580078125,0.0018620481714606285,-0.02314283698797226,0.00012428686022758484
1761476312255852800,4.662852783203125,0.0014594579115509987,-0.03083207830786705,-0.0036624521017074585
1761476312265886500,4.672886474609375,0.0011417428031563759,-0.02451079897582531,-0.0013444367796182632
1761476312275919600,4.682919677734375,0.0015023630112409592,-0.013807300478219986,-0.0014209393411874771
1761476312285953500,4.69295361328125,0.0003521433100104332,-0.002932282630354166,0.0023807231336832047
1761476312295986700,4.702986572265625,0.0003256099298596382,0.007766242604702711,0.0032579442486166954
1761476312306019600,4.71301953125,-0.0004781316965818405,0.014175405725836754,0.0027122627943754196
1761476312316053500,4.723053466796875,-0.0035472447052598,0.0131625235080719,0.003372715786099434
1761476312326086400,4.73308642578125,-0.0006505241617560387,0.01247782539576292,0.0005593523383140564
1761476312336120600,4.74312060546875,-0.001569703221321106,0.0037744110450148582,0.002582651562988758
1761476312346153500,4.753153564453125,-0.0017215036787092686,0.0038369952235370874,0.00160234235227108
1761476312356186600,4.7631865234375,-0.002902261447161436,0.002604036359116435,-0.00020566582679748535
1761476312366220500,4.773220458984375,-0.001063881441950798,0.005108472891151905,0.0032974565401673317
1761476312376253700,4.783253662109375,-0.001386791467666626,0.00790220033377409,0.0013114046305418015
1761476312386286600,4.79328662109375,-0.004806556738913059,0.010662833228707314,0.0015367083251476288
1761476312396320500,4.803320556640625,-0.00031017232686281204,0.008242066949605942,0.001964968629181385
1761476312406353400,4.813353515625,-0.00383273558691144,0.006617805454879999,0.001442190259695053
1761476312416387600,4.8233876953125,-0.001311984844505787,0.0030957411509007215,-0.00005978904664516449
1761476312426420700,4.833420654296875,-0.001794016920030117,-0.0002513197250664234,0.0015080142766237259
1761476312436453600,4.84345361328125,-0.0010718009434640408,0.0014434000477194786,0.003118007443845272
1761476312446487600,4.853487548828125,-0.0017706146463751793,0.0046623628586530685,0.0007853452116250992
1761476312456520400,4.8635205078125,-0.0043425047770142555,0.004980514757335186,0.005159003660082817
1761476312466554600,4.8735546875,-0.00007132720202207565,0.004465459380298853,-0.00022857170552015305
1761476312476587500,4.88358740234375,-0.0026824302040040493,-0.0016504288651049137,-0.0004736771807074547
1761476312486621700,4.89362158203125,-0.0025894860737025738,-0.006374610122293234,-0.001852128654718399
1761476312496655600,4.903655517578125,0.0002455413341522217,-0.006040288135409355,0.001293303444981575
1761476312506688500,4.9136884765625,0.0005107922479510307,-0.0051984628662467,-0.000560256652534008
1761476312516722700,4.92372265625,0.0017708344385027885,0.0021447506733238697,0.0018924949690699577
1761476312526755600,4.933755615234375,-0.0011019171215593815,0.005540813785046339,0.0012839622795581818
1761476312536788700,4.943788818359375,0.0006477795541286469,0.011862891726195812,-0.0006420351564884186
1761476312546822700,4.95382275390625,-0.0029006158001720905,0.006309668533504009,-0.002190130762755871
1761476312556855600,4.96385546875,0.0012496290728449821,0.0014768471010029316,-0.0021863318979740143
1761476312566888400,4.973888427734375,-0.001709409523755312,-0.008065525442361832,-0.0010558199137449265
1761476312576922600,4.983922607421875,0.0021666837856173515,-0.00501400837674737,-0.0015861932188272476
1761476312586955500,4.99395556640625,-0.000698877964168787,-0.004963408689945936,-0.0020972536876797676
1761476312596989700,5.00398974609375,0.0009681805968284607,0.0027472837828099728,-0.0013316022232174873
1761476312607022600,5.014022705078125,0.0006680423393845558,0.006237090099602938,-0.002112174406647682
1761476312617055700,5.0240556640625,0.0012909695506095886,0.007055206224322319,-0.001096213236451149
1761476312627089700,5.034089599609375,0.0016696704551577568,0.0017845439724624157,-0.001693294383585453
1761476312637122600,5.04412255859375,0.0031265662983059883,-0.006234317552298307,-0.0032522128894925117
1761476312647156700,5.05415673828125,0.0028133783489465714,-0.015014493837952614,-0.003829585388302803
1761476312657189600,5.064189697265625,0.0019230665639042854,-0.013409520499408245,-0.004166176542639732
1761476312667222800,5.074222900390625,0.0016104113310575485,-0.01061613205820322,0.0007484210655093193
1761476312677256700,5.084256591796875,0.00256289541721344,-0.007862490601837635,-0.004027288407087326
1761476312687289600,5.09428955078125,0.0021439800038933754,-0.00027780793607234955,-0.0036746859550476074
1761476312697322500,5.104322509765625,0.0015481412410736084,0.002023607026785612,-0.0010179327800869942
1761476312707356700,5.114356689453125,0.004754320718348026,0.0034260277170687914,-0.002093316987156868
1761476312717389600,5.1243896484375,0.0040368931367993355,0.0026244029868394136,0.000035276636481285095
1761476312727423700,5.134423828125,0.0051077501848340034,0.0016805785708129406,0.0014877645298838615
1761476312737456600,5.14445654296875,0.0037652021273970604,0.0031633174512535334,-0.0014367708936333656
1761476312747489800,5.15448974609375,0.0020450670272111893,0.0033396186772733927,-0.0017909705638885498
1761476312757523500,5.1645234375,0.0030433963984251022,0.006022930145263672,0.0008814921602606773
1761476312767556600,5.174556640625,0.00023029930889606476,0.0012742476537823677,-0.0008149417117238045
1761476312777590800,5.1845908203125,0.0012302612885832787,0.0023411365691572428,0.0012460006400942802
1761476312787623700,5.194623779296875,0.00010534189641475677,-0.00046903081238269806,-0.0018920022994279861
1761476312797656600,5.204656494140625,-0.0012103430926799774,0.0031616922933608294,-0.0016379505395889282
1761476312807690500,5.2146904296875,0.0006181830540299416,0.004831760656088591,0.0008137552067637444
1761476312817723600,5.2247236328125,0.0011076945811510086,0.008614377118647099,-0.001102193258702755
1761476312827757600,5.234757568359375,-0.001137616578489542,0.009295880794525146,0.0016895979642868042
1761476312837790700,5.244790771484375,-0.0022451020777225494,0.002075986936688423,0.005679183639585972
1761476312847823600,5.25482373046875,-0.0067434473894536495,-0.007834967225790024,0.002495906315743923
1761476312857857800,5.26485791015625,-0.0071870130486786366,-0.01701507158577442,-0.0004342030733823776
1761476312867890700,5.274890625,-0.007708726450800896,-0.018969831988215446,-0.0006382018327713013
1761476312877923800,5.284923828125,-0.005663842428475618,-0.021439967676997185,-0.0026609329506754875
1761476312887957500,5.29495751953125,-0.005782352760434151,-0.02014647051692009,0.001927160657942295
1761476312897990700,5.30499072265625,-0.004541319794952869,-0.012935960665345192,0.00041262153536081314
1761476312908024600,5.315024658203125,-0.004725078120827675,-0.0029746745713055134,0.0012864042073488235
1761476312918057700,5.3250576171875,-0.0055932542309165,0.005615610629320145,0.00392210204154253
1761476312928090600,5.335090576171875,-0.003834769129753113,0.006137590389698744,-0.0010673301294445992
1761476312938124500,5.34512451171875,-0.002533030230551958,0.007746946066617966,0.0020509976893663406
1761476312948157400,5.355157470703125,-0.00013991352170705795,0.007537355180829763,0.000189182348549366
1761476312958191600,5.365191650390625,-0.00016117841005325317,0.004029149189591408,0.001853019930422306
1761476312968224500,5.375224609375,0.001578131690621376,0.007688865065574646,0.0018077455461025238
1761476312978257700,5.385257568359375,0.0013186661526560783,0.011252198368310928,0.0015525612980127335
1761476312988291800,5.395291748046875,0.0030870046466588974,0.014170222915709019,0.0009104730561375618
1761476312998324700,5.40532470703125,0.002302122302353382,0.012738281860947609,0.0033103981986641884
1761476313008358700,5.415358642578125,0.0010877205058932304,0.004511777777224779,0.00014469865709543228
1761476313018391600,5.4253916015625,0.00038781575858592987,-0.0017714034765958786,-0.000677882693707943
1761476313028424700,5.4354248046875,0.001140957698225975,-0.009061540476977825,-0.0026323767378926277
1761476313038458600,5.445458740234375,0.0006645042449235916,-0.014110090211033821,-0.0019468432292342186
1761476313048491800,5.45549169921875,-0.0009344574064016342,-0.009453818202018738,-0.0010208627209067345
1761476313058524700,5.465524658203125,0.0007462631911039352,-0.0014848415739834309,-0.0008179293945431709
1761476313068558600,5.47555859375,-0.00015761330723762512,0.003888618666678667,-0.002666695974767208
1761476313078591500,5.485591552734375,0.0019313152879476547,0.006805337965488434,0.00039798952639102936
1761476313088625700,5.495625732421875,-0.0009241257794201374,0.010549476370215416,0.0024558138102293015
1761476313098658600,5.505658447265625,0.00022306106984615326,0.005035321228206158,-0.002657703123986721
1761476313108691700,5.515691650390625,-0.0014613880775868893,-0.003627409227192402,-0.004046807065606117
1761476313118725600,5.5257255859375,-0.0007845894433557987,-0.006611659191548824,-0.0028446391224861145
1761476313128758800,5.5357587890625,-0.0002508917823433876,-0.011925996281206608,-0.0026840511709451675
1761476313138792400,5.54579248046875,-0.0015014042146503925,-0.011652279645204544,-0.0028633419424295425
1761476313148825600,5.55582568359375,0.0002839788794517517,-0.008684184402227402,-0.000399651937186718
1761476313158858500,5.5658583984375,-0.0015077744610607624,-0.003246152773499489,-0.0001384727656841278
1761476313168892700,5.575892578125,0.001486416906118393,0.003885792102664709,0.00039868708699941635
1761476313178925800,5.58592578125,-0.0003363657742738724,0.006560860201716423,-0.004567474592477083
1761476313188959500,5.59595947265625,-0.0009917700663208961,0.00518800038844347,-0.0037067411467432976
1761476313198992600,5.60599267578125,-0.002056719735264778,0.003306320635601878,-0.0029281768947839737
1761476313209025500,5.616025634765625,0.001307385042309761,-0.0025390516966581345,-0.004209423437714577
1761476313219059700,5.626059814453125,0.0010704929009079933,-0.0028055631555616856,0.00020382925868034363
1761476313229092600,5.636092529296875,0.0021975431591272354,-0.0037632365711033344,-0.003113936632871628
1761476313239126800,5.646126708984375,0.006103177554905415,0.0013270750641822815,-0.0008497759699821472
1761476313249159700,5.65615966796875,0.005020336247980595,0.006824371870607138,0.00262591615319252
1761476313259192800,5.66619287109375,0.0038906103000044823,0.006951410789042711,-0.0005325600504875183
1761476313269226500,5.6762265625,-0.0001739058643579483,0.0031497483141720295,-0.0021629473194479942
1761476313279259600,5.686259765625,0.0003730515018105507,-0.003340350463986397,-0.0030506588518619537
1761476313289292500,5.69629248046875,0.0005589397624135017,-0.006910850293934345,-0.0028653033077716827
1761476313299326700,5.70632666015625,-0.0008106408640742302,-0.007294650189578533,0.0011033527553081512
1761476313309359600,5.716359619140625,-0.001924907322973013,-0.0066826557740569115,-0.0025672828778624535
1761476313319393500,5.7263935546875,-0.00022603850811719894,0.004500996321439743,0.0010872622951865196
1761476313329426400,5.736426513671875,-0.002981877885758877,0.005209130700677633,-0.0016874857246875763
1761476313339459600,5.74645947265625,-0.0022819414734840393,0.008298642933368683,-0.0014551728963851929
1761476313349493800,5.75649365234375,-0.0025357408449053764,0.004948918707668781,-0.0008911155164241791
1761476313359526700,5.766526611328125,-0.002832526806741953,0.0027571923565119505,0.00034119002521038055
1761476313369560800,5.776560791015625,-0.0018879035487771034,-0.002770198043435812,-0.001851922832429409
1761476313379593700,5.78659375,-0.005066686309874058,-0.0030028093606233597,-0.0024544866755604744
1761476313389626600,5.796626708984375,0.0018708482384681702,-0.0016259551048278809,-0.000670434907078743
1761476313399660500,5.80666064453125,-0.0008350936695933342,0.0036683622747659683,0.00304544810205698
1761476313409693700,5.816693603515625,0.000532972626388073,0.006797309964895248,0.003934411332011223
1761476313419727600,5.8267275390625,0.0001833466812968254,0.00834631361067295,0.0003611035645008087
1761476313429760800,5.8367607421875,0.0006379485130310059,0.0116238659247756,0.0019193189218640327
1761476313439793700,5.846793701171875,-0.0021704467944800854,0.007400267757475376,-0.00010656565427780151
1761476313449827600,5.85682763671875,-0.0015286249108612537,0.013271472416818142,-0.0014258958399295807
1761476313459860500,5.866860595703125,-0.002547943964600563,0.008926992304623127,-0.002724848687648773
1761476313469894700,5.876894775390625,-0.00007093790918588638,0.007572242524474859,0.0038752639666199684
1761476313479927300,5.88692724609375,-0.001592258457094431,-0.005035100970417261,0.002170936204493046
1761476313489960200,5.896960205078125,-0.0013168873265385628,-0.015318632125854492,0.003178143873810768
1761476313499994400,5.906994384765625,0.0020354175940155983,-0.021436136215925217,0.0030684126541018486
1761476313510027300,5.91702734375,0.0017651068046689034,-0.025527818128466606,-0.0023721596226096153
1761476313520060400,5.927060302734375,0.0015697535127401352,-0.022772574797272682,-0.0002174917608499527
1761476313530094000,5.937093994140625,0.0019316766411066055,-0.014563113451004028,0.001958843320608139
1761476313540127200,5.947127197265625,0.0012567909434437752,-0.005898764822632074,0.0026079611852765083
1761476313550161200,5.9571611328125,-0.0016535110771656036,0.007446868345141411,0.002683328464627266
1761476313560194300,5.9671943359375,-0.001975446939468384,0.0133430864661932,-0.00005637016147375107
1761476313570227200,5.977227294921875,0.001261092722415924,0.017756210640072823,0.0005122143775224686
1761476313580261000,5.98726123046875,0.0011274022981524467,0.016370035707950592,0.0028169145807623863
1761476313590294000,5.9972939453125,0.002957526594400406,0.013314856216311455,0.0038944287225604057
1761476313600328200,6.007328125,0.004182171076536179,0.012003186158835888,0.001569659449160099
1761476313610361000,6.017361083984375,0.002246319316327572,0.006989252753555775,-0.0006476882845163345
1761476313620394200,6.027394287109375,0.0027517937123775482,0.00659630261361599,-0.0012690424919128418
1761476313630428400,6.037428466796875,0.003216249868273735,0.002790645230561495,-0.0005971277132630348
1761476313640461300,6.04746142578125,0.0020873770117759705,0.0014555803500115871,0.0019468842074275017
1761476313650495200,6.0574951171875,0.004422702826559544,0.006275369320064783,0.0009146425873041153
1761476313660528000,6.067528076171875,0.0031075850129127502,0.006550630088895559,0.0024578236043453217
1761476313670561300,6.077561279296875,0.004739304073154926,0.008468106389045715,-0.0019976450130343437
1761476313680595200,6.08759521484375,0.006046152673661709,0.007293237838894129,-0.001507733017206192
1761476313690628400,6.09762841796875,0.004296189174056053,0.00426122872158885,-0.0031410492956638336
1761476313700661200,6.1076611328125,0.004629871807992458,0.005274955183267593,-0.0017958525568246841
1761476313710695200,6.117695068359375,0.0031933626160025597,0.006287489086389542,-0.0008123470470309258
1761476313720728000,6.12772802734375,0.004134693183004856,0.0036218587774783373,0.002982949838042259
1761476313730762200,6.13776220703125,0.0018781963735818863,0.010337818413972855,0.0018907878547906876
1761476313740795100,6.147795166015625,0.0005167173221707344,0.005132697988301516,-0.0026249177753925323
1761476313750828300,6.157828369140625,0.0019385786727070808,0.0007097199559211731,0.001307239755988121
1761476313760862200,6.1678623046875,-0.0010611838661134243,-0.0005895071662962437,-0.002053741365671158
1761476313770895400,6.177895263671875,-0.004002112429589033,-0.003540556412190199,0.0010347263887524605
1761476313780929300,6.18792919921875,-0.0038155447691679,-0.007452824153006077,-0.0002283155918121338
1761476313790962200,6.197962158203125,-0.003573996014893055,-0.00488527026027441,-0.0014408528804779053
1761476313800995000,6.2079951171875,-0.003278155345469713,-0.0015914440155029297,-0.0005254121497273445
1761476313811029200,6.218029296875,-0.004373247269541025,0.004146070219576359,-0.00032993685454130173
1761476313821062400,6.2280625,-0.004359362181276083,0.0035955659113824368,-0.0019127652049064636
1761476313831095300,6.23809521484375,-0.0034405714832246304,0.005448061041533947,-0.0019407281652092934
1761476313841129200,6.248129150390625,-0.0034482949413359165,-0.0017821555957198143,-0.005714161321520805
1761476313851162000,6.258162109375,-0.004698382690548897,-0.00398299191147089,-0.0027372799813747406
1761476313861196300,6.2681962890625,-0.004205143544822931,-0.00337901059538126,-0.00226411409676075
1761476313871229200,6.278229248046875,-0.0020434558391571045,-0.0020660720765590668,0.001242203637957573
1761476313881262300,6.288262451171875,-0.00016915705054998398,0.001734027173370123,0.0011507067829370499
1761476313891296300,6.298296142578125,-0.00001256261020898819,0.006428647320717573,-0.0018938183784484863
1761476313901329200,6.3083291015625,-0.001597071997821331,0.00941573828458786,-0.0017347829416394234
1761476313911363000,6.318363037109375,0.0028637228533625603,0.000817722175270319,-0.000270577147603035
1761476313921396200,6.328396240234375,0.0037217652425169945,-0.004052271135151386,-0.0016180714592337608
1761476313931429000,6.33842919921875,0.0011467551812529564,-0.00928271934390068,-0.0024678856134414673
1761476313941463300,6.34846337890625,0.004243320785462856,-0.008713392540812492,-0.0020655449479818344
1761476313951496200,6.35849609375,0.0033290572464466095,-0.009168259799480438,-0.0035140374675393105
1761476313961529300,6.368529296875,0.005149563774466515,0.0020479471422731876,0.0020089438185095787
1761476313971563000,6.37856298828125,0.005923745222389698,0.0074174124747514725,-0.0022395970299839973
1761476313981596200,6.38859619140625,0.00414649024605751,0.007082825992256403,-0.0010323002934455872
1761476313991630300,6.39863037109375,0.001929941587150097,0.005507033318281174,0.0004233838990330696
1761476314001663200,6.408663330078125,0.0034689726307988167,-0.00004404596984386444,-0.000018659979104995728
1761476314011696000,6.418696044921875,0.003002653829753399,-0.004199376329779625,0.0002023829147219658
1761476314021730300,6.428730224609375,0.002424529753625393,-0.008433690294623375,-0.0029898257926106453
1761476314031763200,6.43876318359375,0.0011600609868764877,-0.006323934532701969,-0.002680365927517414
1761476314041796000,6.448796142578125,0.0034575695171952248,-0.0034565087407827377,0.0015535270795226097
1761476314051830300,6.458830322265625,0.001528375782072544,-0.0035992544144392014,-0.004188247956335545
1761476314061863200,6.46886328125,0.0019004400819540024,-0.0008820584043860435,-0.0032567568123340607
1761476314071897300,6.4788974609375,0.0007366389036178589,-0.00045222416520118713,0.001584869809448719
1761476314081930200,6.48893017578125,0.0005528898909687996,-0.0026663928292691708,0.0006047841161489487
1761476314091963400,6.49896337890625,0.002866910770535469,-0.001771837007254362,-0.0020605074241757393
1761476314101997000,6.5089970703125,-0.00009562913328409195,-0.0023187934421002865,0.00047205761075019836
1761476314112030200,6.5190302734375,0.0034450432285666466,0.004768144339323044,-0.0010182475671172142
1761476314122063000,6.52906298828125,-0.0009447927586734295,0.011792962439358234,-0.00022446084767580032
1761476314132097300,6.53909716796875,0.00162489153444767,0.018028488382697105,0.0007878066971898079
1761476314142130200,6.549130126953125,0.001662757247686386,0.011911051347851753,0.00043505989015102386
1761476314152164000,6.5591640625,-0.0021074796095490456,0.00134629150852561,0.0029493505135178566
1761476314162197000,6.569197021484375,-0.0012641940265893936,-0.013616496697068214,0.002700468525290489
1761476314172230100,6.579230224609375,-0.004488483536988497,-0.025641202926635742,-0.001111580990254879
1761476314182264300,6.589264404296875,-0.0028235167264938354,-0.030679762363433838,-0.0019727451726794243
1761476314192297200,6.599297119140625,-0.002678374759852886,-0.028513282537460327,-0.0022499803453683853
1761476314202330000,6.609330078125,-0.002826790325343609,-0.020109478384256363,-0.0018339930102229118
1761476314212364300,6.6193642578125,-0.0021048071794211864,-0.004518002271652222,0.0029756762087345123
1761476314222397400,6.6293974609375,-0.004201720468699932,0.010248791426420212,0.003714251331984997
1761476314232430300,6.639430419921875,-0.0029297946020960808,0.01763453707098961,0.0019736094400286674
1761476314242464300,6.64946435546875,0.001072719693183899,0.017641838639974594,0.00045786332339048386
1761476314252497200,6.6594970703125,0.0011645983904600143,0.01087714359164238,-0.0004723789170384407
1761476314262531300,6.66953125,-0.0006258175708353519,0.0030436753295361996,0.0006553409621119499
1761476314272564200,6.679564208984375,-0.00008785910904407501,0.00013550370931625366,0.00047557707875967026
1761476314282597400,6.689597412109375,0.00017985980957746506,-0.003576406743377447,0.0008240258321166039
1761476314292631000,6.699631103515625,0.0018022572621703148,0.0006268606521189213,0.0014256341382861137
1761476314302664200,6.709664306640625,0.0007268022745847702,0.0032197104301303625,-0.0014754543080925941
1761476314312697000,6.719697021484375,0.00406294409185648,-0.002134042326360941,-0.0030368659645318985
1761476314322731300,6.729731201171875,0.0024051759392023087,-0.0007687928155064583,-0.0001506740227341652
1761476314332764200,6.73976416015625,0.002421688288450241,-0.0019144844263792038,-0.0000020693987607955933
1761476314342797300,6.74979736328125,0.0008748462423682213,0.0019363793544471264,-0.0014945007860660553
1761476314352831200,6.759831298828125,0.0030317408964037895,0.0021297247149050236,-0.0021994393318891525
1761476314362864000,6.769864013671875,0.0009253574535250664,0.007029168773442507,-0.0022660410031676292
1761476314372898000,6.77989794921875,-0.0007108887657523155,0.006556723732501268,0.002170785330235958
1761476314382931200,6.78993115234375,-0.00028132088482379913,0.004062673542648554,0.0017015365883708
1761476314392964000,6.799964111328125,0.0007575778290629387,0.0030349595472216606,0.0007542502135038376
1761476314402998300,6.809998291015625,-0.001527541782706976,-0.007819999940693378,-0.0018160892650485039
1761476314413031200,6.82003125,0.0012120520696043968,-0.00773824006319046,-0.0012818593531847
1761476314423064300,6.830064208984375,0.0003786850720643997,-0.009289022535085678,-0.004169942811131477
1761476314433098200,6.84009814453125,0.001138218678534031,-0.0070314607582986355,-0.0005240757018327713
1761476314443131100,6.850131103515625,0.0019721686840057373,-0.002760891802608967,0.0008508078753948212
1761476314453164000,6.8601640625,0.0013364721089601517,0.0031944692600518465,-0.00213592778891325
1761476314463198200,6.8701982421875,0.0004512649029493332,0.00921657681465149,-0.0012943772599101067
1761476314473231400,6.8802314453125,-0.00316157890483737,0.01199238933622837,0.0007892800495028496
1761476314483265500,6.890265625,-0.00252080662176013,0.007608525454998016,0.0025817658752202988
1761476314493298400,6.90029833984375,-0.0018840446136891842,-0.0001327507197856903,-0.0011567790061235428
1761476314503331600,6.91033154296875,-0.00021430104970932007,-0.005340658128261566,0.000385909341275692
1761476314513365500,6.920365478515625,0.0008874479681253433,-0.002549133263528347,0.0029342882335186005
1761476314523398700,6.930398681640625,0.0019531454890966415,0.0017606993205845356,0.0022147195413708687
1761476314533431600,6.940431640625,0.001354200765490532,0.011233297176659107,-0.00020369701087474823
1761476314543465700,6.9504658203125,0.0005607670173048973,0.016262097284197807,0.0010627293959259987
1761476314553498600,6.96049853515625,0.0019538672640919685,0.010216722264885902,-0.0018923133611679077
1761476314563531500,6.970531494140625,0.0011362647637724876,0.001413688063621521,-0.0007835421711206436
1761476314573565400,6.9805654296875,0.001313365064561367,-0.012143665924668312,-0.003944980911910534
1761476314583598600,6.9905986328125,0.003250022418797016,-0.019925709813833237,-0.0026565929874777794
1761476314593631500,7.000631591796875,0.002275572158396244,-0.01414478663355112,0.0016670497134327888
1761476314603665700,7.010665771484375,0.0000585140660405159,-0.006222487892955542,-0.0005896687507629395
1761476314613698600,7.020698486328125,0.0025467053055763245,0.005889834836125374,0.0021224943920969963
1761476314623731700,7.030731689453125,0.0008469754830002785,0.01661335863173008,0.002543024718761444
1761476314633765600,7.040765625,-0.000818831380456686,0.015853025019168854,0.0022194506600499153
1761476314643798500,7.050798583984375,-0.0016438085585832596,0.011731572449207306,0.001680680550634861
1761476314653832700,7.060832763671875,-0.0022113281302154064,0.001699445303529501,0.005259968340396881
1761476314663865600,7.070865478515625,-0.003949895966798067,-0.007586026564240456,-0.00006829574704170227
1761476314673898800,7.080898681640625,-0.0033522825688123703,-0.010073418729007244,-0.00017775129526853561
1761476314683932400,7.090932373046875,-0.0021315813064575195,-0.005127404350787401,-0.0007123304530978203
1761476314693965600,7.100965576171875,0.00019362475723028183,0.0016692494973540306,0.0011329734697937965
1761476314703998500,7.11099853515625,-0.0005966471508145332,0.005647560115903616,0.0025136684998869896
1761476314714032600,7.12103271484375,-0.001768438145518303,0.005835579242557287,0.0007368074730038643
1761476314724065500,7.1310654296875,-0.0006400966085493565,0.009086844511330128,0.004185590893030167
1761476314734098700,7.1410986328125,-0.003110977355390787,0.006381338927894831,0.0011450601741671562
1761476314744132600,7.151132568359375,0.0006912620738148689,0.003781460225582123,-0.0015413090586662292
1761476314754165800,7.161165771484375,-0.00008238572627305984,0.002526578726246953,-0.001822005957365036
1761476314764198700,7.17119873046875,0.002498478628695011,0.002321005566045642,-0.0009263372048735619
1761476314774232600,7.181232666015625,0.0028449557721614838,0.0016845101490616798,0.0013107182458043098
1761476314784265500,7.191265380859375,0.0011967699974775314,-0.0019921138882637024,0.0008674757555127144
1761476314794298600,7.201298583984375,0.0011022277176380157,-0.008452409878373146,0.0036432892084121704
1761476314804332500,7.21133251953125,-0.0013762111775577068,-0.007890179753303528,0.003782055340707302
1761476314814365700,7.22136572265625,-0.004113674629479647,-0.008893126621842384,-0.0008491817861795425
1761476314824398600,7.231398681640625,0.001923982985317707,-0.0071471803821623325,0.0006940718740224838
1761476314834432500,7.2414326171875,0.0010089203715324402,-0.006994048599153757,-0.0018420564010739326
1761476314844465400,7.25146533203125,0.00038265809416770935,-0.009584320709109306,0.001027652993798256
1761476314854498600,7.26149853515625,0.001535274088382721,-0.012062124907970428,0.001828731968998909
1761476314864532700,7.27153271484375,-0.00028328225016593933,-0.008831845596432686,0.0003930693492293358
1761476314874565600,7.281565673828125,-0.0018508187495172024,-0.0027654310688376427,-0.00039735715836286545
1761476314884598500,7.2915986328125,-0.002435486763715744,0.007647293619811535,0.00033209286630153656
1761476314894632700,7.3016328125,-0.0035934289917349815,0.016465818509459496,0.0003067934885621071
1761476314904665600,7.31166552734375,-0.0015806802548468113,0.020947663113474846,0.003628418780863285
1761476314914698500,7.321698486328125,-0.001387068536132574,0.01520189456641674,0.0014464911073446274
1761476314924732700,7.331732666015625,-0.0016313199885189533,0.009491058997809887,0.0027724122628569603
1761476314934765600,7.341765625,-0.00039534736424684525,-0.002561342902481556,0.002571609802544117
1761476314944798700,7.351798828125,-0.0012169331312179565,-0.014558856375515461,-0.0035983482375741005
1761476314954832600,7.36183251953125,0.00038762111216783524,-0.014838754199445248,-0.0014395900070667267
1761476314964865800,7.37186572265625,0.00373008381575346,-0.011345481500029564,0.0009938664734363556
1761476314974898700,7.381898681640625,0.0040877461433410645,-0.004795169923454523,-0.002752934582531452
1761476314984932600,7.3919326171875,0.003966005519032478,0.005442846566438675,0.001192157156765461
1761476314994965500,7.401965576171875,-0.0033193379640579224,0.011180627159774303,0.0002454034984111786
1761476315004998700,7.41199853515625,-0.0009455559775233269,0.015894629061222076,0.0010163234546780586
1761476315015032600,7.422032470703125,-0.0024417201057076454,0.009137923829257488,0.000009115785360336304
1761476315025065700,7.432065673828125,-0.001365593634545803,-0.0021592690609395504,-0.003938241861760616
1761476315035098600,7.4420986328125,-0.001160264015197754,-0.007866689935326576,-0.0038990937173366547
1761476315045132500,7.452132568359375,-0.0003506029024720192,-0.010456579737365246,0.0006940271705389023
1761476315055165400,7.46216552734375,0.000871521420776844,-0.009370542131364346,0.0006266487762331963
1761476315065198600,7.472198486328125,-0.0003785146400332451,-0.008876141160726547,-0.003192194737493992
1761476315075232500,7.482232421875,-0.0005345754325389862,-0.003729315474629402,0.0003412878140807152
1761476315085265700,7.492265625,-0.0003220001235604286,-0.0008799410425126553,0.0007226699963212013
1761476315095298600,7.502298583984375,-0.0018988577648997307,-0.0027944869361817837,-0.002297353930771351
1761476315105332700,7.512332763671875,-0.00018027238547801971,-0.0008808020502328873,-0.001516491174697876
1761476315115365600,7.52236572265625,-0.0005238205194473267,-0.0036467607133090496,-0.0018528485670685768
1761476315125398500,7.5323984375,-0.0009429431520402431,-0.0012746802531182766,0.00008584372699260712
1761476315135432400,7.542432373046875,0.0005966303870081902,0.0015765000134706497,0.0004941057413816452
1761476315145465600,7.552465576171875,-0.0001308908686041832,0.011535713449120522,-0.0017021866515278816
1761476315155498500,7.56249853515625,0.0004558032378554344,0.009557783603668213,0.0018725739791989326
1761476315165532700,7.57253271484375,-0.0008214488625526428,0.010761594399809837,-0.00020724162459373474
1761476315175565600,7.582565673828125,0.00007497146725654602,0.0110233835875988,0.0007930416613817215
1761476315185598700,7.5925986328125,0.0010270504280924797,0.0032307372894138098,-0.0010317014530301094
1761476315195632600,7.602632568359375,0.0026854006573557854,0.00002935156226158142,-0.0031798072159290314
1761476315205665500,7.61266552734375,0.0023160213604569435,-0.005879699718207121,-0.001767587848007679
1761476315215698400,7.622698486328125,-0.000770848710089922,-0.011292042210698128,-0.002986249513924122
1761476315225732600,7.632732666015625,-0.0014831982553005219,-0.006413727533072233,-0.0007523680105805397
1761476315235765800,7.642765869140625,-0.000657352153211832,-0.006396150682121515,-0.001390194520354271
1761476315245798700,7.652798583984375,-0.0010718400590121746,0.0007067415863275528,-0.0003378111869096756
1761476315255832600,7.66283251953125,-0.0015275068581104279,0.00144204031676054,0.0019013751298189163
1761476315265865500,7.672865478515625,-0.0023611285723745823,0.0022858467418700457,-0.0014093853533267975
1761476315275898600,7.682898681640625,0.00035795941948890686,0.0004972675815224648,0.0008186148479580879
1761476315285932500,7.6929326171875,-0.00024461187422275543,0.0013985112309455872,0.0021873153746128082
1761476315295965700,7.702965576171875,0.0026893923059105873,-0.0016540037468075752,0.0005169808864593506
1761476315305998600,7.71299853515625,-0.0010583102703094482,-0.0011083520948886871,-0.002057865262031555
1761476315316032800,7.72303271484375,-0.0033531561493873596,0.000472234096378088,0.0016244873404502869
1761476315326065700,7.733065673828125,-0.002015290781855583,0.002009971998631954,-0.0013073775917291641
1761476315336098600,7.7430986328125,-0.0033559263683855534,0.0016182209365069866,-0.000585394911468029
1761476315346132500,7.753132568359375,-0.00005387328565120697,0.0005819522775709629,0.0014089886099100113
1761476315356165600,7.76316552734375,-0.0007564155384898186,0.0013223113492131233,-0.00036414433270692825
1761476315366198500,7.773198486328125,-0.0022008069790899754,-0.0024269470013678074,-0.0004920400679111481
1761476315376232700,7.783232666015625,-0.0018327580764889717,0.0010173190385103226,-0.002848670817911625
1761476315386265600,7.793265625,-0.0011823629029095173,0.00500998180359602,-0.0020614303648471832
1761476315396298800,7.803298828125,-0.0023935684002935886,0.008839074522256851,-0.0008014887571334839
1761476315406332400,7.81333251953125,-0.0032645268365740776,0.0034908391535282135,-0.00016016792505979538
1761476315416365600,7.823365478515625,-0.002299130894243717,-0.0036688032560050488,0.002894211560487747
1761476315426398500,7.8333984375,-0.005077021196484566,-0.016405345872044563,0.0025191958993673325
1761476315436432600,7.8434326171875,-0.004190188366919756,-0.023802010342478752,-0.00020947866141796112
1761476315446465500,7.853465576171875,-0.00009376835078001022,-0.026444392278790474,-0.004208116792142391
1761476315456498700,7.863498779296875,-0.0017784838564693928,-0.021233385428786278,-0.001022709533572197
1761476315466532600,7.87353271484375,0.0010475032031536102,-0.01966044306755066,-0.0021234210580587387
1761476315476565500,7.8835654296875,-0.0018561417236924171,-0.013673655688762665,0.0025624101981520653
1761476315486602000,7.89360205078125,-0.0008434467017650604,-0.0003202068619430065,0.005150861106812954
1761476315496635100,7.90363525390625,-0.001524949911981821,0.010787039063870907,0.00015157461166381836
1761476315506669000,7.9136689453125,-0.002258277963846922,0.009952344000339508,0.002439163625240326
1761476315516702200,7.9237021484375,0.0013311300426721573,0.015475740656256676,-0.0020535895600914955
1761476315526735000,7.933735107421875,-0.0023894119076430798,0.009263977408409119,0.0012233443558216095
1761476315536769000,7.94376904296875,0.00382187869399786,0.0035895798355340958,0.003931512124836445
1761476315546802000,7.953802001953125,0.0018650414422154427,0.004920448176562786,0.0016583101823925972
1761476315556835000,7.9638349609375,0.002883167937397957,0.003134532133117318,-0.0003955196589231491
1761476315566869000,7.973868896484375,0.005003412254154682,0.0037202981766313314,0.002782244235277176
1761476315576902100,7.983902099609375,-0.0021335924975574017,0.004951211158186197,0.0026067420840263367
1761476315586935000,7.99393505859375,0.0016567790880799294,0.006123595405369997,0.0006286110728979111
1761476315596967000,8.003966796875,0.0016746222972869873,0.0016385656781494617,-0.0002651456743478775
1761476315607001000,8.0140009765625,0.0024428358301520348,-0.000574497040361166,-0.002776768058538437
1761476315617034200,8.0240341796875,0.0036186212673783302,-0.0030493722297251225,-0.0005591539666056633
1761476315627067100,8.034067138671874,0.004503428004682064,-0.005793287418782711,-0.0015437910333275795
1761476315637101000,8.04410107421875,0.002650666981935501,-0.002893637865781784,0.0001768777146935463
1761476315647134000,8.054134033203125,0.001566126011312008,0.0007848511449992657,0.0034804511815309525
1761476315657167000,8.0641669921875,-0.0021886643953621387,0.009276872500777245,0.0026194509118795395
1761476315667201000,8.074200927734376,-0.003088494297116995,0.013853335753083229,0.00029378198087215424
1761476315677234200,8.084234130859375,-0.0022780941799283028,0.011135579086840153,-0.0006590969860553741
1761476315687267000,8.09426708984375,-0.0021509528160095215,0.006486538797616959,-0.0008238358423113823
1761476315697301200,8.10430126953125,0.0009252643212676048,-0.0032347985543310642,0.00011253170669078827
1761476315707334100,8.114334228515625,-0.0027118162252008915,-0.006946279667317867,0.00221092626452446
1761476315717367300,8.1243671875,-0.00024226680397987366,-0.006710057146847248,0.00007613655179738998
1761476315727401000,8.13440087890625,-0.0010296017862856388,-0.006111017893999815,0.0007955804467201233
1761476315737434000,8.14443408203125,-0.0019201627001166344,-0.0008379588834941387,-0.0007384000346064568
1761476315747467000,8.154467041015625,0.00037148501724004745,0.003431586781516671,0.0006570369005203247
1761476315757501200,8.164501220703125,-0.0047830636613070965,0.0063831680454313755,-0.0004865238443017006
1761476315767534000,8.1745341796875,-0.004979175981134176,0.007501885760575533,-0.0001301625743508339
1761476315777567200,8.184567138671875,-0.0036364104598760605,0.007079508155584335,-0.001105411909520626
1761476315787600100,8.19460009765625,-0.002224401105195284,0.004557996988296509,-0.0008812304586172104
1761476315797634000,8.204634033203124,-0.0005759047344326973,-0.0015667406842112541,-0.003797125071287155
1761476315807667000,8.2146669921875,0.001924852840602398,-0.0022980584762990475,0.000680076889693737
1761476315817700000,8.2247001953125,0.0030026333406567574,-0.003257329110056162,0.0007985876873135567
1761476315827734000,8.234734130859374,0.0011036917567253113,-0.0032607666216790676,0.00009178835898637772
1761476315837767200,8.24476708984375,0.0018853293731808662,-0.002590182702988386,-0.002282951958477497
1761476315847800000,8.254800048828125,0.0017217602580785751,-0.00046426616609096527,0.0011926684528589249
1761476315857834000,8.264833984375,0.0008740760385990143,0.0019000880420207977,-0.0036841118708252907
1761476315867867000,8.274866943359376,0.0017734160646796227,0.005602036137133837,0.0002654353156685829
1761476315877900000,8.284900146484375,0.0011363876983523369,0.0010134093463420868,-0.0016933195292949677
1761476315887934200,8.294934326171875,0.0018888944759964943,0.0001628953032195568,-0.00045215804129838943
1761476315897967000,8.304967041015624,0.0014497395604848862,0.0033877172973006964,-0.0007269959896802902
1761476315908000000,8.315,0.0005402108654379845,0.0018410589545965195,-0.0016241427510976791
1761476315918034200,8.3250341796875,0.0009008031338453293,0.0026554535143077374,-0.0008925730362534523
1761476315928067300,8.3350673828125,0.0013133315369486809,0.005001204553991556,0.0006015235558152199
1761476315938100200,8.345100341796876,0.0015396997332572937,0.0037745526060462,0.0008071195334196091
1761476315948132900,8.3551328125,0.00007410626858472824,0.008753476664423943,0.0013745082542300224
1761476315958167000,8.3651669921875,-0.0005922163836658001,0.0036593819968402386,0.00019499380141496658
1761476315968200200,8.3752001953125,-0.002309736330062151,0.004752031527459621,-0.0000319136306643486
1761476315978233000,8.385233154296875,0.001092451624572277,-0.0022174613550305367,0.002672792412340641
1761476315988267300,8.395267333984375,0.0022331345826387405,-0.010389554314315319,-0.0015543736517429352
1761476315998300200,8.405300048828124,0.0015654806047677994,-0.014823450706899166,-0.004868677351623774
1761476316008333300,8.415333251953125,0.002812259830534458,-0.006730919238179922,-0.0019864002242684364
1761476316018367000,8.425366943359375,0.0004444429650902748,0.004429589956998825,-0.0024151690304279327
1761476316028400000,8.435400146484374,0.0004256507381796837,0.01463700644671917,-0.0016520489007234573
1761476316038433000,8.44543310546875,-0.0021477611735463142,0.021339917555451393,-0.002366042695939541
1761476316048467200,8.45546728515625,0.0010387618094682693,0.015855487436056137,-0.0037569422274827957
1761476316058500000,8.4655,-0.0008829748257994652,0.0036283826921135187,-0.0035505471751093864
1761476316068533200,8.475533203125,-0.0027313176542520523,-0.015798555687069893,0.0024964287877082825
1761476316078566100,8.485566162109375,-0.004769967403262854,-0.027361469343304634,0.0024727266281843185
1761476316088600000,8.49560009765625,0.0013221269473433495,-0.03231889382004738,-0.0020151138305664062
1761476316098633000,8.505633056640624,-0.000456332229077816,-0.028575554490089417,-0.004718488547950983
1761476316108666000,8.515666015625,0.000029828399419784546,-0.021620918065309525,-0.000356343574821949
1761476316118700000,8.525699951171875,-0.0029289433732628822,-0.012859119102358818,0.00018081534653902054
1761476316128733200,8.535733154296874,-0.0015145228244364262,-0.0032606981694698334,0.0017557404935359955
1761476316138766000,8.54576611328125,-0.003677808679640293,0.0017894543707370758,-0.0005833134055137634
1761476316148800300,8.55580029296875,-0.0025854790583252907,0.009090114384889603,0.001080288551747799
1761476316158833200,8.565833251953125,-0.0032299640588462353,0.009057890623807907,-0.0010126903653144836
1761476316168866000,8.575865966796876,-0.0005940888077020645,0.008764049038290977,0.001350410282611847
1761476316178902300,8.58590234375,0.002490917220711708,0.012221365235745907,0.0050263721495866776
1761476316188935200,8.59593505859375,0.0016165003180503845,0.010099725797772408,0.004232080653309822
1761476316198968000,8.605968017578125,-0.0006634313613176346,0.01020225789397955,0.002259744331240654
1761476316209002000,8.616001953125,0.0018222518265247345,0.005089809186756611,0.00015744566917419434
1761476316219035100,8.62603515625,0.0014259740710258484,0.00009957794100046158,0.0008655805140733719
1761476316229068000,8.636068115234375,0.0015802998095750809,-0.009877578355371952,-0.0015994478017091751
1761476316239102200,8.646102294921874,0.0010681739076972008,-0.00950180646032095,-0.0017555085942149162
1761476316249135000,8.656135009765626,0.0020522484555840492,-0.00612892210483551,0.0012404192239046097
1761476316259168300,8.666168212890625,0.0036123283207416534,0.0021724170073866844,0.00211393553763628
1761476316269201200,8.676201171875,0.0033329585567116737,0.010466258972883224,-0.0005852421745657921
1761476316279235000,8.686235107421876,0.003489285707473755,0.01483331061899662,0.00015325285494327545
1761476316289268000,8.69626806640625,0.006361697800457478,0.010813551023602486,-0.0009728008881211281
1761476316299301000,8.706301025390625,0.004191221669316292,0.00567897642031312,-0.0006731953471899033
1761476316309335000,8.7163349609375,0.000491902232170105,-0.0026039620861411095,-0.0015761405229568481
1761476316319368200,8.7263681640625,0.0009611519053578377,-0.006509753875434399,-0.002645133063197136
1761476316329401000,8.736401123046875,0.003003203310072422,-0.0072715808637440205,-0.0048315199092030525
1761476316339435000,8.74643505859375,0.002995479851961136,-0.007155733648687601,-0.0004274509847164154
1761476316349468000,8.756468017578126,0.0008220281451940536,-0.00424680532887578,-0.0006199991330504417
1761476316359501000,8.7665009765625,0.0008734278380870819,0.0018086903728544712,0.000695335678756237
1761476316369534000,8.776533935546874,-0.00021315738558769226,0.007967127487063408,0.0008346885442733765
1761476316379568000,8.786568115234376,0.0015807487070560455,0.011884370818734169,0.0019122036173939705
1761476316389601000,8.79660107421875,-0.002311413176357746,0.010013582184910774,0.00009173154830932617
1761476316399634200,8.80663427734375,0.00043324101716279984,0.004981006029993296,0.0016989493742585182
1761476316409668000,8.816668212890624,-0.0036438624374568462,0.001014546025544405,-0.0027301600202918053
1761476316419701000,8.826700927734375,-0.0030055027455091476,-0.006574397906661034,-0.0020188288763165474
1761476316429734000,8.83673388671875,-0.0019414378330111504,-0.00906380731612444,-0.0011357832700014114
1761476316439768000,8.84676806640625,-0.0029393243603408337,-0.008582040667533875,-0.002727821469306946
1761476316449801200,8.85680126953125,0.0009463699534535408,-0.007251593749970198,-0.0034161191433668137
1761476316459834000,8.866834228515625,-0.0006432714872062206,-0.00016465550288558006,-0.004879259970039129
1761476316469867000,8.876866943359374,0.0018063178285956383,0.006820636801421642,0.0012570656836032867
1761476316479897900,8.88689794921875,0.0002933759242296219,0.0036320341750979424,0.0007223030552268028
1761476316489930800,8.8969306640625,0.0012453701347112656,-0.0003877803683280945,-0.0032768473029136658
1761476316499963600,8.906963623046876,0.002182270400226116,-0.0036381687968969345,-0.0019471310079097748
1761476316509997800,8.916997802734375,0.00009666755795478821,-0.01033049263060093,-0.0029801568016409874
1761476316520030700,8.92703076171875,-0.00012064632028341293,-0.011989109218120575,-0.0023873373866081238
1761476316530064000,8.93706396484375,0.0005775289610028267,-0.006916523911058903,-0.004055475816130638
1761476316540096800,8.9470966796875,0.0019362736493349075,0.0012529892846941948,-0.0005523534491658211
1761476316550131000,8.957130859375,-0.0008373837918043137,0.007405897602438927,0.0030177338048815727
1761476316560163800,8.967163818359374,0.0005589118227362633,0.009089814499020576,0.0009484579786658287
1761476316570197000,8.977197021484375,-0.0011352552101016045,0.0058336881920695305,0.0009673144668340683
1761476316580230700,8.987230712890625,-0.0002449601888656616,0.002358263125643134,0.002342836931347847
1761476316590263800,8.997263916015624,-0.0035256254486739635,-0.005368032958358526,-0.0018292833119630814
1761476316600296700,9.007296630859376,-0.0025184177793562412,-0.0029120654799044132,0.0016504032537341118
1761476316610331000,9.017330810546875,0.0008492134511470795,-0.004430693574249744,-0.0018767481669783592
1761476316620363800,9.02736376953125,0.0004036668688058853,-0.0013906951062381268,-0.0030631860718131065
1761476316630397000,9.03739697265625,0.0013518156483769417,0.0024369689635932446,-0.0005087433382868767
1761476316640429800,9.047429931640625,0.0013725878670811653,0.0010694358497858047,0.0004523908719420433
1761476316650463700,9.057463623046875,0.00185396708548069,-0.000601193867623806,-0.0008020307868719101
1761476316660496600,9.06749658203125,0.001439579762518406,0.0010675429366528988,0.0016456805169582367
1761476316670529800,9.07752978515625,0.0018717627972364426,0.012163524515926838,-0.0002686642110347748
1761476316680562700,9.087562744140625,0.003348485566675663,0.009933127090334892,-0.00009795557707548141
1761476316690596900,9.097596923828124,0.0028059128671884537,0.011555185541510582,-0.00047531910240650177
1761476316700629800,9.107629638671876,-0.0004580570384860039,0.006994788069278002,0.0009079268202185631
1761476316710663000,9.117662841796875,-0.0003064628690481186,-0.0007313773967325687,-0.0001074913889169693
1761476316720696600,9.127696533203125,-0.002884136512875557,-0.013683928176760674,0.0022515365853905678
1761476316730729700,9.137729736328126,-0.006812015548348427,-0.027589261531829834,0.004234137013554573
1761476316740762600,9.1477626953125,-0.002152814995497465,-0.030199158936738968,0.00020397640764713287
1761476316750796800,9.157796875,-0.004911462776362896,-0.02731492556631565,-0.0017043715342879295
1761476316760829700,9.16782958984375,-0.004485622979700565,-0.016983991488814354,-0.002134738489985466
1761476316770862800,9.17786279296875,-0.00004685204476118088,0.0002728234976530075,0.002751881256699562
1761476316780895700,9.187895751953125,-0.0009944052435457706,0.010754493065178394,0.0031873080879449844
1761476316790930000,9.197929931640624,-0.002312322612851858,0.017600413411855698,0.0019069407135248184
1761476316800962600,9.207962646484376,-0.0014252238906919956,0.014206481166183949,0.0014984123408794403
1761476316810995700,9.21799560546875,0.0008730683475732803,0.011591164395213127,0.0015201102942228317
1761476316821029600,9.228029541015625,-0.0002382686361670494,0.007609473075717688,0.0016215769574046135
1761476316831062800,9.238062744140626,-0.003258559387177229,0.002805130323395133,0.0015728408470749855
1761476316841095700,9.248095703125,-0.0011221719905734062,0.0009031007066369057,0.0034194765612483025
1761476316851128800,9.25812890625,-0.0023380834609270096,0.005140297114849091,0.0018679723143577576
1761476316861162800,9.268162841796874,0.00003053247928619385,0.006065479014068842,-0.0005254102870821953
1761476316871196000,9.27819580078125,-0.0007131276652216911,0.0007410845719277859,0.001963915303349495
1761476316881228800,9.288228759765625,0.003287739120423794,-0.005018000956624746,-0.001802327111363411
1761476316891262700,9.2982626953125,0.0036443453282117844,-0.004504761658608913,0.0002747438848018646
1761476316901295600,9.308295654296876,0.0032355505973100662,-0.0030488111078739166,0.00032907258719205856
1761476316911328800,9.318328857421875,0.002431057393550873,-0.0007014237344264984,0.0004050368443131447
1761476316921361700,9.328361572265624,0.0019506225362420082,0.006268068682402372,-0.000995519571006298
1761476316931395800,9.338395751953126,-0.0011277818121016026,0.00920088216662407,0.00024244841188192368
1761476316941428700,9.3484287109375,-0.0004886230453848839,0.008574239909648895,0.0024009402841329575
1761476316951462000,9.3584619140625,-0.002964526880532503,0.00624879403039813,0.001709037460386753
1761476316961495800,9.368495849609374,-0.002673177048563957,0.0030836269725114107,-0.0006233593448996544
1761476316971528700,9.37852880859375,-0.0040262360125780106,-0.00016208365559577942,0.0011533573269844055
1761476316981561600,9.3885615234375,-0.002093580085784197,-0.00508866598829627,-0.0009100595489144325
1761476316991594800,9.3985947265625,0.0006373990327119827,-0.0041125002317130566,-0.000403381884098053
1761476317001629000,9.40862890625,-0.0028915563598275185,-0.004192661959677935,0.00196203775703907
1761476317011661800,9.418661865234375,-0.004380614496767521,-0.0009841886349022388,-0.0017829490825533867
1761476317021694700,9.42869482421875,0.0009776661172509193,0.0004366077482700348,-0.002539287321269512
1761476317031727900,9.438727783203126,-0.00033406540751457214,0.0016573639586567879,0.0032088011503219604
1761476317041761800,9.44876171875,-0.002307734452188015,0.0006629396229982376,-0.0014722375199198723
1761476317051794700,9.458794677734375,0.0006518950685858727,0.006397119257599115,-0.0014334851875901222
1761476317061827600,9.46882763671875,-0.0012064585462212563,0.004635438323020935,0.0017596445977687836
1761476317071861800,9.47886181640625,-0.0013546934351325035,0.003657461842522025,-0.0013850852847099304
1761476317081895000,9.48889501953125,0.00005118921399116516,0.0027746239211410284,-0.0007171640172600746
1761476317091927800,9.498927734375,0.0005388036370277405,0.005565032362937927,0.00046680308878421783
1761476317101960700,9.508960693359375,0.0004370715469121933,0.0032773769926279783,0.0006742635741829872
1761476317111994600,9.51899462890625,-0.0006222003139555454,-0.0010038325563073158,-0.001344257965683937
1761476317122027800,9.52902783203125,-0.00022831931710243225,-0.00020807981491088867,-0.0016249548643827438
1761476317132060700,9.539060791015626,-0.0013946406543254852,-0.00778188044205308,-0.001387747935950756
1761476317142094800,9.5490947265625,0.0029260721057653427,-0.008664185181260109,0.0002482319250702858
1761476317152127700,9.559127685546875,0.0024991193786263466,-0.006148639600723982,-0.0021819639950990677
1761476317162161000,9.569160888671876,0.0014980370178818703,-0.003033274319022894,0.0017011910676956177
1761476317172193800,9.57919384765625,0.0007653357461094856,0.0027658476028591394,-0.0003262180835008621
1761476317182228000,9.58922802734375,0.0007187305018305779,0.004490776918828487,-0.0019123973324894905
1761476317192260900,9.5992607421875,-0.001402443740516901,0.004693998489528894,-0.001265532337129116
1761476317202293800,9.609293701171875,-0.0016932608559727669,0.004069221206009388,0.0010671308264136314
1761476317212326700,9.61932666015625,-0.0004160907119512558,0.0030190383549779654,-0.0002503786236047745
1761476317222360800,9.62936083984375,-0.002043815329670906,0.0017252746038138866,0.0012867972254753113
1761476317232393700,9.639393798828126,0.0012837443500757217,0.002297316212207079,0.0005878591910004616
1761476317242427000,9.649427001953125,0.0011961264535784721,0.0030169023666530848,0.0000962400808930397
1761476317252459800,9.659459716796874,-0.0012076287530362606,0.0002387501299381256,-0.00043391622602939606
1761476317262494000,9.669493896484376,-0.0005101468414068222,0.000661926344037056,0.0008233627304434776
1761476317272526800,9.67952685546875,-0.0005066385492682457,-0.0028098225593566895,0.0028764382004737854
1761476317282559700,9.689559814453125,0.0006638206541538239,0.0001068715937435627,0.0018591107800602913
1761476317292593700,9.69959375,-0.00036356784403324127,0.002986675361171365,-0.00045007094740867615
1761476317302626800,9.709626708984375,-0.00019339192658662796,0.009670410305261612,-0.0005318298935890198
1761476317312659700,9.71965966796875,0.0026711393147706985,0.008378535509109497,-0.0014325259253382683
1761476317322692900,9.72969287109375,0.00018880702555179596,0.003766738809645176,-0.0011542253196239471
1761476317332726800,9.739726806640626,-0.003348794300109148,-0.010582784190773964,0.0017174547538161278
1761476317342760000,9.749760009765625,-0.002570352517068386,-0.022266870364546776,0.0013555316254496574
1761476317352792800,9.759792724609374,-7.525086402893066e-7,-0.029908806085586548,0.0015554120764136314
1761476317362826800,9.76982666015625,-0.0016188891604542732,-0.018033504486083984,0.0024390490725636482
1761476317372859600,9.779859619140625,-0.0019032466225326061,-0.009642109274864197,-0.0009059188887476921
1761476317382892800,9.789892822265625,-0.003261458594352007,-0.0016257287934422493,-0.0037331311032176018
1761476317392925700,9.79992578125,0.002271881327033043,0.0009118756279349327,0.0009301807731389999
1761476317402960000,9.8099599609375,-0.0003430759534239769,0.0029856793116778135,0.004868995398283005
1761476317412992800,9.81999267578125,-0.004154858645051718,0.0038541359826922417,0.0021291356533765793
1761476317423026000,9.83002587890625,-0.0032256818376481533,0.001628798432648182,0.00031232740730047226
1761476317433058800,9.840058837890625,-0.003099896013736725,0.0010801628232002258,-0.002268509939312935
1761476317443092700,9.8500927734375,-0.002303078304976225,0.0009778975509107113,-0.0031095361337065697
1761476317453125600,9.860125732421874,-0.00021814461797475815,0.00037286384031176567,0.0017227120697498322
1761476317463158800,9.87015869140625,-0.0011728876270353794,0.0021220282651484013,0.000024946406483650208
1761476317473191700,9.880191650390625,-0.0004595313221216202,0.0035977507941424847,0.004289270378649235
1761476317483229200,9.890229248046875,-0.00047151464968919754,0.004306151531636715,0.0014535356312990189
1761476317493262000,9.900261962890625,0.002186685800552368,0.004974108189344406,0.0003558974713087082
1761476317503295200,9.910295166015626,0.001260705292224884,0.002298163715749979,0.002786031924188137
1761476317513329200,9.9203291015625,0.0017506685107946396,-0.002473284024745226,0.002236749976873398
1761476317523362000,9.930362060546875,0.0011938009411096573,-0.002757976297289133,-0.00021682027727365494
1761476317533395000,9.94039501953125,-0.0003684656694531441,-0.0032642101868987083,-0.001921570859849453
1761476317543428000,9.950427978515625,-0.0017700870521366596,-0.0006540459580719471,-0.003209741786122322
1761476317553462000,9.9604619140625,-0.0015271375887095928,0.004738611169159412,-0.0008931849151849747
1761476317563495200,9.9704951171875,-0.004135170951485634,0.00785504188388586,0.0019622566178441048
1761476317573528000,9.980528076171876,-0.002963393460959196,0.00931333377957344,-0.0011241594329476357
1761476317583561200,9.990561279296875,-0.0055019184947013855,0.00604696711525321,-0.0011177677661180496
1761476317593595100,10.00059521484375,0.0007828781381249428,0.004003420472145081,-0.0002550901845097542
1761476317603628000,10.0106279296875,-0.001347117591649294,-0.0034811273217201233,0.00040404219180345535
1761476317613661000,10.020660888671875,-0.003967230208218098,-0.009807510301470757,0.0016784314066171646
1761476317623694000,10.030694091796875,-0.003051635343581438,-0.01151486299932003,-0.00048378854990005493
1761476317633728000,10.04072802734375,-0.002969115972518921,-0.010228725150227547,-0.00291256420314312
1761476317643761200,10.05076123046875,-0.001339261420071125,-0.0035790777765214443,0.0015615466982126236
1761476317653794000,10.0607939453125,-0.0020923446863889694,-0.00003028661012649536,-0.0031640930101275444
1761476317663827200,10.0708271484375,-0.0011463901028037071,0.004666464403271675,-0.002489781007170677
1761476317673861000,10.080861083984376,-0.00013172533363103867,0.009132585488259792,0.0003326376900076866
1761476317683894300,10.090894287109375,0.0002182135358452797,0.011616782285273075,-0.0020407717674970627
1761476317693927200,10.10092724609375,-0.0015051616355776787,0.00876233447343111,0.001462290994822979
1761476317703961000,10.110961181640626,-0.004118788056075573,0.004387826193124056,-0.004180148243904114
1761476317713994000,10.120993896484375,-0.001378366257995367,-0.001727044116705656,-0.0028456607833504677
1761476317724027100,10.131027099609375,-0.0031376504339277744,-0.0051239063031971455,-0.0035498011857271194
1761476317734060000,10.14106005859375,-0.00046510808169841766,-0.007349114399403334,-0.003873235546052456
1761476317744094200,10.15109423828125,0.00006486102938652039,-0.0072380597703158855,-0.0014625415205955505
1761476317754127000,10.161127197265625,-0.00005348864942789078,-0.00848180241882801,-0.00040592625737190247
1761476317764160300,10.17116015625,0.0030059507116675377,-0.007253286894410849,-0.0042406124994158745
1761476317774193200,10.181193115234375,0.0027566803619265556,-0.005942101124674082,0.0008363677188754082
1761476317784227000,10.19122705078125,0.0019239094108343124,-0.0034784101881086826,0.0020595574751496315
1761476317794260000,10.201260009765624,-0.0006471015512943268,-0.003758694976568222,-0.000937306322157383
1761476317804293000,10.211293212890626,0.0005340101197361946,0.0008997069671750069,0.0019780555739998817
1761476317814326000,10.221325927734375,0.000139518640935421,0.001347048208117485,-0.0013785390183329582
1761476317824360200,10.231360107421875,-0.0007939194329082966,0.0009041647426784039,0.00008753035217523575
1761476317834393000,10.24139306640625,0.0013740407302975655,0.003276779782027006,0.0014875419437885284
1761476317844426200,10.25142626953125,-0.0025440016761422157,0.0003856522962450981,-0.002650744281709194
1761476317854459100,10.261459228515625,-0.004052491392940283,0.0016424697823822498,-0.0012783780694007874
1761476317864493000,10.2714931640625,-0.0037251892499625683,0.00244141835719347,-0.002222469076514244
1761476317874526000,10.28152587890625,-0.0023204758763313293,-0.0010880031622946262,-0.003460235893726349
1761476317884559000,10.29155908203125,-0.0015894384123384953,-0.005691809114068747,-0.0002460675314068794
1761476317894592000,10.301592041015626,-0.00210421159863472,-0.006000940687954426,-0.0013810209929943085
1761476317904626200,10.311626220703126,-0.0008144425228238106,0.0006678812205791473,0.0003721378743648529
1761476317914659000,10.3216591796875,0.0015047872439026833,0.004553546197712421,0.000604012981057167
1761476317924692200,10.331692138671874,0.0003910530358552933,0.012015989981591702,0.00006285868585109711
1761476317934725000,10.34172509765625,-0.0007619177922606468,0.01195874996483326,-0.001535077579319477
1761476317944759000,10.351759033203125,-0.0029486394487321377,0.003431840566918254,0.003340904600918293
1761476317954792000,10.3617919921875,-0.004670862108469009,-0.010385101661086082,0.002542811445891857
1761476317964825000,10.3718251953125,-0.004502549767494202,-0.020980488508939743,-0.00012194737792015076
1761476317974859000,10.38185888671875,-0.0022700363770127296,-0.025865472853183746,-0.0011719223111867905
1761476317984892200,10.39189208984375,-0.00186550198122859,-0.025075847283005714,-0.003357311710715294
1761476317994925000,10.401925048828126,0.0021103015169501305,-0.01679486781358719,-0.0005299998447299004
1761476318004958200,10.411958251953125,0.0026700980961322784,-0.00790230743587017,0.004201903939247131
1761476318014992000,10.421991943359375,-0.001059229951351881,0.0024268291890621185,0.0053684404119849205
1761476318025025000,10.43202490234375,0.0023514805361628532,0.010971315205097198,0.004477613605558872
1761476318035058000,10.442057861328125,-0.0030890819616615772,0.00927029736340046,0.0015730522572994232
1761476318045091000,10.452091064453125,-0.002564439084380865,0.008283862844109535,-0.001605430617928505
1761476318055125000,10.462125,-0.0022056330926716328,0.005657116882503033,-0.0009471345692873001
1761476318065158100,10.472158203125,-0.001953964587301016,0.0015627732500433922,-0.000852060504257679
1761476318075191000,10.48219091796875,0.002804984338581562,-0.00002153916284441948,0.0008787121623754501
1761476318085224200,10.49222412109375,0.0036992738023400307,0.0018858169205486774,0.0030427975580096245
1761476318095257000,10.502257080078126,0.002922660671174526,0.008008294738829136,0.0031656576320528984
1761476318105291000,10.512291015625,0.004818298853933811,0.012659238651394844,0.0019746916368603706
1761476318115324000,10.522323974609375,0.002078843303024769,0.009038735181093216,0.0014573456719517708
1761476318125357000,10.532357177734376,-0.00017339177429676056,0.0029893650207668543,-0.0024870624765753746
1761476318135391000,10.542390869140625,0.0005270801484584808,-0.005866046529263258,-0.0035114390775561333
1761476318145424100,10.552424072265625,0.0039505735039711,-0.007082045543938875,-0.0008887574076652527
1761476318155457000,10.56245703125,-0.00012350454926490784,-0.0028215167112648487,-0.003980454057455063
1761476318165490200,10.572490234375,0.001716739498078823,0.0038214719388633966,0.0003892611712217331
1761476318175524000,10.582524169921875,-0.00013773329555988312,0.013041992671787739,0.0015452606603503227
1761476318185557200,10.59255712890625,0.0016774768009781837,0.015533380210399628,-0.0021690502762794495
1761476318195590100,10.602590087890626,-0.00010071508586406708,0.016254831105470657,-0.0013256268575787544
1761476318205623000,10.612623046875,-0.0019537429325282574,0.010182023979723454,0.0007524378597736359
1761476318215657000,10.622656982421875,-0.0017824452370405197,0.001227084081619978,-0.00008079316467046738
1761476318225690000,10.632690185546876,0.00047484971582889557,-0.006240153685212135,0.0018896795809268951
1761476318235723000,10.642722900390625,0.0004982016980648041,-0.009163636714220047,-0.0035685719922184944
1761476318245756200,10.652756103515625,0.0016345726326107979,-0.005106043536216021,-0.0027437908574938774
1761476318255790000,10.6627900390625,0.0024245288223028183,0.00019990559667348862,0.0019507063552737236
1761476318265823200,10.6728232421875,0.0026442399248480797,0.00526284147053957,0.00028356723487377167
1761476318275856100,10.682856201171875,0.0019633816555142403,0.013003913685679436,0.0021093040704727173
1761476318285889000,10.692888916015624,0.0013013193383812904,0.013891544193029404,-0.00034293439239263535
1761476318295923000,10.7029228515625,0.002016644924879074,0.011138102039694786,-0.0011916840448975563
1761476318305956000,10.7129560546875,0.002521313726902008,0.011500558815896511,-0.00013281125575304031
1761476318315989000,10.722989013671874,0.0020372020080685616,0.010824920609593391,0.0012423768639564514
1761476318326022100,10.733022216796876,0.0030694426968693733,0.009663515724241734,0.0012282617390155792
1761476318336055000,10.743054931640625,0.002743125893175602,0.01573372259736061,0.004486937075853348
1761476318346089200,10.753089111328125,-0.0007583983242511749,0.0503084771335125,0.015656234696507454
1761476318356122000,10.7631220703125,-0.0013422667980194092,0.08969003707170486,0.019588463008403778
1761476318366155300,10.7731552734375,-0.004483731463551521,0.08373893797397614,0.007139251567423344
1761476318376189000,10.78318896484375,-0.00048405304551124573,0.05689818784594536,0.00022605899721384048
1761476318386222000,10.79322216796875,-0.0006590229459106922,0.01000071968883276,-0.005511988420039415
1761476318396255000,10.8032548828125,-0.0020941668190062046,-0.025775905698537827,-0.0017253262922167778
1761476318406288100,10.8132880859375,-0.002240107860416174,-0.034127313643693924,0.001997239887714386
1761476318416321000,10.823321044921874,0.001664792187511921,-0.0296279676258564,-0.0019942233338952065
1761476318426355200,10.833355224609376,0.0023071467876434326,-0.043736863881349564,-0.011034855619072914
1761476318436388000,10.84338818359375,0.0071787359192967415,-0.07988487929105759,-0.03070579282939434
1761476318446421200,10.853421142578124,0.011734871193766594,-0.09965432435274124,-0.02865915186703205
1761476318456454100,10.8634541015625,0.0008788304403424263,-0.07481928169727325,-0.010229128412902355
1761476318466488000,10.873488037109375,-0.004190762992948294,-0.028926895931363106,0.0023465845733880997
