time,seconds_elapsed,z,y,x
1761475305875459600,0.06145947265625,-0.00002864157259464264,0.007136408343230141,-0.01592350878622383
1761475305885436700,0.071436767578125,0.006556582036614417,-0.017941973610810236,-0.010487656141538172
1761475305895413800,0.081413818359375,-0.008405424773693083,-0.01401231971141533,-0.005639120131824165
1761475305905390800,0.091390869140625,-0.002122398981451988,0.000621797718241578,-0.012447941630147397
1761475305915367700,0.10136767578125,0.002664250773191452,0.01594080469760811,-0.007874203973822295
1761475305925345500,0.111345458984375,0.002220014137029648,-0.017645252261625135,-0.0012639737875200807
1761475305935323000,0.121322998046875,-0.0024216741889715194,-0.004699578825966454,-0.009005454759765415
1761475305945299700,0.1312998046875,0.010898410633206367,0.004630195392674068,-0.014890823003929108
1761475305955276800,0.14127685546875,0.008508300626277924,-0.003736744551133597,-0.016676555643230676
1761475305965253600,0.151253662109375,0.01703472143113613,-0.004767024888854939,-0.006158741825446486
1761475305975230700,0.161230712890625,-0.004513093510270119,0.0008913981650606729,-0.006906710648536682
1761475305985207800,0.171207763671875,0.011648352217674254,-0.003970061258308124,-0.011676153540052473
1761475305995184600,0.1811845703125,-0.00046761751174926756,-0.0026711839791212695,-0.008354754032380878
1761475306005161700,0.19116162109375,0.007613397613167762,-0.0168461548978521,-0.009249145588837564
1761475306015138600,0.201138671875,0.0029728783309459685,-0.009441200987150658,-0.0097597619920969
1761475306025115600,0.21111572265625,0.005370002600550651,-0.005230068973475136,-0.010109945402946323
1761475306035093800,0.22109375,0.0014776713371276854,-0.00033658300211536696,-0.005673131999280303
1761475306045070600,0.231070556640625,-0.0063046531021595,-0.009979853891517268,0.010891615566238761
1761475306055047700,0.241047607421875,0.0068634560286998745,-0.012015007272711955,-0.007819953035935759
1761475306065024500,0.2510244140625,0.004022095122933387,0.0015566731237806378,0.01066120434384793
1761475306075001600,0.261001708984375,0.008662029883265495,-0.00564078008265933,-0.008300539627112448
1761475306084979000,0.27097900390625,0.0049169981360435485,-0.009511494310962734,0.004715137154702097
1761475306094955800,0.280955810546875,-0.007953589352965354,-0.017044991663401014,-0.005519037416111677
1761475306104932900,0.290932861328125,0.00327039997279644,-0.0014028708015568553,-0.002345467147603631
1761475306114909700,0.30090966796875,0.003119593325257301,0.007332625035074306,0.0040406719592399895
1761475306124886800,0.31088671875,0.005963292318582535,0.0022904193419846703,-0.006105714730266481
1761475306134865000,0.320864990234375,0.006413958695530891,-0.009219137467996916,-0.012481131513696163
1761475306144841700,0.330841796875,0.007460252878069877,-0.01028241018480039,-0.013566296401899307
1761475306154818800,0.34081884765625,0.005514964029192924,-0.013957045860221841,-0.012959873207658528
1761475306164795600,0.350795654296875,0.0023725743502378462,-0.007306398040207568,0.0014072181831113993
1761475306174772700,0.360772705078125,0.019431261178851127,0.004569475898094242,-0.006529493100289255
1761475306184749600,0.37074951171875,0.00042670097947120663,0.004840496550442185,-0.010313760879356414
1761475306194726700,0.3807265625,0.020178280153870583,0.00025085008057649247,-0.013329364107176661
1761475306204703700,0.390703857421875,-0.002420505145192146,0.003158446906256722,-0.010600925523974
1761475306214680600,0.4006806640625,-0.0057125324279069896,0.004009386338409968,-0.00387629344407469
1761475306224657700,0.41065771484375,-0.000027472528815269467,-0.00466838339503738,-0.014706643809750675
1761475306234635500,0.420635498046875,0.00805354259610176,0.0012397206956753506,-0.003018909429758787
1761475306244612600,0.430612548828125,0.01613455772101879,0.001331776043435093,-0.007946447226125747
1761475306254589700,0.440589599609375,0.01224631811082363,-0.012726845336495898,-0.015328173241578041
1761475306264566800,0.45056689453125,0.010898410633206367,-0.004191600762720918,-0.007893694125581533
1761475306274543900,0.4605439453125,0.004615384840965271,0.010949944457621314,0.0065359045747667545
1761475306284520700,0.470520751953125,0.0005763385832309722,-0.001760515999654308,-0.00944037557831034
1761475306294497800,0.480497802734375,0.013145897299051284,0.0030050875420274677,-0.0058399764661677175
1761475306304474600,0.490474609375,0.013594225588440895,-0.0005134819304919801,-0.009598835809342562
1761475306314451700,0.50045166015625,0.015242577317357063,0.0046598735783074515,-0.009231226339656859
1761475306324428800,0.5104287109375,0.00012976385951042174,-0.0019327650107326916,-0.019088658286258577
1761475306334406700,0.52040673828125,0.004471007934212685,-0.011405892081174533,-0.01181459389636293
1761475306344383700,0.5303837890625,0.007615151178836822,-0.0026140481060487218,0.0037983145707286893
1761475306354360800,0.54036083984375,0.0011807342171669005,0.0022191213711746966,-0.0012908069955185055
1761475306364337700,0.550337646484375,0.00791851803958416,-0.000057885933388024564,0.003219473503157496
1761475306374314800,0.560314697265625,-0.0110842885941267,0.0010885578551096842,0.005077449394762516
1761475306384291600,0.57029150390625,0.01674889022707939,0.00043832748518325384,-0.003299881795607507
1761475306394268700,0.5802685546875,-0.000009352350234985351,0.00322057176498929,-0.014325499005056917
1761475306404245500,0.59024560546875,-0.010334347009658813,0.006972277564881369,-0.021951244643144307
1761475306414222600,0.60022265625,0.011815525478124618,-0.0103052305130288,-0.009545370322745293
1761475306424200000,0.610199951171875,0.006428571742773056,0.00010463969305274077,0.006772014885582029
1761475306434177500,0.620177490234375,0.012268529942631721,0.004478248242463451,0.0033482692482881245
1761475306444154600,0.630154541015625,0.002543254742026329,-0.00008152482059085742,-0.005726725350040942
1761475306454131700,0.640131591796875,0.0002986906856298446,-0.004644789031962864,-0.0013915456899441779
1761475306464108800,0.65010888671875,-0.0007470189750194549,0.0008900007924181408,0.00032758798655122516
1761475306474086000,0.6600859375,-0.005835866546630859,0.0011075125756848138,-0.019618125520460307
1761475306484062700,0.670062744140625,0.000602057546377182,-0.007120159319683443,-0.009593648177571594
1761475306494039800,0.680039794921875,-0.01017068088054657,-0.005534092279704054,0.0015264789149165153
1761475306504016600,0.6900166015625,0.00703705902993679,-0.001993104337755358,0.006134520699642598
1761475306513993700,0.69999365234375,-0.010320903006196022,0.005394498862634645,0.006429010134190321
1761475306523970600,0.709970458984375,0.009581482815742491,-0.009219879536802181,-0.0037171025606803593
1761475306533948700,0.71994873046875,0.0058376201122999185,-0.006281043897708878,0.0028876294665969907
1761475306543925800,0.72992578125,0.008234159860014915,-0.0018881198681192472,0.012108243080694229
1761475306553902600,0.739902587890625,-0.009274608823657035,0.009792816019972088,-0.003049341100640595
1761475306563879700,0.749879638671875,-0.008380290332436561,-0.0011915296058170497,-0.007382767195068299
1761475306573856500,0.7598564453125,-0.0050911856591701506,-0.005287790510081686,0.017346180266793815
1761475306583833600,0.76983349609375,0.007176759761571884,-0.005639016242191428,0.0012386384168639778
1761475306593810700,0.779810791015625,0.0077758946985006325,-0.0036941178356704766,-0.0060600672239437695
1761475306603787800,0.789787841796875,-0.0022469021439552304,-0.005181264820619253,-0.011045034295972436
1761475306613764900,0.799764892578125,0.0000017535656690597534,0.010316497400781372,-0.0028061799945309756
1761475306623741700,0.80974169921875,0.015412673187255858,-0.007787170719407731,-0.003913374051451683
1761475306633718800,0.81971875,0.011973346388339995,-0.0060724232403736094,-0.00891644303575158
1761475306643697000,0.82969677734375,0.005987257716059685,-0.013936287341627758,-0.014009345727972685
1761475306653673700,0.839673828125,0.008386135551333426,-0.002599403092765715,-0.0009676942546851932
1761475306663650800,0.84965087890625,0.01916004302203655,-0.00811277338649379,-0.0020130385891534387
1761475306673627600,0.859627685546875,-0.0061275429695844645,-0.00429504857910797,-0.008262600503209977
1761475306683604700,0.869604736328125,0.004198620733618736,0.0034362592006393243,-0.017785503265820443
1761475306693581800,0.879581787109375,0.0037497079223394393,0.008893946934508857,-0.004630144018679857
1761475306703558700,0.88955859375,0.014227262794971465,-0.003925088463776046,-0.017221896299999206
1761475306713535700,0.89953564453125,0.017518705555796623,-0.004635907039185986,-0.0003496171552687883
1761475306723512600,0.9095126953125,-0.0016337386816740035,-0.002932323699916014,-0.006131196231395006
1761475306733489700,0.91948974609375,0.005701426512002944,-0.004664278042077785,-0.007211958939116448
1761475306743468000,0.929468017578125,0.001810264292359352,-0.00009209644695511087,-0.003653809799812734
1761475306753444900,0.93944482421875,0.008541618373990058,0.002621016702952329,-0.002383278407342732
1761475306763422000,0.949421875,0.0039034371793270108,0.01056718879279797,-0.001475954304076731
1761475306773399000,0.95939892578125,0.011985621348023414,0.006677684240700909,-0.002311564878001809
1761475306783376000,0.9693759765625,0.0010597381860017775,0.008720017422997625,-0.0061392882063053544
1761475306793353000,0.97935302734375,0.007943652480840682,0.0060553613660740664,0.0034687172901816665
1761475306803330000,0.989330078125,0.0003144727766513824,0.0000464626403641887,-0.0007919723615981638
1761475306813307100,0.99930712890625,0.006594575959444046,0.00195609565397026,0.005150295435264706
1761475306823284000,1.009283935546875,-0.004480944806337356,-0.009075550579110858,-0.011990078327432274
1761475306833261000,1.019260986328125,0.0015068974316120147,0.0002454158536333125,-0.0030676804749295112
1761475306843238100,1.029238037109375,0.005699088424444198,0.008030324975651456,-0.007608283046633004
1761475306853216000,1.039216064453125,0.0031570027261972424,-0.00011511656293878332,-0.010682904719002545
1761475306863193000,1.049193115234375,0.0022580080598592757,-0.0007999090728815644,-0.01283135145716369
1761475306873170000,1.059169921875,-0.0019289222359657287,0.0010846865392348263,-0.004473967076279223
1761475306883147000,1.06914697265625,0.008694178587198257,-0.013923860543250339,-0.003916588921844959
1761475306893124000,1.0791240234375,0.012137597039341926,-0.004518103045527823,-0.008195417018514126
1761475306903101000,1.089100830078125,0.007046995902061462,0.0035827024836034976,-0.010568831618968396
1761475306913078000,1.099078125,-0.008963643178343772,0.01013994553227676,-0.009661726711411028
1761475306923054800,1.109054931640625,-0.0032768297135829924,0.008354985786176985,-0.012478610763046889
1761475306933032000,1.119031982421875,-0.0071639002799987785,-0.0010437517406477127,-0.008901190667692571
1761475306943009000,1.129009033203125,0.009144260442256927,0.0081568739647686,0.007771291588619351
1761475306952987000,1.13898681640625,0.009292144480347634,-0.0012638721811759751,-0.010262103757355362
1761475306962964000,1.1489638671875,0.011687515184283256,0.004695865057007176,-0.0010833930562250316
1761475306972940800,1.15894091796875,0.0019616554617881772,-0.010774085567216388,-0.0075150883378461
1761475306982918100,1.168918212890625,0.010934650990366935,-0.009265488227218156,-0.013839998776745051
1761475306992895000,1.17889501953125,0.008536942198872566,0.004307532459701178,0.004262717212084681
1761475307002872000,1.1888720703125,0.010329086312651633,0.0011833953900670167,0.002944967410713434
1761475307012849200,1.19884912109375,0.019311434191465377,0.0006195132879656739,-0.011558628107607364
1761475307022826000,1.208825927734375,0.015271803411841391,-0.0037450979625922626,0.001773019288200885
1761475307032803000,1.218802978515625,0.007189619243144989,0.003909937702061142,-0.002329703322891146
1761475307042780000,1.22877978515625,-0.007325228321552277,-0.0057460453967971255,-0.002044566238578409
1761475307052757000,1.238757080078125,0.0003021978169679642,-0.003835217081592418,-0.018664879916235805
1761475307062735000,1.248735107421875,0.006736030256748199,0.0020875365889805836,-0.010921645378321408
1761475307072712000,1.2587119140625,0.006434416961669922,-0.01049173637832282,-0.01294043785482645
1761475307082689000,1.26868896484375,-0.0035948096215724945,-0.00007908969326526857,-0.0045642757082358
1761475307092665900,1.278665771484375,-0.0004524199426174164,-0.008003059084457345,-0.006350665934663265
1761475307102643000,1.288642822265625,0.00029752164185047145,0.0002936731588619295,-0.013329912096448241
1761475307112620000,1.2986201171875,0.010320318484306335,0.002530702362774173,-0.005813599915895611
1761475307122596900,1.308596923828125,0.0077770637422800055,-0.0016280201852961907,-0.013880349053442478
1761475307132574200,1.31857421875,0.009125555741786957,0.0035375618673569986,-0.003184950179047882
1761475307142551000,1.328551025390625,-0.0022498247534036633,-0.00894570680449833,-0.005091368322260677
1761475307152528100,1.338528076171875,-0.006738368344306946,-0.004441552369220881,-0.0023752412313595415
1761475307162506000,1.348506103515625,0.0029857378125190733,0.0010143030255218037,-0.00754526428040117
1761475307172483000,1.358483154296875,0.001640168422460556,0.0009712641764606815,-0.003780395321547985
1761475307182460200,1.368460205078125,-0.004794833061099052,-0.007866470475227106,-0.006333331207372248
1761475307192437000,1.37843701171875,0.004630582410097122,0.0007597745669598225,-0.008654193636681884
1761475307202414000,1.3884140625,0.007471943315863609,-0.00837273093459953,0.00038834173046052453
1761475307212391000,1.398390869140625,-0.0024070611417293547,0.005130535284624784,-0.00361084744092077
1761475307222368000,1.408367919921875,-0.00031388825476169586,0.004657244371448177,-0.009077497082669287
1761475307232345000,1.418344970703125,0.011956979775428771,0.008068739594411454,-0.0020149017526768145
1761475307242322000,1.428322021484375,0.00597089110314846,-0.008388595794833963,-0.017750431952439246
1761475307252299000,1.438299072265625,0.00507072739303112,-0.0004645727463590447,-0.001528908334020525
1761475307262275800,1.44827587890625,0.023179215535521505,0.002409112676564837,-0.013575867947842926
1761475307272254000,1.45825390625,0.006416881304979324,-0.0035470392276445635,-0.010236549190990625
1761475307282231000,1.46823095703125,0.0014759177714586257,-0.002837606608433998,-0.008703604002669453
1761475307292207900,1.478207763671875,0.009406710770726204,0.001901283597902511,-0.009768054896406829
1761475307302185000,1.48818505859375,0.013741525104641914,-0.0050094707548007135,-0.007692819524928927
1761475307312162000,1.498162109375,-0.004661562070250511,0.007979989306945936,0.0027240546690300107
1761475307322139100,1.50813916015625,0.004019757035374641,0.005455434127990156,-0.006930383785068988
1761475307332116000,1.518115966796875,0.012098434072732926,0.003876776359620271,0.000039619624335318804
1761475307342093000,1.528093017578125,0.006707973206043243,0.012691105019545647,-0.0075707457815296945
1761475307352070100,1.538070068359375,0.007308861708641052,0.0065406726522516685,-0.004775452507194132
1761475307362047000,1.548046875,0.012995090651512145,0.012338222761533688,0.002542798084300011
1761475307372025000,1.558025146484375,0.0007236380994319916,0.0014691523872432297,0.0002766980495303869
1761475307382002200,1.568002197265625,0.010148469048738479,-0.0004597824068099726,-0.004609685752540826
1761475307391979000,1.57797900390625,0.006702712509036064,0.006269804409419885,-0.00972627984760329
1761475307401956000,1.5879560546875,0.012240472891926766,-0.0032844707389886024,-0.01551839858405292
1761475307411933000,1.597932861328125,-0.005564648389816284,-0.010029449203883996,-0.015588175884634256
1761475307421910000,1.607909912109375,-0.0015250176101922989,-0.004741202036075992,-0.004402417943719774
1761475307431886800,1.617886962890625,0.004161211332678795,-0.0016454314027563668,-0.0073938000457361335
1761475307441864000,1.627864013671875,0.004757423660159111,-0.0020176542571221944,-0.015248806128744035
1761475307451841000,1.637841064453125,0.0052080900371074676,0.000052219952648738394,0.0014200776646845041
1761475307461817900,1.64781787109375,0.0034130233138799666,-0.0033767378617689243,-0.005581252464745194
1761475307471795200,1.657795166015625,0.004910568395256996,0.00623513723812648,-0.014678915552608668
1761475307481772800,1.667772705078125,0.002214168918132782,0.009317961054082844,-0.015073230366129427
1761475307491750000,1.67775,0.006851765590906143,0.004904233981770812,-0.007333119367063045
1761475307501727200,1.687727294921875,-0.0055681555211544035,0.009095136628992622,-0.008535243432130664
1761475307511704000,1.6977041015625,0.00490472317636013,0.006811874255223665,-0.0018716938897036014
1761475307521681200,1.70768115234375,-0.006617372313141822,0.0014750763795978855,-0.011296360442228615
1761475307531658000,1.717657958984375,0.0013116671204566955,-0.00598270141359535,-0.016899477678909897
1761475307541635000,1.727635009765625,0.0013116671204566955,0.003129896094385185,-0.0009063559888862073
1761475307551612000,1.73761181640625,0.009241875597834586,-0.006913077028063708,-0.011693451734725385
1761475307561589000,1.747589111328125,-0.00931318726837635,0.001127510759164579,-0.009455207821261137
1761475307571566000,1.757566162109375,0.013131284251809119,0.004508811773263732,-0.0011297164159826934
1761475307581543000,1.76754296875,0.01746960571706295,0.0028399561124359024,0.005555953626707196
1761475307591521000,1.77752099609375,-0.013504209217429161,0.009050221487498492,0.00486240013828501
1761475307601497900,1.787497802734375,-0.015453589719533919,0.008658381188032216,0.015178316442109643
1761475307611475000,1.797474853515625,0.003996960681676864,-0.005896385111811105,-0.008408694443013518
1761475307621452000,1.8074521484375,0.007886369335651398,-0.00853276092656597,-0.010848525343183427
1761475307631428900,1.817428955078125,-0.006028758770227432,-0.0018746119325747713,-0.005710797128546983
1761475307641406000,1.827406005859375,-0.005580430480837822,0.015831711450079455,-0.009021565644349902
1761475307651383000,1.837383056640625,0.006688099461793899,0.0033900180392723994,-0.004458714708220213
1761475307661360000,1.847360107421875,0.020451251876354215,0.000413268963273731,-0.0086246022160165
1761475307671337000,1.8573369140625,-0.006482932278513908,-0.004051920580683509,0.003964209189545363
1761475307681314000,1.86731396484375,0.008629296657443046,-0.009309699544991598,-0.02360847379826009
1761475307691291100,1.877291015625,0.011177227574586867,-0.013117472638876642,0.0033240846551023423
1761475307701268000,1.88726806640625,0.008185644543170929,-0.005857905990147265,0.00232919186623767
1761475307711246000,1.89724609375,0.002051671832799911,-0.00824055078489473,-0.007345814451854675
1761475307721223200,1.90722314453125,0.008483750706911087,-0.004020432888809591,-0.004734280246589333
1761475307731200000,1.917199951171875,-0.004985387197136879,0.0043531046174990476,0.011340236116573215
1761475307741177000,1.927177001953125,-0.0009440028518438339,-0.0054954110869963185,0.006313201734796166
1761475307751154400,1.937154541015625,0.008034253373742103,0.006372824109188513,-0.021373682217206806
1761475307761131500,1.947131591796875,0.008030161720514297,-0.002252001869113883,-0.004013327294588089
1761475307771108400,1.9571083984375,0.008474398356676101,-0.012699827182118314,-0.00853427531775087
1761475307781085400,1.96708544921875,-0.005593874484300613,0.0034463924355863126,-0.012816190420649945
1761475307791062500,1.9770625,0.004431844967603683,-0.0018431527818087486,-0.0008555391171015798
1761475307801039400,1.987039306640625,0.011315759262442588,0.00965558124005911,-0.006368877444788814
1761475307811016400,1.997016357421875,-0.003348725906014442,0.006221259409823687,-0.01040812463192269
1761475307820994600,2.00699462890625,0.005927051961421966,-0.006238618111645337,-0.020349015344586222
1761475307830971400,2.016971435546875,-0.003654430854320526,-0.012030725431651807,-0.011093074688781053
1761475307840948500,2.026948486328125,-0.0005114566534757614,0.005573409368295688,-0.005833071801345795
1761475307850925600,2.036925537109375,0.003231821528077125,0.0007993702167645096,0.002014317230787128
1761475307860902700,2.046902587890625,0.01116144548356533,-0.0038616198896837886,-0.012539382773265242
1761475307870879500,2.05687939453125,0.02028817026913166,-0.0045490530229290015,-0.008081654445733874
1761475307880856600,2.066856689453125,0.00592296030819416,-0.0029035999289306344,-0.02680332431681454
1761475307890833700,2.076833740234375,-0.0032061025649309156,-0.003288271272915881,-0.01188331175101921
1761475307900810500,2.086810546875,0.011306406912207603,-0.005425997970951721,-0.014075086174253373
1761475307910787600,2.09678759765625,0.01175356615781784,-0.018887376118585233,-0.006662398764956742
1761475307920764400,2.106764404296875,0.012498831567168234,-0.004072358297224855,-0.008859981874469668
1761475307930742500,2.116742431640625,-0.0011146832436323166,-0.000009675435576355085,-0.0073914619581773875
1761475307940719600,2.1267197265625,-0.0011117606341838836,-0.0011034928460489026,-0.0144664783783257
1761475307950696400,2.136696533203125,0.004425999748706817,0.0017695521144138182,-0.010534509224258363
1761475307960673500,2.146673583984375,-0.002307107898592949,-0.004721755266800755,-0.006307794907316565
1761475307970650400,2.156650390625,-0.006047463470697402,0.0008409009536844678,-0.0027074871267192065
1761475307980627500,2.16662744140625,0.0030804303586483,-0.0051583217656268965,-0.009138963212631643
1761475307990604300,2.176604248046875,-0.006198270118236542,0.0019160855872789398,-0.013963899151049553
1761475308000581400,2.186581298828125,0.008166939842700957,0.007388640384250902,-0.0037799386638216674
1761475308010558700,2.196558837890625,-0.012782324683666229,0.007589111984460032,-0.007974778271466493
1761475308020535600,2.20653564453125,-0.00006137479841709136,-0.010554218571726233,-0.0004398709882982075
1761475308030513400,2.216513427734375,0.0026285949379205704,-0.011895924637420102,-0.011800601903628557
1761475308040490500,2.226490478515625,0.012505845829844474,0.008385743396510952,-0.016693634642194956
1761475308050467600,2.236467529296875,-0.011738953110575675,-0.006674204508826369,-0.006798939425125718
1761475308060444700,2.246444580078125,0.004718845215439796,-0.0032433207404479617,-0.015281539354566484
1761475308070421500,2.25642138671875,0.009355272844433785,0.007988572759734233,-0.01478478707987815
1761475308080398600,2.266398681640625,0.009503741404414177,-0.004622169062311878,-0.002387187397480011
1761475308090375400,2.27637548828125,0.004565700480341911,0.00795927474165801,-0.004638363857753574
1761475308100352500,2.2863525390625,-0.00531213493347168,0.008503571364699746,-0.014430055358074605
1761475308110329300,2.296329345703125,-0.0047153380841016765,0.0002867176908679539,-0.013147614332102238
1761475308120306400,2.306306396484375,0.0008189151674509048,-0.005454887851185049,0.005763860756345093
1761475308130283500,2.316283447265625,0.0027630349725484846,0.005919102121228934,-0.014339819791354238
1761475308140260400,2.32626025390625,-0.003821604114770889,0.006440274167832103,-0.01256144847460091
1761475308150238500,2.336238525390625,-0.0023299042522907255,0.0021129381750070023,-0.0015205240981653332
1761475308160215600,2.346215576171875,0.009190437671542167,-0.010899913037125952,-0.01686519181681797
1761475308170192400,2.3561923828125,0.009340075275301932,-0.010377511439594672,-0.00653303676424548
1761475308180169500,2.36616943359375,0.0008095628172159195,0.004759708661257173,-0.013449940013233571
1761475308190146600,2.376146484375,0.016669395250082014,0.007360905848065158,-0.005743822615314274
1761475308200123600,2.38612353515625,0.009635258829593658,-0.00941230596951791,-0.027938118766713885
1761475308210100500,2.3961005859375,0.0006593406915664673,-0.004809077928049373,-0.010336301504727452
1761475308220077600,2.40607763671875,0.0011082535028457642,0.0018098070638108764,-0.014840572387725114
1761475308230054700,2.4160546875,-0.0026326865911483763,-0.006210842476264224,-0.008693265271745621
1761475308240031500,2.426031494140625,-0.005327332502603531,0.0016960530533629934,-0.012182075501885265
1761475308250008600,2.436008544921875,-0.003385550785064697,0.00945245189188281,-0.02234415295086801
1761475308259986400,2.445986328125,-0.0072737903952598566,-0.004713943565569935,0.0007888670890592039
1761475308269963500,2.455963623046875,-0.007124737313389778,-0.004011961317164241,-0.016606339951232073
1761475308279940600,2.465940673828125,-0.005032733470201492,-0.004103316266136243,-0.012828063521534204
1761475308289917400,2.47591748046875,-0.002042904004454613,-0.002087210649528424,-0.003819868815410882
1761475308299894500,2.48589453125,0.008579612296819687,0.006078044126162421,-0.012105612732190638
1761475308309871400,2.495871337890625,0.007979308316111565,-0.002834146284512826,-0.010083020863402634
1761475308319848400,2.505848388671875,-0.0016010054558515548,0.0011719287145591805,-0.010973722625430673
1761475308329825300,2.5158251953125,0.004385667738318443,-0.0024346444100432564,-0.011057893777545541
1761475308339802600,2.525802734375,0.002738485053181648,-0.0010536132642475422,-0.017251177193410693
1761475308349779700,2.53577978515625,0.007973463097214698,0.014289959617506245,-0.013146025163214652
1761475308359756500,2.545756591796875,0.0048299043744802475,-0.002274531078041764,-0.016340747817605732
1761475308369733600,2.555733642578125,0.007820318362116814,0.00271326784271223,0.000030048078391700982
1761475308379711500,2.56571142578125,0.013056465449929236,-0.003977418585101259,0.0002822692737914622
1761475308389688600,2.5756884765625,0.00467383702993393,0.004206508354196558,-0.00446591163398698
1761475308399665700,2.585665771484375,-0.0014624737679958342,0.006796802837788709,-0.000615282354131341
1761475308409642500,2.595642578125,0.0025789105772972107,0.0044812673208565685,-0.015991970912553367
1761475308419619600,2.60561962890625,-0.0077472531259059904,0.0010382981057511641,0.0025300482005812227
1761475308429596400,2.615596435546875,0.00018237082958221434,-0.015325128476187819,-0.012335512497927992
1761475308439573500,2.625573486328125,0.0034767361998558045,-0.0010588973649631951,-0.019283888597413895
1761475308449550300,2.63555029296875,0.0030319150418043135,0.006997699129683314,-0.01732661704979837
1761475308459527400,2.64552734375,0.0055704936087131495,0.010206441747094504,-0.005108977044187486
1761475308469504500,2.65550439453125,0.0006306991189718247,0.004443436082341941,-0.007567823172081261
1761475308479481300,2.6654814453125,0.004819382980465889,0.0075606291004252845,-0.0037255598617717623
1761475308489459500,2.67545947265625,-0.010592121163010596,-0.001267343350718147,-0.001887676910124719
1761475308499436500,2.6854365234375,-0.007148702710866928,0.0010994582750368863,-0.014851422575302422
1761475308509413400,2.695413330078125,-0.004306757283210754,-0.004153210118491552,-0.01565948755517602
1761475308519390500,2.705390380859375,0.006464812099933624,0.013500037649099248,-0.016053035183716563
1761475308529367600,2.715367431640625,0.003472644546627998,0.008683186835725791,-0.005704513518232852
1761475308539344600,2.7253447265625,0.0072141691625118255,-0.0004854448585625505,0.0023936536708846685
1761475308549321500,2.735321533203125,0.0055669864773750305,-0.009130868954432662,-0.0009348148983903229
1761475308559298600,2.745298583984375,0.009605448213219642,-0.0174547335165611,-0.004445398568920791
1761475308569275400,2.755275390625,0.00646364305615425,0.006710350109508726,0.0008033705384470522
1761475308579252500,2.76525244140625,0.010804887130856514,0.009870711553283035,-0.006606723054964095
1761475308589229600,2.7752294921875,0.012896890974044799,0.00834651250206516,-0.013602975150477141
1761475308599206400,2.785206298828125,0.007213584640622139,-0.0010672376475122291,-0.0004637633205391466
1761475308609184500,2.7951845703125,0.007967617878317833,-0.012111062942154239,-0.01773815699275583
1761475308619161600,2.80516162109375,-0.004749824875593185,-0.01158880519180675,-0.005990837912634015
1761475308629138400,2.815138427734375,0.007965864312648773,0.0025583107472630217,-0.01632377841649577
1761475308639115500,2.825115478515625,-0.006101824006438255,0.006633293113947729,-0.0059141194146126504
1761475308649092400,2.83509228515625,-0.006553659427165985,-0.004871867794595891,0.008033248726744205
1761475308659069400,2.8450693359375,-0.003109656453132629,-0.007085484156879829,-0.015956698669772593
1761475308669046500,2.855046630859375,0.008566168293356895,-0.002469656928742188,-0.011013049988821149
1761475308679023600,2.865023681640625,0.006769932526350021,0.004282740511739393,-0.009972089568525553
1761475308689000700,2.875000732421875,0.0016834230422973632,-0.00131709735164477,-0.002440086628496647
1761475308698977500,2.8849775390625,0.020389292556047437,0.0066905637010495405,0.008831596030201762
1761475308708954600,2.89495458984375,0.005725391909480094,-0.0017523235600441693,0.007792517039738595
1761475308718932500,2.904932373046875,0.002285480588674545,-0.00192107457293896,-0.008008096019178628
1761475308728909600,2.91490966796875,0.014105097720026969,-0.0016678281809436157,0.0018050766605883835
1761475308738886700,2.92488671875,0.019041385078430173,-0.00015256363814114592,-0.019800185822788623
1761475308748863200,2.93486328125,-0.002207154655456543,-0.005801610367291141,-0.018750475840456783
1761475308758840000,2.944840087890625,0.0013823942691087723,-0.01631864786694059,-0.008212404685933143
1761475308768817200,2.954817138671875,0.018437573966383933,0.011442917889624368,0.004098630957864224
1761475308778794000,2.9647939453125,0.0018248773396015165,0.004518992957271984,-0.0006668846772052348
1761475308788771000,2.97477099609375,-0.004013911816477775,0.003883518340127193,-0.017978030163235962
1761475308798748000,2.984747802734375,0.009303250396251678,0.0022402703321247825,-0.01740019374266267
1761475308808725000,2.99472509765625,0.0012228197932243347,0.00796824806598015,-0.022046594776399434
1761475308818702300,3.004702392578125,0.000026888006925582884,0.0036826694264716934,-0.01705167256593704
1761475308828679200,3.01467919921875,0.007062777993083,-0.004847433752127108,-0.001073492716718465
1761475308838657000,3.024656982421875,-0.006552490383386612,-0.0035790395178162725,-0.009993059291318059
1761475308848634000,3.034634033203125,-0.002366144609451294,0.00403418970281491,-0.008778550668712705
1761475308858611200,3.044611083984375,0.01379179398715496,0.003855268922355026,-0.017730284213554114
1761475308868588300,3.05458837890625,0.012146364867687224,0.011043518192321062,-0.007826492374576628
1761475308878565000,3.064565185546875,0.007803951749205589,-0.0008531188311520963,-0.004648483392968774
1761475308888542200,3.074542236328125,-0.009404372683167458,-0.004625885114559787,-0.012730064773466438
1761475308898519000,3.08451904296875,0.0013695347875356673,0.003520816228532931,-0.0010533084452152251
1761475308908496100,3.09449609375,0.007355038937926292,0.0028538168160739587,-0.006742934921570122
1761475308918473000,3.104472900390625,0.007201309680938721,0.011071040953486226,-0.00958572059944272
1761475308928450000,3.114449951171875,0.0025578677892684936,-0.005324953886671573,-0.005421988516114652
1761475308938427100,3.12442724609375,0.0012099603116512297,-0.008508050035350606,-0.00862710470035672
1761475308948405000,3.134405029296875,0.009140753310918808,0.00217443341689941,-0.0017301117282360792
1761475308958382000,3.144382080078125,0.01827040070593357,-0.0021210878029552984,-0.01707638688208535
1761475308968359200,3.154359130859375,-0.001785129851102829,0.0035737166011938822,-0.011246621282678096
1761475308978336000,3.1643359375,-0.009416647642850875,0.0005946300084586255,-0.02141611485313624
1761475308988313000,3.17431298828125,-0.002085574102401733,0.009199928731561521,-0.01128910871753469
1761475308998290200,3.184290283203125,0.005842296287417411,0.003757320977459312,-0.0018378464190289376
1761475309008267300,3.194267333984375,0.006889759513735771,0.003139560113518382,-0.007651428068615495
1761475309018244000,3.204244140625,0.013477905732393264,0.004410580129755544,-0.016484759398177264
1761475309028221200,3.21422119140625,0.002552607092261314,0.007208133289014222,-0.006075100396294147
1761475309038198300,3.2241982421875,0.0009030863195657729,0.00016779146084736565,-0.01741919070407748
1761475309048175000,3.234175048828125,0.013021394136548042,0.00979232397127198,-0.018430157844908535
1761475309058152200,3.244152099609375,-0.01001987423300743,-0.0039028629322361663,-0.019958646053820847
1761475309068130000,3.254130126953125,0.004345920249819756,0.007848437061614822,-0.0072054926657117895
1761475309078107100,3.264107177734375,0.012719780841469764,0.013476428444648626,-0.01671047617914155
1761475309088084200,3.274084228515625,0.002096095496416092,-0.0026182687650842125,-0.036286333460453894
1761475309098061000,3.28406103515625,-0.0034399113208055496,-0.0027891923271119593,-0.016659421845339237
1761475309108038100,3.2940380859375,0.010027473017573356,-0.000464154904539464,-0.014854692244622856
1761475309118015000,3.304014892578125,0.008232406294345854,-0.005355839361168909,-0.016329404439684003
1761475309127992000,3.313991943359375,0.005839373677968979,0.011868783185456413,0.0021152568546123802
1761475309137969000,3.323968994140625,0.013768413111567497,-0.002808269203628879,-0.012159461811278015
1761475309147946200,3.3339462890625,-0.005537760382890701,-0.0031461445471097247,-0.033820326939411456
1761475309157923300,3.34392333984375,-0.001948211458325386,0.008729821864381666,-0.01577102163825184
1761475309167900200,3.353900146484375,0.0019406126737594603,0.009729445627290988,-0.011498751146532595
1761475309177877200,3.363877197265625,0.005080079743266105,0.004437310018943389,-0.015212054314929991
1761475309187855000,3.373855224609375,0.008521744629740714,-0.0033402183725731445,-0.015805636293906716
1761475309197832200,3.383832275390625,0.0031382980257272717,-0.009579756649537011,-0.02629747542021796
1761475309207809300,3.393809326171875,-0.003002688947319984,-0.007231710527424002,-0.00004425926683470607
1761475309217786000,3.4037861328125,0.004777881926298141,0.0038491177427815272,-0.00408799996599555
1761475309227763200,3.41376318359375,-0.00360416197180748,-0.0025104142016381956,-0.023328743541426954
1761475309237740000,3.423739990234375,0.00552256281375885,-0.01061742913420312,-0.0159027399928309
1761475309247717000,3.433717041015625,0.007322305712103843,-0.003989775172353256,-0.02083910041647032
1761475309257694000,3.44369384765625,-0.00016015899777412413,-0.004901211478444747,-0.0036500652064569293
1761475309267671000,3.453671142578125,0.014800678768754004,0.00005142650984926149,-0.006617171383742243
1761475309277648100,3.463648193359375,0.016746552139520643,-0.00524477449390688,-0.02186086294595152
1761475309287625000,3.473625,0.01210953998863697,-0.005479233987041516,-0.012218187994882463
1761475309297602300,3.483602294921875,0.0005851064115762711,0.002659825759823434,-0.009160060799587517
1761475309307580200,3.493580078125,-0.002261515191197395,0.010276643739361315,-0.012270667100790887
1761475309317557000,3.503556884765625,0.012404139021039009,0.015658832251338753,-0.011937635754141956
1761475309327534000,3.5135341796875,-0.0015127426505088806,0.01050016171337338,-0.0001394632696174085
1761475309337511200,3.52351123046875,-0.010645897176861763,0.007603915115480776,0.0062507126915268595
1761475309347488300,3.53348828125,0.011799158865213393,-0.003517398145451443,0.007864504563715308
1761475309357465000,3.543465087890625,-0.00017535656690597534,0.003377634623378981,-0.008416183629725129
1761475309367442200,3.553442138671875,0.004914075526595115,-0.0009794086670095567,-0.018527937397267668
1761475309377419300,3.563419189453125,0.005512041419744491,-0.003550751284137368,-0.019447646058071404
1761475309387396000,3.57339599609375,0.003417699488997459,0.0009395447307906579,-0.0019178893852978944
1761475309397373200,3.583373291015625,0.0032639702320098876,0.002099993070110213,0.004829813042934983
1761475309407350000,3.59335009765625,0.004161211332678795,-0.007149921986996196,-0.002248363448679447
1761475309417328000,3.603328125,0.006105915659666061,-0.008294198934582527,-0.030549488575197754
1761475309427305200,3.61330517578125,0.01014496191740036,-0.0006725061338162049,-0.016231186495907605
1761475309437282000,3.623281982421875,-0.0022755437165498734,-0.0007776960994291584,-0.014603841022402047
1761475309447259100,3.633259033203125,0.007899813339114188,-0.0014345879639382473,-0.016997914818394928
1761475309457236000,3.643236083984375,0.004160042288899422,-0.008305342524748993,-0.014103252822812646
1761475309467213000,3.653213134765625,0.011939444118738174,-0.004291028849472058,-0.01207032222310081
1761475309477190100,3.663190185546875,0.0002694645911455154,-0.0024291165682661813,-0.010373309046868234
1761475309487167200,3.673167236328125,0.008051204508543014,0.008302292051137191,-0.006023132747039198
1761475309497144300,3.683144287109375,0.008950783696770668,0.009085678105836268,-0.007299034434370696
1761475309507121200,3.69312109375,-0.004817044892907143,0.0006819703651941381,-0.014518044168781488
1761475309517098200,3.70309814453125,-0.00047755438387393946,0.009925939738703891,-0.007177344283461571
1761475309527075000,3.713074951171875,0.0077507602572441095,-0.0005089107866515406,-0.016677980415336788
1761475309537052200,3.72305224609375,0.0041559506356716154,-0.010254643111751647,-0.010529339858796448
1761475309547030300,3.7330302734375,0.0005652326673269272,0.000029010323708644134,-0.005280351555719972
1761475309557007000,3.743007080078125,-0.003177460992336273,-0.0013658141687104943,-0.014030132787674664
1761475309566984200,3.752984130859375,-0.0075169515013694755,0.0011207670661911833,-0.021654818979837
1761475309576961000,3.7629609375,0.0005623100578784942,0.007201087060297141,-0.010786401626095175
1761475309586938000,3.772938232421875,-0.005721300256252289,0.003712408119253814,-0.005190280385781079
1761475309596915000,3.7829150390625,0.004304419195652008,-0.004590571201761486,-0.015521321193501353
1761475309606892000,3.79289208984375,0.0029559271961450573,0.005834348159690853,-0.010483290493674576
1761475309616869000,3.802869140625,0.0032540333598852157,0.0012305510085308924,-0.01308382838089019
1761475309626846000,3.812845947265625,0.012379004579782485,0.0030607438440667465,-0.019321425862517207
1761475309636823300,3.8228232421875,0.00878770208954811,0.004207607757672667,-0.01199389598602429
1761475309646800100,3.832800048828125,-0.0004892448216676712,-0.0032143087042728435,-0.011961875146254896
1761475309656777200,3.842777099609375,0.01626958227753639,-0.005695455712231341,-0.008400620734412223
1761475309666755000,3.852755126953125,0.01073357546031475,-0.0036620136558660303,-0.007943195823114365
1761475309676732200,3.862732177734375,0.002803366982936859,0.010821339367091422,-0.01165081816939637
1761475309686709200,3.872709228515625,-0.003328267639875412,-0.00026651229894487184,-0.02978984758062288
1761475309696686000,3.88268603515625,-0.0006359598159790038,-0.005791577597043942,-0.0072423723436892025
1761475309706663200,3.8926630859375,0.020166005194187164,0.004369917613337748,-0.009846581759024411
1761475309716640300,3.90264013671875,0.0038578444719314575,0.0021313283524679715,-0.028761637044046072
1761475309726617000,3.9126171875,0.010891396370530129,-0.009921281829895452,-0.01841094168778509
1761475309736594200,3.92259423828125,-0.0030243162572383877,0.0012358779209083878,-0.0055387102309614415
1761475309746571800,3.93257177734375,0.008947861087322234,0.007148724972931086,-0.011936137916799634
1761475309756548600,3.942548583984375,0.0028115502893924713,0.017657657368760554,-0.02230553797353059
1761475309766525700,3.952525634765625,0.020317980885505675,-0.0010133994140458526,-0.011420169484987855
1761475309776502500,3.96250244140625,0.006554243949055671,0.012779277634987374,-0.015198792974557727
1761475309786480600,3.972480712890625,-0.018885317733883855,0.0008163008019677363,-0.01224584318678826
1761475309796457700,3.982457763671875,0.006702127987146377,-0.0040455319390923245,-0.0025551826418377457
1761475309806434600,3.9924345703125,0.010893149936199187,0.0011000547841918888,-0.01671531675104052
1761475309816411000,4.002410888671875,0.002211246308684349,0.006852382649658829,-0.012941131974570452
1761475309826387700,4.0123876953125,-0.001384147834777832,0.0007538243167859036,-0.007419372878409922
1761475309836365800,4.02236572265625,0.002359130346775055,-0.004090102304003085,-0.009879095789138228
1761475309846343000,4.032343017578125,-0.005122749841213226,-0.00034832880965841466,-0.01525282471673563
1761475309856319700,4.04231982421875,0.010742927810549736,0.003015005006198771,-0.006862688843719661
1761475309866296800,4.052296875,0.012990998998284339,0.0013208379492454696,-0.017954430091939866
1761475309876273700,4.062273681640625,0.012545008796453476,-0.0014824085902160732,-0.016952943165507165
1761475309886250800,4.072250732421875,0.012547346884012222,-0.008162762566149466,-0.012836575621552765
1761475309896227600,4.0822275390625,0.006412205129861831,0.0025823783219064353,0.0003455072357319295
1761475309906204700,4.09220458984375,0.002673603123426437,0.002353468932613032,-0.008108652050513773
1761475309916181800,4.102181640625,0.001177227085828781,0.006112290030703298,-0.018734273624327034
1761475309926158600,4.11215869140625,0.0035720132678747174,0.002066290588263655,-0.02379634278686717
1761475309936135700,4.1221357421875,0.001779284632205963,0.0014129098508477908,0.001898728027101606
1761475309946112500,4.132112548828125,0.006719663643836975,0.005283741097693564,-0.009092110129911452
1761475309956090600,4.142090576171875,-0.0012128829210996627,0.0018240399434958816,-0.01800024199504405
1761475309966067700,4.152067626953125,0.0031277766317129134,-0.009473847448005107,-0.016158102993387727
1761475309976044500,4.16204443359375,0.00791851803958416,0.008157547534914919,-0.007839370122458784
1761475309986021600,4.172021728515625,0.007017769807577133,0.00010178044486383441,0.0013332030988298356
1761475309995998700,4.181998779296875,0.006717325556278228,0.006881293650312,-0.02070382013162598
1761475310005975800,4.191975830078125,0.004022095122933387,-0.004695299372248701,-0.011807853628322481
1761475310015953000,4.201952880859375,-0.0027186113089323043,-0.0028345989464840385,-0.028084596299007534
1761475310025929700,4.2119296875,0.008803484180569648,-0.0017455153641669312,-0.011177629433386026
1761475310035906800,4.22190673828125,0.004164718464016914,0.00818192506599007,-0.003687511140014976
1761475310045883600,4.231883544921875,0.006709142249822616,0.012187142119358759,-0.021935626948904243
1761475310055860700,4.24186083984375,0.004167641073465347,0.00882598313592316,-0.021098098412528632
1761475310065837600,4.251837646484375,0.0004261164575815201,-0.0022283367240917866,-0.021559267917182295
1761475310075815700,4.261815673828125,-0.004365209472179413,-0.0036173747922963228,-0.0206199229741469
1761475310085792800,4.271792724609375,0.007756020954251289,0.00441946554746537,-0.01775713568786159
1761475310095769600,4.28176953125,0.007605798828601837,-0.0075963580009323775,-0.01570228551728651
1761475310105746700,4.29174658203125,0.018081015613675117,0.005163344429794233,-0.002207666112110019
1761475310115723500,4.3017236328125,0.014486205992102623,0.017283451478218192,-0.015969941743835807
1761475310125700600,4.31170068359375,-0.0021206454157829285,0.0035451760641211877,-0.007311327660363167
1761475310135677700,4.321677734375,0.01404138483405113,0.0015688476187642663,-0.008628091081045567
1761475310145654800,4.33165478515625,0.005361234772205352,-0.005349632811846095,-0.023024353767372666
1761475310155631900,4.3416318359375,0.011949965512752533,0.002322371112272958,-0.024059268039371817
1761475310165608700,4.351608642578125,0.006262567526102066,0.00545020254291303,-0.022744075521267948
1761475310175585800,4.361585693359375,0.0008779518783092498,0.007861838824237929,-0.006050769672635943
1761475310185562600,4.371562744140625,0.012552023059129714,0.008448887172795365,-0.022556553592532873
1761475310195540700,4.381540771484375,-0.004356441643834114,-0.008800613515937583,-0.015061010205373168
1761475310205517800,4.391517822265625,-0.004655132329463958,0.006572211718119797,-0.009942589479405432
1761475310215494700,4.40149462890625,0.002229366487264633,-0.006439841484636417,-0.01468216695562005
1761475310225471700,4.4114716796875,0.005675123026967048,-0.012909487877425272,-0.010477810600958764
1761475310235448600,4.421448486328125,-0.002852466821670532,0.009352405604734666,-0.008778568935021758
1761475310245425700,4.43142578125,0.004030278429389,0.017767378520662895,-0.010284224257618189
1761475310255402800,4.44140283203125,0.013158172258734703,-0.006114067000080831,-0.01177787861516699
1761475310265379600,4.451379638671875,0.007770634001493453,-0.009997891871706814,0.0010575644952245057
1761475310275356700,4.461356689453125,0.0008843816190958022,0.0020989735817362088,-0.018485376897174863
1761475310285333800,4.471333740234375,0.0010346037447452544,0.015386971348774385,-0.005022467804513871
1761475310295310800,4.481310791015625,-0.006149170279502869,-0.005227133235117071,-0.01044233742877841
1761475310305288700,4.491288818359375,0.0038783027380704877,0.0024899485148111122,-0.019669618245679883
1761475310315265500,4.501265625,-0.011534954971075057,-0.0026803816365514647,-0.016983922825660556
1761475310325243000,4.511242919921875,-0.007193710896372794,0.00035381726470659484,-0.014835403022263199
1761475310335219700,4.5212197265625,0.0032832594543695448,0.005048659979228978,-0.006068889851216226
1761475310345196800,4.53119677734375,-0.0037508769661188123,0.016570689824182774,-0.02885249366527423
1761475310355173600,4.541173583984375,-0.003300210589170456,0.02004167327833129,-0.01381966837476939
1761475310365150700,4.551150634765625,0.010771569383144377,0.008150379721078207,-0.01403698265356943
1761475310375127800,4.5611279296875,0.011670564049482345,-0.0031319778827950356,-0.006802830148953944
1761475310385104600,4.571104736328125,0.014817045381665228,0.0032584857727168126,-0.00860792507585138
1761475310395081700,4.581081787109375,0.014516016608476639,0.01167124903607182,-0.005220109268464148
1761475310405058600,4.59105859375,0.0017956512451171875,-0.01035059603320551,-0.00929981633014977
1761475310415035600,4.60103564453125,0.005233224478363991,0.00801318775282707,-0.01081586518259719
1761475310425013800,4.611013671875,0.0001461304724216461,0.014752024171303491,-0.01482265313854441
1761475310434990600,4.620990478515625,0.0004436521142721176,0.0048629623981105395,-0.022509262118395417
1761475310444967700,4.6309677734375,0.00822305394411087,0.005946719068050151,-0.009420702763460576
1761475310454944500,4.640944580078125,0.00448211385011673,0.010286033763858723,-0.02348289292352274
1761475310464921600,4.650921630859375,0.003584872749447822,0.0015401329809334129,-0.014190456182230263
1761475310474898700,4.660898681640625,0.009119126001000405,0.0055640307602414394,-0.007376647981535643
1761475310484875800,4.670875732421875,0.0022387188374996185,-0.006520087663593585,-0.0024917620168067515
1761475310494852900,4.680852783203125,-0.004643441891670227,0.0010273777070484355,0.0036914018638432022
1761475310504829700,4.69082958984375,0.011218728628754615,0.004870238668157253,-0.02038322814144194
1761475310514806800,4.700806884765625,0.015858078867197034,-0.002415014406855334,-0.0020869806081987917
1761475310524783600,4.71078369140625,0.013166355565190314,0.0031375479654117953,-0.008319700985308737
1761475310534760700,4.7207607421875,0.016608020451664925,0.01116044654478901,-0.014135383260436354
1761475310544737800,4.73073779296875,0.000744096365571022,0.01929130928546656,-0.0074978084094822406
1761475310554715600,4.740715576171875,-0.005092354702949524,0.0044292226106103045,-0.02189038130138069
1761475310564692700,4.750692626953125,0.013759645283222198,-0.0004949924299755366,-0.0122427379142493
1761475310574669600,4.760669677734375,0.006426233655214309,0.008238852588974986,-0.010794237872678785
1761475310584646700,4.770646728515625,0.010468787044286727,-0.006239628466864815,-0.018197244138177485
1761475310594623700,4.780623779296875,0.0010404489636421203,0.0027505305423575917,-0.03050882777124643
1761475310604600600,4.7906005859375,0.003433481580018997,0.009144456234257086,-0.013206998102832586
1761475310614577700,4.80057763671875,-0.005395721563696861,-0.0022480848874663934,0.0047369653940200806
1761475310624554800,4.8105546875,0.004181669598817825,-0.011357792322861496,-0.010488295462355017
1761475310634531800,4.82053173828125,0.0017857143729925154,-0.001197389666090021,-0.02403038900475949
1761475310644508700,4.8305087890625,-0.004796586626768112,0.0008681183249951573,-0.017977847500145434
1761475310654485800,4.84048583984375,0.004628828844428062,0.011814896432106614,-0.001588639164622873
1761475310664462800,4.850462890625,0.00492518144249916,0.007235281590843806,-0.01051410575704649
1761475310674440700,4.860440673828125,-0.006147416713833808,0.007090373248662217,-0.012743399179074912
1761475310684417800,4.870417724609375,0.0025339023917913435,0.004236837277089944,-0.02104373787678778
1761475310694394600,4.88039453125,0.010460019215941429,-0.0025859254107956074,-0.024649909142591058
1761475310704371700,4.890371826171875,-0.005102291575074196,0.0066989970276103115,-0.02046193766715005
1761475310714348800,4.900348876953125,0.002080313405394554,0.005868266412313096,-0.021657960784994063
1761475310724325600,4.91032568359375,0.007765373304486275,0.008209808015936869,-0.022299089966434985
1761475310734302700,4.920302734375,-0.00540624295771122,0.016823111948982113,-0.03112100485283881
1761475310744279600,4.930279541015625,0.003273322582244873,0.00696093932435906,-0.017936949234176425
1761475310754256100,4.940256103515625,0.0032750761479139324,-0.001502299459130154,-0.003502820489183068
1761475310764233000,4.95023291015625,0.01748655685186386,-0.011797994388011284,-0.002459047057293355
1761475310774210000,4.9602099609375,0.0029740473747253415,0.012209748960100113,-0.0014821465828455983
1761475310784187000,4.970186767578125,0.004922258833050728,0.013626118564046918,-0.01078198117930442
1761475310794164000,4.9801640625,-0.016325696378946302,0.0017676330103189683,-0.0032846476938575503
1761475310804142000,4.99014208984375,-0.004354103556275368,0.0006489003542985301,-0.01164447976015508
1761475310814119000,5.000118896484375,-0.002410568273067474,-0.0027410606027580796,-0.0007801723259501158
1761475310824096000,5.010095947265625,-0.006900865429639816,0.0012955830645136302,-0.018940335856750607
1761475310834073000,5.020072998046875,0.014499065473675727,-0.008725553827107069,-0.00001216536182910204
1761475310844050000,5.0300498046875,0.0020744681864976883,-0.001966470346690039,-0.013657408751454204
1761475310854027000,5.040027099609375,0.011356091272830963,0.005308033005445031,-0.022630440812651066
1761475310864003800,5.05000390625,0.00013268646895885466,0.014816335278900805,-0.016062478865496815
1761475310873981000,5.05998095703125,0.00881342105269432,-0.005781295948335901,-0.018095044139027596
1761475310883957800,5.069957763671875,0.007018938851356506,-0.008419393362718982,-0.029705073640309273
1761475310893934800,5.079934814453125,0.004175239858031273,0.003001818443529191,-0.00579003637721762
1761475310903912200,5.089912109375,0.008666706058382987,-0.00308844869750028,-0.012594565292913466
1761475310913889000,5.099888916015625,0.01779576893150806,0.0020264049608027562,-0.009696962421573698
1761475310923866000,5.1098662109375,0.01151040505170822,0.007489343687702785,-0.017671704160422085
1761475310933844000,5.119843994140625,0.006425064611434936,0.01692216671804199,-0.017714282926823942
1761475310943821000,5.129821044921875,0.01017068088054657,0.0035030276976263847,-0.012611571226641536
1761475310953798100,5.139798095703125,-0.0015010522127151488,0.002051812825872912,-0.01590637498833239
1761475310963775000,5.14977490234375,0.016159107640385625,-0.005485913747933227,-0.0030648857296444476
1761475310973752000,5.159751953125,-0.006886836904287338,-0.000017544789845123886,0.0031613501077517865
1761475310983729000,5.16972900390625,0.009123802176117897,0.0128438353377569,-0.002553356010932475
1761475310993706000,5.1797060546875,0.01331248603761196,0.0009509286370855989,-0.016826302844844758
1761475311003682800,5.189682861328125,0.008079846081137657,-0.006552892242185771,-0.009620590983424335
1761475311013660000,5.199659912109375,0.01227203707396984,-0.009187036142303259,-0.02029061795454472
1761475311023637000,5.209636962890625,0.02439209845662117,-0.0008541771354328375,-0.0019029110118746757
1761475311033613800,5.21961376953125,0.013166940087080001,-0.002149320096062729,-0.009636975862644613
1761475311043591000,5.2295908203125,0.013618775507807731,-0.016268287652882282,-0.016117040330637246
1761475311053568000,5.239568115234375,0.003745616269111633,-0.006408474236237816,-0.01720207735467702
1761475311063545900,5.2495458984375,0.0015004676908254623,0.005272250447655096,-0.007949077574629336
1761475311073523000,5.25952294921875,0.0071878656774759285,-0.013229737374314572,-0.026020101517252623
1761475311083500000,5.2695,0.017663082462549207,0.00026794905831629875,0.012160247262567281
1761475311093477000,5.27947705078125,0.008380874854326247,-0.007547102327749598,-0.014056673734728246
1761475311103454000,5.289453857421875,0.0011965163081884384,0.0068138641412660945,-0.015181239051558076
1761475311113431000,5.29943115234375,-0.01061900916993618,0.019822603150573558,-0.0019422931741923093
1761475311123408000,5.309407958984375,0.019013912549614907,0.004382663501301431,-0.008785729328170419
1761475311133385000,5.319385009765625,0.014973697248101233,0.0022388912257913034,0.003629296413064003
1761475311143362000,5.329362060546875,0.00689502021074295,-0.006806557046822854,-0.007361888803821057
1761475311153339000,5.3393388671875,-0.004629997888207435,0.01026915341100539,-0.005240677132457495
1761475311163316000,5.34931591796875,-0.0028366847306489943,0.0003441789325705031,-0.008609514244738966
1761475311173292800,5.359292724609375,0.012276713249087332,0.0075031575839238935,-0.011616002584341912
1761475311183271000,5.36927099609375,-0.004933364748954772,0.01092499496274395,-0.010183193302247673
1761475311193248000,5.379248046875,-0.00927402430176735,0.0015551952652138423,-0.00649374593347311
1761475311203224800,5.389224853515625,0.011527356186509132,-0.007773965890429098,-0.007318798580765723
1761475311213202000,5.399201904296875,-0.0011918401330709458,0.006037322244240204,-0.015546601765230298
1761475311223178800,5.4091787109375,0.00509469279050827,0.005236322330214898,-0.012641107848379761
1761475311233155800,5.41915576171875,-0.007477204012870788,-0.004018368225064478,-0.011241415384598075
1761475311243133200,5.42913330078125,0.0016547814697027206,0.002227003283530939,-0.00449743928341195
1761475311253110000,5.439110107421875,-0.0014876082092523575,0.0038185302374506135,-0.023798827004898337
1761475311263087000,5.449087158203125,-0.0062754270076751705,0.01101296550714178,-0.00880012317970395
1761475311273064000,5.45906396484375,0.008991115707159042,0.001662264377370593,-0.01779211566969752
1761475311283041000,5.469041015625,0.015575754794478416,0.01805711186499102,-0.015094528882484881
1761475311293017900,5.479017822265625,0.017220014870166778,0.01150719931446947,-0.009615129357017575
1761475311302995000,5.488994873046875,0.009438859474658966,0.019026049370336112,-0.014264580864366144
1761475311312973000,5.49897314453125,-0.00402852486371994,-0.0036974388789851216,-0.02040403346745297
1761475311322950000,5.508949951171875,-0.002830254989862442,0.013552961996290832,0.00882651799628511
1761475311332927000,5.518927001953125,-0.012707505881786346,0.0031157534046011275,-0.023832619676645843
1761475311342903800,5.52890380859375,0.0022568390160799027,-0.006652183902441175,-0.0018135339616797864
1761475311352881000,5.538880859375,0.017667758637666703,0.004433587687651743,-0.010573562593013048
1761475311362858000,5.54885791015625,0.0021036942809820173,0.015045308029453735,-0.023512849670369176
1761475311372834800,5.558834716796875,0.005694996771216392,0.00539048027464305,-0.017959361995384095
1761475311382812000,5.56881201171875,0.007191372808814048,-0.0010555357932753395,-0.007647683475259691
1761475311392789000,5.5787890625,-0.0035860417932271956,0.003602279400330735,-0.0146646130326204
1761475311402766000,5.58876611328125,0.009283961173892021,0.0017328779324132482,-0.005341543691046536
1761475311412743000,5.598742919921875,-0.0008943184912204742,-0.003319738415192114,-0.005748389192577451
1761475311422720000,5.608719970703125,0.005089432093501091,0.005057869053102331,-0.0037359533916227518
1761475311432697000,5.618697021484375,0.0034422494083642956,0.0070640760426700575,0.004754775045346468
1761475311442675000,5.628675048828125,0.013768413111567497,-0.0006761736661806935,-0.01405751398494467
1761475311452652000,5.638652099609375,-0.006729600515961646,-0.00016147930942534002,-0.022188523997738956
1761475311462628900,5.64862890625,0.003894669350981712,-0.010441562252287985,-0.01859081003302708
1761475311472606000,5.65860595703125,0.011078443375229835,-0.004511285716496058,-0.010483838482946158
1761475311482583000,5.6685830078125,0.0071843585461378095,-0.008037109196998063,-0.014958627543132751
1761475311492560000,5.678559814453125,0.009276362389326095,-0.006722541158334934,-0.011180917369015515
1761475311502537000,5.688536865234375,0.014365794482827186,0.007935887587026808,-0.005422956630494445
1761475311512513800,5.698513671875,0.017807459369301795,0.009137879221353796,-0.0010757577390410006
1761475311522491000,5.708490966796875,0.008230652728676796,0.001195286757260328,-0.01513602993665263
1761475311532468000,5.718468017578125,0.006586392652988433,-0.016531123857130296,-0.02419509631348774
1761475311542445000,5.728445068359375,0.0019505495458841324,-0.005345755787749658,-0.01272164400499314
1761475311552422100,5.738422119140625,-0.004331891724467277,0.004454949565266725,-0.015172708685230463
1761475311562399000,5.74839892578125,0.01227905133664608,0.006196308202479849,-0.01048392981449142
1761475311572377000,5.758377197265625,-0.0026817864298820495,0.0014210012549359817,-0.014721384721156208
1761475311582354200,5.768354248046875,0.0016577040791511534,0.006725063621450681,-0.005155044675618409
1761475311592331000,5.7783310546875,-0.0014835165560245513,0.009668253491964424,-0.014081388050876557
1761475311602308000,5.78830810546875,-0.002227612921595573,0.004803637992884614,0.0062954468823969364
1761475311612285000,5.798284912109375,0.005554711517691612,-0.0037964736692694713,-0.0023514036980457603
1761475311622262000,5.808261962890625,0.00869359406530857,-0.0030888739600079132,-0.009821136790513992
1761475311632238800,5.81823876953125,0.0064496145308017725,0.005099512241987395,0.00278150221100077
1761475311642216000,5.8282158203125,0.001810264292359352,0.005668446120186126,-0.008004990746639669
1761475311652193000,5.838193115234375,0.003453355324268341,0.003072722547050216,-0.009471172575373202
1761475311662169900,5.848169921875,0.008987608575820922,-0.005663132907540421,-0.014793043451569973
1761475311672147000,5.85814697265625,0.007640870141983031,-0.005204233562608715,-0.01719155596066266
1761475311682123800,5.868123779296875,0.007191957330703735,-0.008626786181592615,-0.02121264643659815
1761475311692101000,5.87810107421875,0.0052460839599370954,-0.0006847080282634124,-0.007331785926502197
1761475311702079000,5.888078857421875,-0.0010410334855318068,0.006932554050913313,-0.003669080434180796
1761475311712055800,5.898055908203125,0.003000350859761238,-0.005907565805417834,-0.023093254285119474
1761475311722033000,5.908032958984375,0.0039016836136579513,-0.008311047892217175,-0.01785981061104685
1761475311732010000,5.918010009765625,0.0048024318456649775,-0.004690853809282998,-0.022989300720300525
1761475311741987000,5.927987060546875,-0.002976385462284088,0.01175112075569341,0.0007518047479912638
1761475311751964400,5.93796435546875,0.00824701934158802,0.005410380276711657,-0.012835844969190656
1761475311761941500,5.94794140625,0.005403904870152473,0.003869844866156927,-0.024502664425317195
1761475311771918300,5.95791845703125,0.002707505393028259,0.012706279755791182,-0.004273129008244723
1761475311781895400,5.9678955078125,0.0016635492980480193,-0.0019233281788183375,-0.013107702446822076
1761475311791872300,5.977872314453125,0.003906359788775444,0.00665350421409239,-0.006142265614680945
1761475311801849300,5.987849365234375,0.013337035956978797,0.00007570585951325483,-0.010951967451348901
1761475311811826200,5.997826171875,0.009296820655465126,-0.0015850195813196478,-0.003460899309907108
1761475311821803300,6.00780322265625,0.007647884404659271,0.0003984264455240918,-0.0055272937878035
1761475311831781400,6.017781494140625,0.008995207360386849,-0.0014671522264019586,0.0009421031557023525
1761475311841758200,6.02775830078125,0.0018137714236974715,0.007429932517508859,-0.014573866009246558
1761475311851735300,6.0377353515625,0.001813186901807785,0.005994316502864239,-0.024762301742192357
1761475311861712100,6.047712158203125,-0.00028232407271862027,0.003077518594820867,-0.009221088538132607
1761475311871689200,6.057689208984375,0.01049041435420513,-0.0023748308102280132,0.003462159685231745
1761475311881666300,6.067666259765625,0.0037602293163537977,0.005353643408327479,-0.0023999920801259576
1761475311891643400,6.077643310546875,0.005704933643341064,-0.006292793701007031,-0.014541899968404323
1761475311901620500,6.087620361328125,0.005106383228302001,-0.0025638899630343074,-0.019172500644810495
1761475311911597300,6.097597412109375,-0.0019306758016347885,0.011337777014716994,-0.0096186730209738
1761475311921574400,6.107574462890625,0.01796937193274498,-0.0009933612730150343,-0.011908647121675312
1761475311931551200,6.11755126953125,-0.0022299510091543196,0.0034538907554524483,-0.016776253158040343
1761475311941528300,6.1275283203125,0.00255845231115818,-0.0037763099473639154,-0.01753518176656216
1761475311951505400,6.13750537109375,0.0031529110729694365,-0.008712511111621279,-0.018745982328429816
1761475311961482200,6.147482177734375,0.010035656324028969,0.009675324836856453,0.001747683917544782
1761475311971460400,6.15746044921875,0.011236264285445212,0.017862144132028333,-0.0035011034561321136
1761475311981437400,6.1674375,-0.006119944185018539,0.002083114429723355,-0.00627758243214339
1761475311991414300,6.177414306640625,-0.0041740708142519,-0.0025316556357778608,-0.027214608531445264
1761475312001391400,6.187391357421875,0.015128595548868178,0.00027114509157836434,-0.007040273900330066
1761475312011368200,6.1973681640625,0.00959200420975685,-0.004868487385776825,-0.010186992694530635
1761475312021345300,6.20734521484375,0.003904606223106384,0.011161714911623858,-0.00709120036996901
1761475312031322400,6.217322265625,0.010790274083614349,0.007909436259052017,-0.01566841978030279
1761475312041299500,6.227299560546875,0.0034556934118270873,-0.009767822000966406,-0.02026367514869198
1761475312051276500,6.237276611328125,0.009289806392788886,0.01191178550189943,-0.018517562133725733
1761475312061253400,6.24725341796875,0.011681085443496704,-0.0010833822106040315,-0.014140369962807743
1761475312071230500,6.25723046875,0.0067430445194244385,0.0022368088665592947,-0.0009673471948131919
1761475312081207300,6.267207275390625,0.012730302235484122,-0.0013661035755445482,-0.001213613573461771
1761475312091184400,6.277184326171875,0.016025836649537085,0.007833895367142395,-0.02187037969296798
1761475312101162500,6.28716259765625,0.00630289953649044,-0.002081146234922926,-0.023082477162778375
1761475312111139300,6.297139404296875,0.011542553755640983,-0.007841946813679532,-0.014770922951307146
1761475312121116400,6.307116455078125,0.00720306324660778,0.007337632287043379,-0.01911203916184604
1761475312131093200,6.31709326171875,0.005853986725211143,-0.0032486379488487725,-0.01155901170009747
1761475312141070300,6.3270703125,-0.0008814590096473693,-0.004885104018793209,-0.0014426548226736484
1761475312151047200,6.337047119140625,0.005252513700723648,-0.006161844814696815,-0.003437098309211433
1761475312161024300,6.347024169921875,0.004656301373243332,0.0006158748675312381,-0.015324976637493819
1761475312171001300,6.35700146484375,0.005851648637652397,0.014121498582267668,-0.013151231061294674
1761475312180978200,6.366978271484375,0.006004793372750282,-0.010358111477736383,-0.015117124306783079
1761475312190955500,6.37695556640625,0.012293079861998558,-0.001832616546418285,-0.0055583282468840475
1761475312200932400,6.386932373046875,0.007957096484303474,-0.004013568181538721,-0.019788878977485
1761475312210909400,6.396909423828125,0.012145780345797538,-0.006266204234070028,-0.0163786869415082
1761475312220886300,6.40688623046875,0.017679449075460433,-0.00929761752319755,-0.013796415363345294
1761475312230864400,6.416864501953125,0.00884790784418583,-0.005091089761047623,0.0019413981250487266
1761475312240841500,6.426841552734375,-0.0010270049601793288,0.0020140278239530744,-0.007291545247659087
1761475312250818300,6.436818359375,0.007056348252296447,-0.009673334950814023,-0.016003624817728997
1761475312260795400,6.44679541015625,-0.004611293187737464,0.009650326251273508,-0.007601031321939081
1761475312270772200,6.456772216796875,0.013495441389083861,0.006965053810473182,-0.017767383087240157
1761475312280749300,6.466749267578125,-0.0028138883769512177,-0.00743892239567358,-0.008133457698207348
1761475312290726400,6.476726318359375,0.00975450129508972,-0.01575728423219989,-0.012370912604872136
1761475312300703200,6.486703125,0.004067687830328941,0.0012942987146583617,0.0027192688960582015
1761475312310680300,6.496680419921875,0.013645078992843626,-0.007818437503106542,-0.01579769044946879
1761475312320657200,6.5066572265625,0.00047989247143268585,-0.001014095817078487,-0.024973606405314056
1761475312330634200,6.51663427734375,-0.0025128596037626264,-0.0018659976553899468,0.006593498247209936
1761475312340611300,6.526611328125,0.0007779986351728439,0.00904779549332743,-0.006168952692206949
1761475312350588400,6.53658837890625,0.005866261684894561,0.00013854310429887846,-0.014825411351211367
1761475312360565500,6.5465654296875,0.01394727680981159,-0.006092388316168216,-0.003142755005136132
1761475312370543400,6.55654345703125,0.003320668855309486,-0.013795113888825289,-0.018187672592233865
1761475312380520400,6.5665205078125,0.008109072175621986,0.0032031868053483776,-0.03001715353047475
1761475312390497500,6.57649755859375,0.0021229835033416745,0.007526823299768147,-0.015522197976335882
1761475312400474400,6.586474365234375,0.005115735578536987,-0.0015297657089016865,-0.016268248836975543
1761475312410451500,6.596451416015625,-0.0034159459233283995,0.003209087964816717,-0.009481273844279348
1761475312420428300,6.60642822265625,0.01080196452140808,-0.0005304284987156279,-0.012978943234309554
1761475312430405400,6.6164052734375,0.0019710078120231626,-0.002084596284045256,-0.009330357598885893
1761475312440382200,6.62638232421875,-0.014189268872141838,0.0005407072933128801,-0.0010860234047286213
1761475312450359300,6.636359375,0.003319499811530113,0.009420004647961468,-0.005835683883540332
1761475312460336400,6.64633642578125,-0.0034130233138799666,0.00046339000284788197,-0.017448562929034232
1761475312470313200,6.656313232421875,0.014687281522154807,0.007888537889029249,-0.00945279666846618
1761475312480290300,6.666290283203125,0.004810030630230903,-0.00020103328921250067,-0.014140717022679746
1761475312490267400,6.676267333984375,-0.0038677813440561293,0.008339112934432341,-0.006749583858065307
1761475312500245200,6.686245361328125,0.012893968364596366,0.011423708582366816,-0.005772244992200285
1761475312510222300,6.696222412109375,-0.006108838269114494,0.0063729131574451455,0.0037015579316765066
1761475312520199400,6.706199462890625,-0.0055073652446269985,0.022411313602677545,-0.008013429781422018
1761475312530176500,6.716176513671875,0.005414426264166832,0.0038833573682786663,-0.013602463693823664
1761475312540153300,6.7261533203125,-0.002516366735100746,-0.011374969503236933,-0.015692677438724784
1761475312550130400,6.73613037109375,0.003468552893400192,0.004175571505705011,-0.007947269210033117
1761475312560107300,6.746107177734375,0.012148702955245972,0.005484108808269957,-0.01776557472264394
1761475312570084400,6.75608447265625,0.00017769465446472167,-0.0002777432249014964,-0.010131353517156093
1761475312580061400,6.7660615234375,-0.0035620763957500455,0.001936938291529077,0.006678473116923123
1761475312590038300,6.776038330078125,0.0006306991189718247,-0.01050655948811909,-0.005191303299088031
1761475312600015400,6.786015380859375,0.003923895445466041,-0.0014078049882897176,-0.007843534840922803
1761475312609992200,6.7959921875,0.009016250148415565,0.004852144176574074,-0.014548421040736137
1761475312619969300,6.80596923828125,0.00034136078357696533,0.0021584018765948712,-0.01139826818043366
1761475312629946000,6.815946044921875,0.012461422166228293,0.011149405702610965,0.0003938033568672836
1761475312639924200,6.82592431640625,0.005127426016330719,-0.0033408365729701473,-0.020325579670071602
1761475312649901300,6.8359013671875,-0.010287585258483885,0.01030631621677312,-0.0073804656401276585
1761475312659878100,6.845878173828125,0.006325695890188217,0.0037391773951705545,0.0036737383429892357
1761475312669855200,6.855855224609375,0.0037806875824928283,-0.004574383827007841,-0.019265110831707715
1761475312679832300,6.865832275390625,0.0006394669473171234,0.008684113850910216,-0.010398315623961388
1761475312689809400,6.875809326171875,-0.006693360158801079,0.0024081828072696223,-0.00982747519975528
1761475312699786500,6.885786376953125,0.015750526839494704,-0.001912535644278978,-0.01767044378509745
1761475312709763300,6.895763427734375,-0.0008610007435083389,-0.00007992823101521935,-0.01654209734229371
1761475312719740400,6.905740478515625,0.0067693480044603346,0.017399304401740662,-0.014329481060430407
1761475312729717200,6.91571728515625,-0.0013128361642360687,0.007029790751400287,-0.01994693734971806
1761475312739694300,6.9256943359375,-0.019117957445979116,0.003774838938663015,-0.0062518817353062325
1761475312749671200,6.935671142578125,-0.00490472317636013,-0.0024581297460856146,-0.012481734301894903
1761475312759648500,6.9456484375,0.0055693245649337765,-0.005261748461594106,-0.015791388572845608
1761475312769625600,6.95562548828125,0.004070025917887687,-0.006854772682033944,-0.014551471514347939
1761475312779603500,6.965603515625,0.005265957704186439,0.0060735095149400875,0.0023116014106199143
1761475312789580500,6.97558056640625,0.004965513452887535,0.00018226066090574022,-0.013901866765506565
1761475312799557600,6.9855576171875,-0.009697802671790122,-0.008451142491141218,-0.013406155670434235
1761475312809534500,6.995534423828125,0.0034720600247383116,0.008367753936204826,-0.009000449791084974
1761475312819511600,7.005511474609375,0.003920388314127922,0.0055450189574505196,-0.0027571897536516187
1761475312829488600,7.015488525390625,0.007210077509284019,0.00645979685645434,0.008228296374808996
1761475312839465700,7.0254658203125,0.019779051703214645,0.004027739412430674,-0.011696502208337187
1761475312849442600,7.035442626953125,0.010052607458829878,0.00433467048673192,-0.011083777137473225
1761475312859419600,7.045419677734375,0.004965513452887535,0.011802985656959935,-0.011503116794396192
1761475312869396700,7.055396728515625,-0.00805529616177082,0.0047935207409580466,0.00351876697698608
1761475312879373600,7.06537353515625,0.001225157880783081,0.005766802773746894,0.0007795330051332712
1761475312889350700,7.0753505859375,0.0033212533771991726,-0.008430447904628817,-0.024759872323088346
1761475312899327500,7.085327392578125,0.008559154030680655,-0.0029696052366925867,-0.020997980772610753
1761475312909304600,7.0953046875,0.001974514943361282,-0.005061920748779084,-0.025347134159132836
1761475312919282700,7.10528271484375,0.003622282150387764,-0.0032573047416721234,-0.018997454605158417
1761475312929259500,7.115259521484375,0.004967267018556595,0.001315995094057871,-0.016823526365868747
1761475312939236600,7.125236572265625,0.008710545200109481,0.001576429278665455,-0.00042284678826108574
1761475312949213400,7.13521337890625,-0.004458732974529266,0.008247482849180232,-0.007806180238910019
1761475312959190500,7.1451904296875,0.0010749357551336288,-0.0010037953312392346,0.004349080321285874
1761475312969167400,7.15516748046875,0.006609773528575897,0.0034115220516046972,-0.017700455330871046
1761475312979144400,7.16514453125,0.001373041918873787,0.007306295863041304,-0.012893420375324784
1761475312989121800,7.175121826171875,0.004215571868419647,0.008209945013254763,-0.0041010786432772875
1761475312999098600,7.1850986328125,0.004962006321549415,0.006482728495003539,0.0037709151071496304
1761475313009075700,7.19507568359375,-0.0023678981751203538,-0.005389685119377099,0.005956460718996822
1761475313019052500,7.205052490234375,0.0007709843724966049,-0.0034759079369046956,-0.003019146891776472
1761475313029029600,7.215029541015625,0.0148357500821352,0.007654922641866142,-0.01861678472450003
1761475313039006500,7.22500634765625,0.014238953232765196,0.016386813165748026,-0.014498955875821411
1761475313048983600,7.234983642578125,0.005561141258478165,0.007857646135488176,-0.015057137747853994
1761475313058961700,7.244961669921875,0.01693009201288223,0.002819997315685032,-0.006971391648892313
1761475313068938500,7.2549384765625,-0.0028249942928552626,-0.0017186102325766114,-0.023677356049697843
1761475313078915600,7.26491552734375,0.016032266390323638,-0.005958156060805777,-0.0133961274667643
1761475313088892700,7.274892578125,0.01258709437251091,-0.007825822800185414,-0.017720639602374286
1761475313098869500,7.284869384765625,0.0019604864180088042,0.003894986157279345,-0.004491594064515084
1761475313108846600,7.2948466796875,0.010789105039834976,-0.0073184652206255115,-0.004648720854986459
1761475313118823400,7.304823486328125,0.002557283267378807,0.007525215293749351,-0.019237693101819605
1761475313128800500,7.314800537109375,0.0022521628409624098,0.0037791058342932955,-0.01587828140500933
1761475313138777600,7.324777587890625,-0.004333645290136337,0.01455186538163689,-0.01698584078811109
1761475313148754700,7.334754638671875,0.0019511340677738189,0.009867951057327445,-0.001281034520175308
1761475313158731800,7.344731689453125,-0.0058306058496236796,0.005290562993302592,-0.014156097254902123
1761475313168708600,7.35470849609375,0.010480477482080459,-0.015061514812160748,0.004851221157144755
1761475313178685700,7.364685791015625,-0.0011924246549606323,-0.006411853503412566,-0.011051171775814146
1761475313188662500,7.37466259765625,-0.00044423663616180415,0.006312448249547742,-0.008950107843335718
1761475313198639600,7.3846396484375,0.0013537526965141295,0.006710350680330884,-0.012440324579272419
1761475313208617700,7.39461767578125,0.00030804303586483,0.0034455019530199933,-0.01671939013795927
1761475313218594600,7.404594482421875,0.017964695757627488,0.003425235483126016,-0.026165738799329846
1761475313228571600,7.414571533203125,0.014374562311172484,0.0009862197169975843,-0.014744929993525146
1761475313238548500,7.424548583984375,-0.003129530197381973,0.0013625073959497966,-0.01461094661662355
1761475313248525600,7.434525634765625,-0.01075929442346096,0.006627648824450443,-0.008866722142510115
1761475313258502400,7.44450244140625,-0.001631400594115257,0.005293004970494075,-0.020992135553713886
1761475313268479500,7.4544794921875,0.0006102408528327941,-0.0021131379627622664,-0.012863664557877926
1761475313278456600,7.46445654296875,0.006001286241412163,0.005510605231195222,-0.01779472775189206
1761475313288433700,7.47443359375,0.005550619864463806,0.003485988656213158,-0.008893317888490855
1761475313298410800,7.48441064453125,0.008545710027217865,-0.0005121393567766063,-0.01824190526381135
1761475313308387600,7.4943876953125,0.002413490882515907,0.008144107527207234,-0.01573523793881759
1761475313318364700,7.50436474609375,-0.00552080924808979,0.005966827991028549,-0.004056380985025317
1761475313328341500,7.514341552734375,0.010341945794224738,0.00729061081178661,-0.004305661304667592
1761475313338318600,7.524318603515625,-0.00013034838140010832,-0.0011535288331215269,0.004606160354893654
1761475313348296700,7.534296630859375,0.006301730492711067,0.014351160885987337,-0.008653590848483144
1761475313358273500,7.5442734375,0.009743395379185676,-0.0037383622611290774,-0.01821476152855903
1761475313368250600,7.554250732421875,0.016025836649537085,-0.01068427925875876,-0.0021430399106815456
1761475313378227500,7.5642275390625,0.012588263416290282,0.0007360192320367787,-0.016505436860024928
1761475313388204500,7.57420458984375,0.003013210341334343,0.01040993299651891,-0.01808481500595808
1761475313398181600,7.584181640625,0.0009171148449182509,0.0015657686040445695,-0.00779653562773019
1761475313408158500,7.594158447265625,0.00046703298985958095,-0.014970526901836274,-0.014587017751764506
1761475313418135600,7.604135498046875,0.008249357429146766,-0.005290431704206276,-0.0010716478195041416
1761475313428112400,7.6141123046875,-0.0005775076270103454,-0.0008044927748094778,-0.0062334875620901585
1761475313438089700,7.62408984375,-0.002973462852835655,0.002019975220016204,-0.022470829804148523
1761475313448066600,7.634066650390625,-0.0007312368839979171,-0.0002149242464249255,-0.01941237381529063
1761475313458043600,7.644043701171875,0.014381576573848724,-0.005251371485585696,-0.016286953537445515
1761475313468020700,7.654020751953125,0.012432780593633652,0.008473047791450517,-0.024496326016075907
1761475313477997600,7.66399755859375,0.004055412870645523,-0.007235181126144016,-0.006909030469786376
1761475313487975700,7.6739755859375,0.004207388561964035,0.00191123759469192,-0.0020356522797606883
1761475313497952800,7.683952880859375,0.019769699352979658,0.003856427691335557,-0.013254727968387305
1761475313507929600,7.6939296875,0.008995791882276534,0.0012807987706240965,-0.011758662458043545
1761475313517906700,7.70390673828125,0.004355272600054741,0.002853692376843537,-0.0020992738341912625
1761475313527883500,7.713883544921875,0.006001870763301849,-0.0026738742639514385,0.0028463658744469285
1761475313537860600,7.723860595703125,-0.003124269500374794,-0.0049451185480080305,-0.005309157525096088
1761475313547837400,7.73383740234375,0.010046762239933013,-0.004784015981206903,-0.0034130963791161773
1761475313557814500,7.743814453125,0.00016717326045036316,0.004242681925164652,0.012772826202958821
1761475313567791600,7.75379150390625,-0.00566635519862175,0.0028857286288111934,-0.019901435973867773
1761475313577768400,7.7637685546875,0.012287234643101691,0.008407812522779567,-0.010893953653797507
1761475313587745800,7.773745849609375,0.0083960724234581,0.009329983139550312,-0.014048179901018738
1761475313597722600,7.78372265625,0.005257189875841141,0.014049608098057796,-0.0022492219652049243
1761475313607699700,7.79369970703125,0.004957914668321609,-0.0051185114866908405,-0.015407723017502576
1761475313617676500,7.803676513671875,0.010347791013121605,-0.007190447506096097,-0.021882033598143606
1761475313627654700,7.813654541015625,0.007205401334166526,-0.006698740728461416,-0.0006413483771495521
1761475313637631700,7.8236318359375,0.0007709843724966049,-0.0036334605607058618,-0.016491499666217713
1761475313647608600,7.833608642578125,0.007953589352965354,0.01303202969499398,-0.009619951662607491
1761475313657585700,7.843585693359375,0.0003232406049966812,0.0036833761043031698,-0.016435440363734958
1761475313667562500,7.8535625,-0.00042319384813308713,0.004865063594473759,-0.011439458707347512
1761475313677539600,7.86353955078125,0.010049684849381447,0.001798636645002989,-0.0007239668929949402
1761475313687516700,7.8735166015625,0.003464461240172386,-0.0061927337141270975,-0.007961242936458439
1761475313697493500,7.883493408203125,0.005711947906017303,-0.0015642279550404053,-0.012935067559964954
1761475313707470600,7.893470703125,0.006309913799166679,-0.0021043992463470203,-0.010854900285042822
1761475313717447400,7.903447509765625,-0.001772270369529724,-0.009792193823819979,-0.009268708805833012
1761475313727424500,7.913424560546875,-0.001772270369529724,0.0053077698564302405,-0.007164229073561727
1761475313737401600,7.923401611328125,0.003913374051451683,0.006570701893512159,-0.010780300678871571
1761475313747378700,7.933378662109375,0.00989654011428356,0.003217782157103647,-0.006544800267275422
1761475313757355300,7.943355224609375,0.0006207622468471527,0.004868475969333667,-0.014837850707676261
1761475313767332400,7.953332275390625,0.002113631153106689,-0.0001223899788747076,-0.020656090266071257
1761475313777310200,7.963310302734375,0.012290741774439812,-0.005295819123732508,-0.010865111151803284
1761475313787287300,7.973287353515625,0.010196984365582466,-0.004595226827281294,-0.005133271235227585
1761475313797264400,7.983264404296875,0.005106967750191688,0.0027216829029639484,-0.023344324703048914
1761475313807241200,7.9932412109375,0.006005377894639968,-0.004696945623352076,-0.013741470305714756
1761475313817218300,8.00321826171875,0.010048515805602074,-0.001273793070280226,-0.017371917496249077
1761475313827195100,8.013195068359375,-0.008355155891180037,0.005977906507469015,-0.006061820789612829
1761475313837172200,8.023172119140625,0.0016693945169448852,0.007812183004722464,-0.00925486294357106
1761475313847149000,8.033149169921876,-0.008954290828108787,-0.0013415256858919746,-0.003392820776067674
1761475313857126100,8.043126220703124,0.0043622868627309795,0.00922340607609367,-0.018255732859764246
1761475313867103200,8.053103271484375,-0.007758943563699722,0.005791110664518782,-0.004797152882348746
1761475313877080300,8.063080322265625,0.0006225158125162124,0.0027283894924970808,-0.002040785112604499
1761475313887057400,8.073057373046876,0.014987141251564026,0.01497857092768536,-0.009542940903641283
1761475313897034200,8.0830341796875,-0.0052127662122249604,0.010499775837594642,-0.01714062949102372
1761475313907011300,8.09301123046875,0.008854337584972382,-0.006595513249427313,-0.013654924533423035
1761475313916988200,8.10298828125,-0.0016208792001008987,0.0195763093724614,-0.0055956645825877786
1761475313926965200,8.11296533203125,-0.00386427421271801,-0.017343463153322226,-0.010051657610759138
1761475313936942300,8.1229423828125,0.003621697628498077,-0.020390036908141337,-0.012589304595906287
1761475313946920200,8.132920166015625,-0.0032622166663408276,-0.007823205580591457,-0.005872709691990167
1761475313956897300,8.142897216796875,0.010351882666349411,0.0008168807572801597,-0.010629384433478117
1761475313966874400,8.152874267578126,0.0061585226297378535,0.002567679651340586,-0.00820827650008723
1761475313976851200,8.162851318359374,-0.00043079263269901275,-0.004291197242008638,-0.015154131848923861
1761475313986828300,8.172828369140625,0.006750643303990364,0.010096467150154057,-0.017435813045315444
1761475313996805000,8.18280517578125,0.019919921478629112,-0.0039128608823317335,0.005500332715641707
1761475314006782200,8.1927822265625,-0.005968553015589714,0.005554979233283666,0.007390932235214859
1761475314016759000,8.202759033203124,-0.005074234524369239,0.007743777960608713,-0.005174388696905226
1761475314026736400,8.212736328125,0.011684008052945137,0.0025614280070672974,-0.014639405526127665
1761475314036713500,8.22271337890625,0.0019581483304500578,0.00516750115674804,0.003036408553831279
1761475314046690300,8.232690185546875,-0.00013736264407634735,0.001286557224552962,-0.0065582808033563195
1761475314056667400,8.24266748046875,-0.001934182932972908,0.0011603747032611863,-0.021575616263784465
1761475314066644200,8.252644287109375,0.008537526720762252,-0.007252288095394033,-0.011514971628971396
1761475314076621300,8.262621337890625,0.019162381109595297,-0.0025673091877601107,0.00047963674310594795
1761475314086598100,8.27259814453125,0.007790507745742798,-0.006275168996059801,-0.01505549378003925
1761475314096576300,8.282576171875,0.0009060089290142059,0.005693471534410491,-0.002524933634046465
1761475314106553300,8.29255322265625,0.003896422916650772,0.004474177138833329,0.003981251655891537
1761475314116530200,8.3025302734375,0.011382394757866858,0.011646761907142353,-0.016645027993805704
1761475314126507300,8.31250732421875,0.0022539164066314697,-0.007968443857980309,-0.024302337813936172
1761475314136484000,8.322484130859374,-0.006128127491474151,-0.004607365931291133,-0.010471472191717474
1761475314146461200,8.332461181640625,0.0037450317472219464,-0.00780858225855045,-0.0011679660671390592
1761475314156438300,8.342438232421875,0.011380056670308112,-0.0067895088722551,0.00047852249825373287
1761475314166415000,8.3524150390625,0.0038987610042095183,-0.013201633516192668,-0.020308975595142692
1761475314176392200,8.36239208984375,-0.0025379940450191494,0.0006779637644678587,-0.01127898918231949
1761475314186369300,8.372369384765625,-0.0022398878812789915,0.0028164890427025964,-0.022522559991385787
1761475314196346400,8.382346435546875,0.004344166684150695,-0.009427742142311762,-0.01384040063554421
1761475314206323200,8.3923232421875,0.004044306954741478,-0.0061159792543097865,-0.0033934783631935713
1761475314216300300,8.40230029296875,0.0009013327538967132,-0.010452534595807082,-0.007915175305027514
1761475314226277400,8.41227734375,0.010773322948813438,0.00451295993788517,-0.00986391648631543
1761475314236254200,8.422254150390625,0.0007493570625782013,0.0031363880547869484,-0.0021740926360711453
1761475314246232300,8.432232421875,-0.006279518660902977,0.0073596534642507315,0.003824289262201637
1761475314256209200,8.442209228515624,-0.011217559584975242,0.0025428802826907484,-0.013689100797660649
1761475314266186200,8.452186279296875,-0.008076923471689224,-0.013472720383910928,-0.022418916953820735
1761475314276163300,8.462163330078125,0.004937456402182579,0.0143885645787057,-0.012255999254621565
1761475314286140200,8.47214013671875,0.015412673187255858,0.0098205374272482,-0.02764415905512869
1761475314296117200,8.4821171875,0.0053869537353515625,0.000832665131590329,-0.01268235317422077
1761475314306094000,8.492093994140625,0.005986088672280311,-0.0003170232100528665,-0.008323756105918437
1761475314316071200,8.5020712890625,0.001945288848876953,-0.003597434261854505,-0.0004316146166063845
1761475314326048300,8.51204833984375,0.004934533792734146,0.009153776047629071,-0.005948113015759736
1761475314336025300,8.522025390625,0.012267945420742034,0.0007738373416417743,-0.004863843176700174
1761475314346002400,8.53200244140625,0.002393032616376877,0.003531060773800709,-0.013787172610964625
1761475314355979300,8.541979248046875,0.006435586005449295,0.002215071958786575,-0.013992595522571354
1761475314365956400,8.551956298828125,0.006883914294838905,0.0036774549660593034,-0.012369999289419502
1761475314375933200,8.56193310546875,0.010176526099443434,-0.000830248270573793,-0.004118997892457991
1761475314385910300,8.57191015625,0.0053869537353515625,0.0022751487076166084,-0.016898747026547787
1761475314395888400,8.581888427734375,0.004339490509033203,-0.0043813123652536885,0.004215297873783857
1761475314405865200,8.591865234375,0.011817863565683364,0.013286122045427328,-0.018520557808410377
1761475314415842300,8.60184228515625,0.0013455693900585174,0.013111784966895357,-0.008250855266489087
1761475314425819100,8.611819091796875,0.0011947627425193785,-0.00843654885185242,-0.009201543587446213
1761475314435796200,8.621796142578125,-0.0012006079614162444,-0.005402276314535993,-0.018059717097319662
1761475314445773300,8.631773193359376,0.00045008185505867004,-0.004760019759333226,-0.0027602584935724735
1761475314455750100,8.641750244140624,0.001948211458325386,-0.006741830951516749,-0.017204725969489663
1761475314465727200,8.651727294921875,0.01421791044473648,0.00215155657727737,-0.013036463841516523
1761475314475704300,8.661704345703125,0.0037438627034425734,0.012430352316173957,-0.015848288125544785
1761475314485681400,8.671681396484376,0.005240823262929916,0.008888742178073152,-0.006390303825307637
1761475314495658200,8.681658203125,0.004191021949052811,-0.004935298694425728,-0.02281045528836548
1761475314505635300,8.69163525390625,0.009576806640625,-0.014048933386267162,-0.014920176962576805
1761475314515612400,8.7016123046875,-0.0056885670304298395,-0.004219238829961978,-0.0046769057698547835
1761475314525589200,8.71158935546875,0.01585749434530735,-0.007778421157371485,-0.01266817851839587
1761475314535566300,8.72156640625,0.004485620981454849,-0.012590168820653343,-0.011900409016292541
1761475314545544200,8.731544189453125,-0.004643441891670227,0.009178465247602434,-0.010726963056437671
1761475314555521300,8.741521240234375,0.006281272226572036,0.008487100291333627,-0.017577669201418757
1761475314565498400,8.751498291015626,0.011367197188735008,0.0003675695121346507,-0.015087277157790959
1761475314575475200,8.76147509765625,-0.008085106778144837,0.008061163071909686,-0.018955770887900143
1761475314585452300,8.771452392578125,-0.004793664017319679,0.004672301518329186,-0.012702939304523169
1761475314595429000,8.78142919921875,0.0013408932149410247,0.006121142911550123,-0.011524068250879645
1761475314605406200,8.79140625,-0.0024000468790531158,-0.0012837915911979507,-0.006572674654889851
1761475314615383000,8.801383056640624,0.005976736322045326,0.0006488592551031615,-0.016265764618944377
1761475314625360100,8.811360107421875,0.010765139642357825,0.009563965425360947,-0.018206961814593522
1761475314635337500,8.82133740234375,0.0029845687687397003,-0.0036613469355856066,-0.019830416564270852
1761475314645314300,8.831314208984375,-0.014824059644341468,-0.0034690278174355623,-0.01255989583833143
1761475314655291400,8.84129150390625,0.001336217039823532,-0.0032114603017049373,-0.0061365482599474485
1761475314665268200,8.851268310546875,0.0035772739648818968,-0.006925032898160861,-0.004342924575135111
1761475314675245300,8.861245361328125,0.0023801731348037716,0.009051029200851917,-0.01572489920789376
1761475314685222100,8.87122216796875,0.006122866794466972,0.002013724717387231,-0.015200254279281943
1761475314695199200,8.88119921875,0.0007353285372257233,-0.006069087355682859,-0.0024957806047983468
1761475314705177300,8.89117724609375,0.007618658310174942,-0.015417738663085037,-0.01446249632295221
1761475314715154200,8.901154296875,0.016600421667098998,-0.00730048546429607,-0.035429424370173365
1761475314725131300,8.91113134765625,0.01525485227704048,-0.002088826647057431,-0.025360797358304262
1761475314735108000,8.921108154296874,-0.0010556465327739716,-0.004569204186747083,-0.014897398875188081
1761475314745085200,8.931085205078125,0.014802432334423065,-0.01926297824012581,-0.022042302193772047
1761475314755061800,8.941061767578125,0.005675707548856735,-0.000046805133658926934,-0.013168584054894744
1761475314765038800,8.951038818359375,-0.007492986103892326,-0.004153612548112869,-0.010192746581882238
1761475314775016200,8.96101611328125,-0.0019534721553325653,-0.0026541072634456214,-0.02354452345026657
1761475314784993000,8.970992919921875,-0.004201543343067169,0.004938548955792794,-0.024870547889638692
1761475314794970000,8.98097021484375,0.011360182926058768,0.0025721303517057094,-0.008716755745187401
1761475314804947000,8.990947021484375,0.0002846621602773666,-0.0077488148953299965,-0.010736059678345919
1761475314814924000,9.000924072265626,-0.0019604864180088042,0.0037848819837090555,-0.018861206205934285
1761475314824900900,9.01090087890625,0.001931260323524475,-0.0026690491042507345,-0.007734247513860463
1761475314834878000,9.0208779296875,-0.005247837525606155,-0.012411152142070931,0.0007818893590010702
1761475314844855000,9.03085498046875,0.009118541479110717,-0.004575370207696688,-0.010405402951873838
1761475314854833000,9.0408330078125,0.003134206372499466,-0.0018216864437388721,-0.009613284459803252
1761475314864810000,9.05081005859375,0.0014893617749214172,0.0001290925726527348,-0.013904643244482576
1761475314874786800,9.060786865234375,-0.006891513079404831,-0.007772567946964409,-0.020091643050033598
1761475314884764000,9.070763916015625,0.0013309563428163527,-0.022512107096030375,-0.017545045573450622
1761475314894741000,9.080740966796874,0.0019318448454141615,-0.008501929109351476,-0.021042440968845038
1761475314904717800,9.0907177734375,0.007170330020785332,0.0010484655900276265,-0.008569328364823013
1761475314914695000,9.10069482421875,0.0013350479960441588,0.017424439984641504,-0.015874061887618154
1761475314924672000,9.110672119140625,0.00866962866783142,0.009833060123748145,-0.027149872732162475
1761475314934649000,9.120649169921874,0.01001812066733837,0.005199053922347957,-0.026184151238854973
1761475314944626000,9.1306259765625,-0.00749240158200264,-0.0053404579873022155,-0.012661346918810159
1761475314954603000,9.14060302734375,-0.0065963295251131055,-0.009110038512246683,-0.017988916883431374
1761475314964580000,9.150580078125,0.009417232164740563,-0.001144960792531492,-0.01865041299946606
1761475314974557000,9.160556884765626,-0.005995441022515297,-0.004806762102554785,-0.002800316509325057
1761475314984534000,9.170533935546874,0.007324643799662589,-0.006423881867923774,-0.01258629065491259
1761475314994510800,9.1805107421875,0.021541385200619698,0.003517597933206707,-0.005212857543770224
1761475315004489000,9.190489013671876,0.013912205496430395,-0.0016563854799664113,-0.011686821064539252
1761475315014466000,9.200466064453124,0.005833528459072113,-0.014601916210085619,-0.021346027025301008
1761475315024443000,9.21044287109375,0.011672902137041091,0.0033872735263372304,-0.01838346915896982
1761475315034420000,9.220419921875,0.008082768690586089,-0.00951216331453179,-0.00936246977020055
1761475315044396800,9.230396728515625,-0.002091419321298599,0.0002048269732738845,-0.0048354207998141645
1761475315054374000,9.240373779296876,0.008534604111313819,-0.008261031883920076,-0.00027616832656785845
1761475315064350700,9.250350830078125,-0.0005903671085834502,-0.014150876515445996,-0.006736998371127992
1761475315074328000,9.260328125,0.004799509236216545,0.000023652586934622374,-0.007521609410177916
1761475315084305200,9.27030517578125,0.007196048983931541,0.011954173613700549,-0.01583109952872619
1761475315094282000,9.280281982421876,0.007646130838990211,0.009829651173821185,0.002339749792870134
1761475315104259000,9.290259033203125,-0.0034276363611221313,0.008396767684846417,-0.02461352265495807
1761475315114236000,9.30023583984375,0.01527706410884857,-0.002076365599350538,-0.013860073450393974
1761475315124213000,9.310212890625,-0.0038771336942911147,-0.005235849118646001,-0.004755049039982259
1761475315134189800,9.32018994140625,0.013334697869420051,-0.006758216972381342,-0.009866802563145757
1761475315144167000,9.3301669921875,0.0060071314603090285,0.0011887565517739857,-0.016126812805980443
1761475315154144000,9.34014404296875,0.017079729616641996,-0.0073402717687014955,-0.021689287505019455
1761475315164121900,9.350121826171875,0.012141104170680045,-0.001900342312164139,-0.013035787988081573
1761475315174099000,9.360098876953124,0.023214871370792388,-0.0041389024611038615,0.002396247486770153
1761475315184076000,9.370075927734375,-0.004767360532283783,0.012022421110898721,-0.00791400626124814
1761475315194052900,9.380052978515625,-0.004763853400945663,0.0059729551960714155,-0.011678601225465535
1761475315204030000,9.390030029296875,0.009453472521901131,-0.007995321019284893,-0.011921981527283788
1761475315214006800,9.4000068359375,0.008255787169933318,-0.0008066790236742235,-0.015228439194150269
1761475315223984000,9.409984130859375,0.009602525603771209,0.008315336479089455,-0.00849343185070902
1761475315233961000,9.4199609375,0.011251461854577064,-0.007517445833358215,-0.002985080225393176
1761475315243938000,9.42993798828125,0.0019768530309200285,-0.008340862504346295,-0.007952109781932086
1761475315253915100,9.4399150390625,0.0006318681627511978,-0.00702478178696474,0.002572791363764554
1761475315263892000,9.44989208984375,-0.002810381245613098,-0.002172042242879979,0.0024015447163954376
1761475315273869000,9.459869140625,-0.006401683735847472,0.006360874518135096,-0.011666381064709276
1761475315283846000,9.469845947265625,0.0021294132441282273,0.007346621594385942,-0.01174324569320306
1761475315293823000,9.479822998046876,0.0027279636591672897,-0.002182568203471601,-0.004267959642782807
1761475315303799800,9.4897998046875,0.007366144853830337,0.004366739275562577,-0.006973346143960953
1761475315313777000,9.49977685546875,-0.009243629163503646,0.00003170802922686562,-0.02223451856393367
1761475315323755000,9.509755126953126,-0.004303250151872635,-0.004735582862753654,-0.014959120733477174
1761475315333731800,9.51973193359375,0.004825812721252441,0.004136422809649957,-0.015518800442852079
1761475315343709000,9.529708984375,0.013953706550598143,0.0017220699856756254,-0.011491755150165409
1761475315353685800,9.539685791015625,-0.001460135680437088,0.00877341897751321,-0.01542686610938981
1761475315363662800,9.549662841796875,0.00557224717438221,-0.007557654546160484,-0.014241510516032575
1761475315373640000,9.559639892578126,0.0018289689928293227,0.008844051369687076,-0.017195830276980996
1761475315383617000,9.569616943359375,0.00990706150829792,0.005667775404150597,-0.02055772619182244
1761475315393594000,9.579593994140625,0.01319791974723339,0.00036052442506188525,-0.01074970461120829
1761475315403571000,9.589571044921875,0.00032908582389354704,-0.005684672881668666,-0.003559464313555509
1761475315413548000,9.599548095703126,-0.0077507602572441095,0.0025244552850781474,-0.006685670042689889
1761475315423524900,9.60952490234375,-0.006105331137776375,-0.009222810137760825,-0.003851524328999221
1761475315433502000,9.619501953125,-0.004609539622068405,-0.00612177081592381,-0.019143731208052486
1761475315443479000,9.62947900390625,-0.0008685995280742645,0.0052200030955427785,-0.01493842500532046
1761475315453456000,9.639455810546876,0.0070674541682004925,0.003951331441663206,-0.00008322130404412746
1761475315463433000,9.649432861328124,-0.0011596914291381836,-0.014308929179457482,0.003634557110071182
1761475315473409800,9.659409912109375,-0.00025952771902084347,0.0025972362518543375,-0.017686627734918147
1761475315483388000,9.669387939453125,0.02293430086374283,0.007551477108767721,-0.013781710984557867
1761475315493365000,9.679364990234374,0.012009586745500563,0.0009883351839147507,-0.0041033984645269805
1761475315503341800,9.689341796875,0.003776595929265022,-0.021725934287556446,-0.016210125441569835
1761475315513319000,9.69931884765625,0.001235094752907753,-0.008250144022080349,0.010812595513276756
1761475315523296000,9.7092958984375,-0.008640987095236778,0.005867753814015305,-0.014756346436683087
1761475315533273000,9.719273193359374,0.0031821371674537655,-0.0022057104753970633,-0.010357855749409645
1761475315543250000,9.72925,-0.0004085808008909225,0.0045926021869992836,-0.01797855988619849
1761475315553227000,9.73922705078125,0.002886369091272354,0.006529819610563572,-0.021301384165976194
1761475315563204000,9.7492041015625,-0.0011526771664619444,0.000482375547819538,-0.003740830496139824
1761475315573181000,9.759180908203126,-0.0019008651852607725,-0.00028472837564768265,-0.01886454894049093
1761475315583158000,9.769157958984374,0.005283493360877037,0.0008070386416336987,-0.008916589166224002
1761475315593134800,9.779134765625,-0.006388239732384681,0.010310200090735452,-0.015646354078967122
1761475315603112000,9.78911181640625,-0.0013028992921113966,0.007051829624094535,-0.0063052376240491865
1761475315613088800,9.7990888671875,0.010817162090539931,0.009322543043544282,-0.014421506725437938
1761475315623065900,9.80906591796875,0.006028174248337745,0.010449100529705173,-0.021155838215444235
1761475315633043000,9.81904296875,-0.003250526228547096,0.0006200818268349394,-0.007601487979665398
1761475315643020800,9.829020751953125,0.017847206857800484,-0.002776794069842435,-0.011108217458985745
1761475315652998000,9.838997802734376,0.016051555612683295,-0.0028084495834307744,-0.013793620618060231
1761475315662975000,9.84897509765625,0.024884265887737272,0.0026427558940136805,-0.017364355244301258
1761475315672952000,9.8589521484375,0.010823007309436798,-0.0010817525133432354,-0.0248246994539164
1761475315682929200,9.86892919921875,0.007680033108592033,-0.007150787353387568,-0.005246778079681098
1761475315692906000,9.878906005859376,0.0007955342918634414,-0.001182849684084067,-0.004079049474559724
1761475315702883000,9.888883056640625,0.01112228251695633,-0.007736968052265001,-0.02510393652040511
1761475315712860000,9.89885986328125,0.013518237742781639,0.004059454291523434,-0.018456753590889274
1761475315722837000,9.9088369140625,0.01516425138413906,-0.00831785951302736,0.0016037088695913552
1761475315732814000,9.91881396484375,-0.000997194343805313,-0.011455430311325471,0.0030624197779223323
1761475315742791000,9.928791015625,0.00857902777493,-0.004816780031425878,-0.014450641488377004
1761475315752768000,9.93876806640625,0.004984802675247192,0.00352699709085864,-0.00634286622069776
1761475315762744800,9.948744873046875,0.007677695021033286,0.0026896923167689236,-0.005910338288638741
1761475315772722000,9.958721923828126,0.0066296472728252405,0.00029194927594508043,-0.012819752350915222
1761475315782698800,9.96869873046875,0.020097616133093833,0.0077841419370379295,-0.01698571292394772
1761475315792676000,9.978676025390625,0.013964227944612502,-0.002349791696271859,-0.01990815797559917
1761475315802653200,9.988653076171875,0.0028910452663898465,0.00749347358601517,-0.006007040128763764
1761475315812630800,9.998630859375,0.006337970849871635,0.003856081773107871,-0.018233776756282894
1761475315822608000,10.00860791015625,0.008882979157567023,-0.004718909147521481,-0.012934683967474847
1761475315832585000,10.0185849609375,0.013970657685399054,0.0008412274639587849,-0.013393204857315868
1761475315842562000,10.02856201171875,0.004992401459813118,-0.008884201858629238,-0.007240509180165827
1761475315852539100,10.0385390625,-0.0036877486020326614,-0.0025647952869767322,-0.00880085383206606
1761475315862516000,10.048515869140624,0.0028916297882795334,0.014583057387633016,0.006276815247163176
1761475315872493000,10.0584931640625,0.00618307254910469,0.007531712962372694,-0.0057043125888332725
1761475315882470000,10.068469970703125,-0.0002484218031167984,0.006103870974696474,-0.005274835130386054
1761475315892447000,10.078447021484376,0.009176993668079376,0.0008580941170803271,-0.008936919568199664
1761475315902423800,10.088423828125,0.009475099831819534,0.008095293670374667,-0.01543327758386731
1761475315912401000,10.09840087890625,0.0061813189834356306,-0.0014162896888446994,-0.00830737122669816
1761475315922378000,10.1083779296875,0.0021457798570394516,-0.00024177743319887666,0.00637547158235684
1761475315932354800,10.118354736328126,0.01830430297553539,-0.0024559360765328163,-0.019166070904023943
1761475315942332000,10.128331787109374,0.011570026284456253,0.0013046460079145616,-0.018132270876877007
1761475315952309000,10.13830908203125,0.008880641070008277,-0.003551850687613478,-0.0074985207955352955
1761475315962286000,10.1482861328125,-0.0024918168157339097,-0.0014287073540675918,0.0017851115847937762
1761475315972264000,10.158263916015626,0.006185410636663437,-0.0006981588815920986,-0.02282198132937774
1761475315982241000,10.168240966796875,0.014716507616639136,0.006810780559969134,-0.004489621303137391
1761475315992218000,10.178218017578125,0.0008019640326499939,-0.004711255564028397,0.005289502976555377
1761475316002195000,10.18819482421875,-0.0021942951738834378,-0.014763962345913751,-0.01204337941724807
1761475316012172000,10.198172119140626,0.003791793498396873,-0.008847138375916984,-0.012915139016788452
1761475316022148900,10.20814892578125,0.002744330272078514,0.008118220171524445,-0.015754782889503986
1761475316032126000,10.2181259765625,-0.009677344405651092,-0.001887238518707454,-0.00579772649332881
1761475316042103000,10.22810302734375,0.014115619114041328,0.005201634038501652,0.0003527041614986956
1761475316052079900,10.238079833984376,0.012471943560242652,0.015505867896042764,0.0017977701369673012
1761475316062057000,10.248056884765624,0.01202069266140461,0.0025208317060198167,-0.004412281750608235
1761475316072033800,10.25803369140625,-0.00189443544447422,-0.003517386729008285,-0.008714563788101077
1761475316082011000,10.268010986328125,0.003794716107845306,0.0047074881377862764,-0.02298089821813628
1761475316091988000,10.277988037109376,0.001401098969578743,0.01080688615005347,-0.007684745816327631
1761475316101965000,10.287965087890624,0.01277180328965187,0.006796826241497183,-0.026318372077774255
1761475316111942100,10.297942138671875,0.017109540233016012,-0.003772331887745531,-0.00570814851373434
1761475316121919000,10.3079189453125,-0.00039396775364875793,-0.002065764290234074,-0.009003171471133827
1761475316131896000,10.31789599609375,0.010828268006443978,-0.0010430644707696045,0.0035433899615891274
1761475316141874200,10.327874267578125,0.0075333181142807,0.014073724192584632,-0.0053951735744252795
1761475316151851000,10.33785107421875,0.0031979192584753032,0.008432926985260564,-0.0028405937207862733
1761475316161828000,10.347828125,0.005593874484300613,-0.0015976410300529095,-0.012944036317709833
1761475316171805000,10.357804931640626,-0.006827215671539306,0.0011725668937317094,-0.009098192810826003
1761475316181782000,10.367781982421874,0.005890811604261398,-0.001889423625927884,-0.00434500693436712
1761475316191758800,10.3777587890625,0.003647416591644287,0.0032709639450884424,-0.014913966417498885
1761475316201736000,10.38773583984375,0.003798807761073112,0.001891197741194628,-0.023389899144135414
1761475316211713000,10.397713134765626,0.0020049100816249845,0.0047933763229520985,-0.016276066817250103
1761475316221689900,10.40768994140625,0.0037970541954040525,-0.014336227036692434,-0.01732763996310532
1761475316231667000,10.4176669921875,0.0014016834914684295,-0.003491953176941024,-0.007942940094787626
1761475316241644000,10.42764404296875,-0.004137245935201645,0.001905858737498056,-0.0048879181720316404
1761475316251621000,10.43762109375,-0.004736380872130394,-0.0028445426684746053,-0.004297149204649031
1761475316261598000,10.447597900390624,0.0006476502537727355,-0.0055452096120512575,0.00036211131066083904
1761475316271575000,10.457574951171875,0.011420388680696487,-0.00409052984979935,0.0036333332673646507
1761475316281552000,10.4675517578125,-0.0036953473865985868,-0.008670632173185004,-0.00588589796712622
1761475316291529000,10.477529052734376,0.007372574594616889,-0.01319973838662845,0.008714746451191604
1761475316301506000,10.487506103515624,0.003776595929265022,0.003857835338776931,0.0019579108684323727
1761475316311484000,10.49748388671875,0.010063713374733925,0.0003848779816064052,-0.01651254245424643
1761475316321461000,10.5074609375,-0.004154197070002556,-0.0014515002828324212,-0.01958393098991364
1761475316331438000,10.51743798828125,0.006771101570129394,0.00027519564561080185,-0.02522686878032982
1761475316341415000,10.527414794921874,0.01320318044424057,-0.014340086936124133,-0.0030029081430286166
1761475316351392000,10.53739208984375,0.009007482320070266,0.02195633637679275,0.004556275064870715
1761475316361368800,10.547368896484375,0.00092412910759449,0.009702342991234035,-0.012617617374937981
1761475316371346000,10.557345947265626,-0.0023714053064584732,-0.006913712353125447,-0.007976221309881657
1761475316381322800,10.56732275390625,0.013789455899596214,-0.012321545621368567,-0.0024393559761345385
1761475316391299800,10.5772998046875,0.01019815340936184,-0.005605852616461925,0.0017599406109191477
1761475316401277200,10.587277099609375,0.008704699981212616,-0.015880727948778074,0.0036643311938270922
1761475316411254000,10.59725390625,0.008705284503102302,-0.012880967319128103,0.0016088599687442183
1761475316421231000,10.607231201171874,0.01903203272819519,-0.0018683614299457984,0.000022284897044301032
1761475316431208000,10.6172080078125,0.010202245062589644,-0.0001385522374534048,-0.01107895483188331
1761475316441185000,10.62718505859375,-0.006257306829094886,-0.0028800226905208543,-0.004171403933130205
1761475316451161900,10.637161865234376,0.0036199440628290175,0.002153157162608113,-0.025678247543331235
1761475316461139000,10.647138916015624,0.016933014622330666,-0.00535840691923513,0.004209507453814149
1761475316471116000,10.657115966796875,-0.0020715455770492553,-0.012697218524856725,-0.005685954948235303
1761475316481094000,10.667093994140625,0.01707739152908325,0.014402677585737546,-0.022638916380051523
1761475316491071000,10.677071044921876,0.007051672077178954,0.0037312817830825224,-0.013509981371089816
1761475316501047800,10.6870478515625,0.003908113354444504,-0.0013399958825088105,0.0003522292374633252
1761475316511025000,10.69702490234375,0.006453121662139892,0.010165561747434548,-0.018305800812877714
1761475316521002000,10.707001953125,0.008249941951036453,0.005346522401907714,-0.02468653309224173
1761475316530978800,10.716978759765626,-0.005066635739803314,-0.01155238902142155,-0.013279551882389933
1761475316540956000,10.726955810546874,0.0058604164659976955,0.0004378080370195675,-0.02167670201808214
1761475316550933000,10.73693310546875,-0.0011719663888216018,0.002862507583427941,-0.012210260416753589
1761475316560910000,10.74691015625,-0.0016214637219905852,-0.00789581187578733,0.00496682862713933
1761475316570887000,10.756886962890626,0.0021188918501138685,-0.007393568291940027,-0.005531367174722254
1761475316580864000,10.766864013671874,0.0028688334345817563,-0.0016046530094405169,-0.023883728809375313
1761475316590841000,10.776841064453125,-0.006262567526102066,0.015878633031458592,-0.017431374332215636
1761475316600818000,10.78681787109375,-0.009106851041316985,0.00719909489096608,-0.011621336346585303
1761475316610795000,10.796794921875,0.014386252748966216,0.0004362074516888242,-0.013126060087420045
1761475316620771800,10.806771728515624,0.010493336963653564,-0.020376220728631596,-0.0004972819976508617
1761475316630749000,10.8167490234375,0.010193477234244346,0.002238239346886985,0.0008252535766921937
1761475316640725800,10.826725830078125,0.01572714596390724,-0.008353509640076662,-0.017684654973540454
1761475316650702800,10.836702880859375,0.0067453826069831845,0.0067026862512168,-0.01991464251531288
1761475316660681000,10.846680908203124,-0.006571779605746269,-0.006065468343201792,-0.0215407276134938
1761475316670657800,10.85665771484375,-0.0019347674548625944,0.00002320049578556791,-0.0063338974629528816
1761475316680635000,10.866634765625,-0.009865560454130172,-0.003365695307124406,-0.013685191807523369
1761475316690611700,10.87661181640625,0.00599661006629467,-0.009262100968533195,-0.01873325071102008
1761475316700589000,10.886589111328124,0.00584931055009365,-0.00924198633733322,-0.011926803832873702
1761475316710566100,10.896566162109375,0.00689502021074295,-0.003115236810548231,-0.00972385042849928
1761475316720543000,10.90654296875,-0.004774959316849708,0.0032720165411476046,-0.010418865221645682
1761475316730520000,10.91652001953125,-0.0043278000712394715,0.004821209611371159,-0.030232549846824257
1761475316740497000,10.926496826171874,-0.0023790040910243986,0.0019284016461577264,-0.005113872415013611
1761475316750474000,10.936473876953125,-0.002230535531044006,-0.001412554228643421,-0.008132215589191765
1761475316760451000,10.946451171875,-0.004774374794960022,-0.001157986954174703,-0.01876678765444085
1761475316770428200,10.95642822265625,-0.005671615895628929,0.003388362655014498,-0.021143143130652606
1761475316780405000,10.966405029296874,0.000013444003462791442,-0.0020543113144580274,-0.02088482098802924
1761475316790382000,10.976382080078125,0.0039051907449960707,0.005733990774466656,-0.01454263062076643
1761475316800359000,10.98635888671875,0.018718144473433493,-0.0013556158600375055,-0.027020821258705106
1761475316810336000,10.9963359375,0.009291559958457946,-0.008871567280986346,-0.024442623067460954
1761475316820313000,11.00631298828125,0.005550035342574119,-0.0007884697968373075,0.00651420419961214
1761475316830291000,11.016291015625,0.008242343166470528,-0.0022264575775479897,-0.018376546227838842
1761475316840268000,11.02626806640625,0.013929741153120994,-0.012454520926339318,-0.018037596597056834
1761475316850245000,11.0362451171875,-0.008664952492713927,-0.004693753015022957,-0.00499079402461648
1761475316860222200,11.04622216796875,0.0064496145308017725,0.005480250050482573,-0.00914968553604558
1761475316870199000,11.056198974609375,0.009290975436568259,-0.00273776239232975,-0.012790581055358052
1761475316880176000,11.066176025390625,0.007194295418262481,0.0023132990357175,-0.0034430713922716676
1761475316890153200,11.0761533203125,0.0018114333361387252,-0.01845097572900704,0.005393694003392011
1761475316900130000,11.086130126953124,-0.0032768297135829924,-0.014352175807784077,-0.01167693899134174
1761475316910107100,11.096107177734375,0.004203881430625916,0.0017875706866499967,-0.00634995354861021
1761475316920084000,11.106083984375,0.006595745003223419,-0.0023069994423829485,-0.019156006167735905
1761475316930061000,11.11606103515625,0.012582418197393417,-0.0030137320727866607,-0.01612745212679729
1761475316940038000,11.126037841796874,0.000011690437793731688,-0.0023370772035268598,-0.01348031688518822
1761475316950015000,11.136014892578125,0.003451601758599281,-0.012775979424559044,-0.01924446990247816
1761475316959992000,11.145991943359375,-0.020944588351249693,-0.00046810271058348005,-0.010495035730395466
1761475316969969200,11.15596923828125,0.005977905365824699,-0.006619523171032779,-0.012927998498361556
1761475316979946200,11.1659462890625,0.00163432320356369,-0.028013309744640717,-0.030305669881962236
1761475316989923000,11.175923095703125,-0.003897591960430145,0.031757569740305185,-0.005416216362453997
1761475316999900200,11.185900146484375,0.0013438158243894577,0.078702374448115,-0.00047106984416022893
1761475317009878300,11.195878173828126,0.008978256225585938,-0.00853039943529875,0.0014350195054896174
1761475317019855000,11.205855224609374,0.003291442760825157,-0.08216425100555642,-0.030285485610458997
1761475317029832200,11.215832275390625,0.006287117445468902,-0.03297507175430655,-0.021637648649327455
1761475317039809000,11.22580908203125,0.003743278181552887,0.03228300468678353,-0.015814331057015806
