time,seconds_elapsed,z,y,x
1761475305875459600,0.06145947265625,-0.00045434426283463836,-0.0027830018661916256,-0.0023686219938099384
1761475305885436700,0.071436767578125,0.0004037262115161866,-0.0004324958426877856,-0.00003782342537306249
1761475305895413800,0.081413818359375,-0.0006447976338677108,0.001293327659368515,0.00023166905157268047
1761475305905390800,0.091390869140625,-0.000945734849665314,-0.00044891226571053267,-0.0009979124879464507
1761475305915367700,0.10136767578125,0.0004526008851826191,0.00006417068652808666,0.0002424873091513291
1761475305925345500,0.111345458984375,-0.00012397347018122673,0.00014033704064786434,-0.00458955205976963
1761475305935323000,0.121322998046875,0.0003489717491902411,0.0002870466560125351,0.0023941134568303823
1761475305945299700,0.1312998046875,0.0012528486549854279,-0.00285788020119071,-0.00137239508330822
1761475305955276800,0.14127685546875,0.0006095673888921738,0.001213511684909463,0.0006843274459242821
1761475305965253600,0.151253662109375,0.0004769419610965997,-0.0012144922511652112,-0.001056581037119031
1761475305975230700,0.161230712890625,0.0007832914125174284,0.0010497423354536295,0.002860753098502755
1761475305985207800,0.171207763671875,0.00041284572216682136,-0.00007224734872579575,0.00023567525204271078
1761475305995184600,0.1811845703125,0.000797591230366379,0.00026713800616562366,0.0006441686418838799
1761475306005161700,0.19116162109375,-0.0010093635646626353,0.0005789941642433405,-0.0010144481202587485
1761475306015138600,0.201138671875,-0.0002796381013467908,-0.001351532293483615,0.0005979110719636083
1761475306025115600,0.21111572265625,-0.00012304418487474322,0.0010719441343098879,0.0010799432639032602
1761475306035093800,0.22109375,0.0009607350802980363,-0.0003391124773770571,-0.0017786729149520397
1761475306045070600,0.231070556640625,-0.0012747222790494561,0.002118719043210149,0.0013342960737645626
1761475306055047700,0.241047607421875,0.0013372960966080427,-0.0011575488606467843,0.00294122495688498
1761475306065024500,0.2510244140625,0.0029048328287899494,-0.0006867020856589079,-0.00038799291360192
1761475306075001600,0.261001708984375,0.004130897112190723,-0.0005066747544333339,0.0003178526822011918
1761475306084979000,0.27097900390625,-0.002685197163373232,0.0024811255279928446,-0.00381803628988564
1761475306094955800,0.280955810546875,0.0018505926709622145,-0.0008158702403306961,-0.00005805332330055535
1761475306104932900,0.290932861328125,0.0024279658682644367,0.0006760326214134693,-0.00024340933305211365
1761475306114909700,0.30090966796875,0.0007218566024675965,-0.0028184344992041588,0.0008110795170068741
1761475306124886800,0.31088671875,0.0014089521719142795,-0.0007060151547193527,0.004012465476989746
1761475306134865000,0.320864990234375,0.0022702147252857685,-0.0015419167466461658,-0.0013379319570958614
1761475306144841700,0.330841796875,0.0001511373557150364,0.0013465476222336292,-0.0005147488554939628
1761475306154818800,0.34081884765625,0.0007453550351783633,0.0008872246835380793,0.0013255354715511203
1761475306164795600,0.350795654296875,-0.0000413427478633821,-0.0015900477301329374,-0.0004316181584727019
1761475306174772700,0.360772705078125,0.0005940196570008993,-0.00029042642563581467,0.0029222748707979918
1761475306184749600,0.37074951171875,-0.0011926951119676232,0.0003961364272981882,-0.000055139040341600776
1761475306194726700,0.3807265625,-0.0007419270114041865,0.0020234223920851946,-0.0011035038623958826
1761475306204703700,0.390703857421875,-0.003066866658627987,0.0005946364253759384,-0.002539213979616761
1761475306214680600,0.4006806640625,0.0006581557099707425,0.001232424983754754,0.00018039309361483902
1761475306224657700,0.41065771484375,-0.0019293716177344322,0.00003293715417385101,-0.0009152314160019159
1761475306234635500,0.420635498046875,0.0028522054199129343,0.0020800165366381407,0.005327203776687384
1761475306244612600,0.430612548828125,-0.0008482568082399666,-0.0015922163147479296,0.0014328632969409227
1761475306254589700,0.440589599609375,0.001073727267794311,0.0008946869056671858,-0.0003652254235930741
1761475306264566800,0.45056689453125,0.001035111490637064,0.0020004312973469496,-0.0041756764985620975
1761475306274543900,0.4605439453125,-0.0010703833540901542,-0.0004072265001013875,0.00009515151032246649
1761475306284520700,0.470520751953125,0.0008244557539001107,-0.0005763372173532844,0.0010482969228178263
1761475306294497800,0.480497802734375,0.0014179516583681107,0.0010052812285721302,-0.000591093092225492
1761475306304474600,0.490474609375,0.0009724048431962729,0.000382634112611413,-0.0008470228058286011
1761475306314451700,0.50045166015625,0.002109260531142354,-0.0016375505365431309,0.003916315734386444
1761475306324428800,0.5104287109375,0.001848004525527358,0.0004485035315155983,0.0014502285048365593
1761475306334406700,0.52040673828125,0.0006624243687838316,-0.0009661252843216062,-0.0026248255744576454
1761475306344383700,0.5303837890625,0.001157506019808352,-0.0011916951043531299,0.0011763040674850345
1761475306354360800,0.54036083984375,0.0005032822373323143,-0.000411110813729465,-0.0001510686706751585
1761475306364337700,0.550337646484375,0.003319841343909502,-0.001499544712714851,-0.0018083539325743914
1761475306374314800,0.560314697265625,-0.0013872194103896618,-0.00012597418390214443,-0.0022725171875208616
1761475306384291600,0.57029150390625,0.000300159357720986,0.0011294400319457054,0.00036241448833607137
1761475306394268700,0.5802685546875,0.0005442138644866645,0.000135054811835289,0.001297502196393907
1761475306404245500,0.59024560546875,0.0011269134702160954,-0.00024284771643579006,-0.00048761465586721897
1761475306414222600,0.60022265625,-0.0012744588311761618,-0.00035619852133095264,-0.002380646299570799
1761475306424200000,0.610199951171875,0.0022662137635052204,-0.001976465806365013,-0.0008671719115227461
1761475306434177500,0.620177490234375,0.00019757956033572555,-0.0023203976452350616,-0.0004232145438436419
1761475306444154600,0.630154541015625,0.0018870888743549585,-0.0017195884138345718,-0.00019444900681264699
1761475306454131700,0.640131591796875,-0.0022333289962261915,0.0009182977955788374,-0.0003979516914114356
1761475306464108800,0.65010888671875,0.0021009654738008976,-0.00022792676463723183,-0.0030459328554570675
1761475306474086000,0.6600859375,-0.0007461097557097673,-0.0017095021903514862,0.0009133362327702343
1761475306484062700,0.670062744140625,0.0019524713279679418,-0.0009281306993216276,0.0023210830986499786
1761475306494039800,0.680039794921875,-0.0008720025653019547,-0.0005923855351284146,-0.001767204375937581
1761475306504016600,0.6900166015625,-0.001905309036374092,0.001314171589910984,0.00013988534919917583
1761475306513993700,0.69999365234375,0.0006666717235930264,-0.0014185330364853144,0.002590277697890997
1761475306523970600,0.709970458984375,-0.0008159101125784218,0.0003844269085675478,0.0009108883677981794
1761475306533948700,0.71994873046875,-0.0002707004896365106,0.0007981269154697657,-0.0033261629287153482
1761475306543925800,0.72992578125,-0.00017748988466337323,-0.0012929871445521712,-0.00031972036231309175
1761475306553902600,0.739902587890625,-0.0005820959340780973,0.0007224064320325851,0.0007069045677781105
1761475306563879700,0.749879638671875,0.00032524301786907017,-0.00024272315204143524,-0.0013402672484517097
1761475306573856500,0.7598564453125,-0.00036505504976958036,0.002103210659697652,-0.00016268147737719119
1761475306583833600,0.76983349609375,0.0021865195594727993,-0.00026114354841411114,-0.0010521772783249617
1761475306593810700,0.779810791015625,0.001445879228413105,-0.0005554731469601393,0.00019227150187361985
1761475306603787800,0.789787841796875,-0.00005108362529426813,-0.0015102163888514042,-0.001511618960648775
1761475306613764900,0.799764892578125,-0.0006687032291665673,-0.0017915571806952357,-0.0009500732994638383
1761475306623741700,0.80974169921875,0.003134290687739849,-0.00008127512410283089,-0.0012243788223713636
1761475306633718800,0.81971875,0.0016304212622344494,-0.0008622553432360291,-0.0005620791926048696
1761475306643697000,0.82969677734375,-0.000012216449249535799,-0.000588216120377183,-0.00006193754961714149
1761475306653673700,0.839673828125,0.0009563288185745478,-0.0029411716386675835,0.00041446759132668376
1761475306663650800,0.84965087890625,0.00004739192081615329,0.0015478527639061213,0.00015827150491531938
1761475306673627600,0.859627685546875,-0.0006568869575858116,-0.0015646056272089481,0.0017924082931131124
1761475306683604700,0.869604736328125,0.0012265006080269814,-0.0020319903269410133,0.00171331234741956
1761475306693581800,0.879581787109375,0.0010245420271530747,-0.0010981486411765218,0.001460616709664464
1761475306703558700,0.88955859375,0.003083964576944709,-0.0012571392580866814,0.0038750385865569115
1761475306713535700,0.89953564453125,-0.0004369695670902729,0.0009832577779889107,0.0010454440489411354
1761475306723512600,0.9095126953125,0.0011076638475060463,-0.0013459429610520601,-0.00032741547329351306
1761475306733489700,0.91948974609375,0.0028545588720589876,-0.0037806606851518154,-0.002929419744759798
1761475306743468000,0.929468017578125,-0.000545232614967972,-0.0012205637758597732,-0.0020654902327805758
1761475306753444900,0.93944482421875,-0.0011906989384442568,0.000394921051338315,0.0009862210135906935
1761475306763422000,0.949421875,0.001323325210250914,-0.0012312051840126514,0.0012781035620719194
1761475306773399000,0.95939892578125,0.0003130771510768682,0.0009439545683562756,0.001262675505131483
1761475306783376000,0.9693759765625,-0.0012861511204391718,0.000847814604640007,0.002205967204645276
1761475306793353000,0.97935302734375,0.0005384721443988383,-0.0006045222980901599,0.001312170410528779
1761475306803330000,0.989330078125,-0.0003289193846285343,-0.0003145041409879923,0.002934301970526576
1761475306813307100,0.99930712890625,-0.0011441692477092147,0.004279386252164841,0.0006908747018314898
1761475306823284000,1.009283935546875,-0.00085628149099648,-0.001395809929817915,-0.0016156891360878944
1761475306833261000,1.019260986328125,0.0017651261296123266,-0.0014062048867344856,-0.00044771781540475786
1761475306843238100,1.029238037109375,0.0012985403882339597,-0.0012770415050908923,-0.0005137642147019506
1761475306853216000,1.039216064453125,-0.000864438246935606,0.0019061570055782795,-0.0007061881478875875
1761475306863193000,1.049193115234375,0.0018583775963634253,-0.00006138649769127369,0.0005212627584114671
1761475306873170000,1.059169921875,0.0010686272289603949,0.00046330573968589306,0.000479069072753191
1761475306883147000,1.06914697265625,0.002508332021534443,-0.0009617517935112119,0.00024071615189313889
1761475306893124000,1.0791240234375,0.0011965790763497353,-0.000025632791221141815,0.0028431625105440617
1761475306903101000,1.089100830078125,0.0004130770976189524,0.00046572042629122734,0.00331374304369092
1761475306913078000,1.099078125,-0.0001635972294025123,0.00020702392794191837,0.0012818715767934918
1761475306923054800,1.109054931640625,0.0015980838797986507,-0.0021490748040378094,0.0007921162759885192
1761475306933032000,1.119031982421875,0.0003886836930178106,0.00032757828012108803,-0.0005207578651607037
1761475306943009000,1.129009033203125,0.0007447483367286623,0.0002894951030611992,0.001879549236036837
1761475306952987000,1.13898681640625,-0.0008296117885038257,-0.0005732891149818897,-0.0000881562300492078
1761475306962964000,1.1489638671875,0.002221039030700922,-0.0015165808144956827,0.0007113247411325574
1761475306972940800,1.15894091796875,0.0006483933539129794,-0.00023621448781341314,0.0008944240398705006
1761475306982918100,1.168918212890625,-0.0008320579072460532,0.0016932457219809294,-0.0016552864108234644
1761475306992895000,1.17889501953125,-0.0007051519933156669,0.0023073654156178236,-0.000102808146039024
1761475307002872000,1.1888720703125,-0.0001067397533915937,-0.0011811093427240849,0.00026710491511039436
1761475307012849200,1.19884912109375,-0.002092847367748618,-0.0016096173785626888,-0.0006429526256397367
1761475307022826000,1.208825927734375,-0.00003981648478657007,0.0012652650475502014,0.0008201880846172571
1761475307032803000,1.218802978515625,0.0016148753929883242,-0.0008658648002892733,0.0012239377247169614
1761475307042780000,1.22877978515625,-0.0006922210450284183,0.002348836977034807,0.0011499018874019384
1761475307052757000,1.238757080078125,-0.00090827327221632,0.0013840945903211832,-0.000027170171961188316
1761475307062735000,1.248735107421875,-0.0025607647839933634,0.0006975317373871803,-0.0018770018359646201
1761475307072712000,1.2587119140625,0.001917349174618721,0.002632901770994067,-0.00036489314516074955
1761475307082689000,1.26868896484375,-0.0015791149344295263,0.00009996932931244373,-0.001974507700651884
1761475307092665900,1.278665771484375,-0.00046959053725004196,-0.0003611085703596473,-0.0010239038383588195
1761475307102643000,1.288642822265625,0.0002571860677562654,-0.0009414114756509662,0.0024328792933374643
1761475307112620000,1.2986201171875,0.000002238608431071043,-0.0000958156306296587,0.0011952253989875317
1761475307122596900,1.308596923828125,0.001971912570297718,-0.0024444572627544403,0.001410675118677318
1761475307132574200,1.31857421875,-0.00011760834604501724,0.0016053291037678719,0.0005835061892867088
1761475307142551000,1.328551025390625,-0.0020207033958286047,0.0004740182776004076,-0.0010474136797711253
1761475307152528100,1.338528076171875,-0.00047064077807590365,0.0011816732585430145,-0.0015873517841100693
1761475307162506000,1.348506103515625,-0.000591015734244138,-0.0013392751570791006,0.0016449268441647291
1761475307172483000,1.358483154296875,-0.0010485113598406315,-0.00031596492044627666,-0.00014323482173494995
1761475307182460200,1.368460205078125,0.0018532690592110157,-0.0003583092475309968,0.002597956918179989
1761475307192437000,1.37843701171875,0.0023817368783056736,-0.00023230211809277534,0.0006538525922223926
1761475307202414000,1.3884140625,0.0009369718609377742,-0.00015906523913145065,0.001381161855533719
1761475307212391000,1.398390869140625,-0.00005391775630414486,0.0025819868315011263,-0.0021049531642347574
1761475307222368000,1.408367919921875,-0.0005537930992431939,-0.0011688093654811382,-0.0005608523497357965
1761475307232345000,1.418344970703125,0.000145079247886315,0.0005536377429962158,-0.003832853166386485
1761475307242322000,1.428322021484375,-0.001505281776189804,0.0018407434690743685,0.00043885703780688345
1761475307252299000,1.438299072265625,0.0010182569967582822,-0.00037783291190862656,0.0029195533134043217
1761475307262275800,1.44827587890625,-0.0025802061427384615,0.0003393562510609627,-0.000025370129151269794
1761475307272254000,1.45825390625,-0.0012788421008735895,0.0015650885179638863,0.00027398052043281496
1761475307282231000,1.46823095703125,-0.000021830201148986816,0.0005664031486958265,-0.0022488317918032408
1761475307292207900,1.478207763671875,0.0015364678110927343,0.0012057250132784247,0.001199551159515977
1761475307302185000,1.48818505859375,0.0018824124708771706,-0.00033571268431842327,0.0013497534673660994
1761475307312162000,1.498162109375,-0.0007821661420166492,-0.0011519052786752582,-0.0006791496416553855
1761475307322139100,1.50813916015625,0.0019885865040123463,0.00021749211009591818,0.003735039848834276
1761475307332116000,1.518115966796875,-0.0009119168389588594,-0.0012132206466048956,-0.0008832636522129178
1761475307342093000,1.528093017578125,-0.001630171318538487,-0.000028646551072597504,-0.0010449175024405122
1761475307352070100,1.538070068359375,-0.0006645134417340159,0.0005458567757159472,0.0017196697881445289
1761475307362047000,1.548046875,-0.001461863867007196,-0.00004935974720865488,-0.0015866446774452925
1761475307372025000,1.558025146484375,-0.0005527508910745382,0.00008413172326982021,-0.0034017758443951607
1761475307382002200,1.568002197265625,0.0013767093187198043,0.002548887161538005,0.004019655287265778
1761475307391979000,1.57797900390625,-0.0003786952584050596,0.0012473025126382709,0.0031987649854272604
1761475307401956000,1.5879560546875,-0.0015179954934865236,-0.000995611771941185,-0.0016386006027460098
1761475307411933000,1.597932861328125,-0.0022215894423425198,0.0002898846287280321,0.0003249216533731669
1761475307421910000,1.607909912109375,-0.00056803273037076,0.0011665972415357828,0.0015039030695334077
1761475307431886800,1.617886962890625,0.0009118131711147726,-0.0001998060615733266,0.0004233187064528465
1761475307441864000,1.627864013671875,0.0009714679908938706,0.0008231140673160553,-0.0038843443617224693
1761475307451841000,1.637841064453125,0.0020714036654680967,-0.0008013538317754865,0.0007611036999151111
1761475307461817900,1.64781787109375,0.0018562201876193285,-0.001195768010802567,-0.0011595680844038725
1761475307471795200,1.657795166015625,-0.0010441464837640524,0.0015291706658899784,-0.0010097241029143333
1761475307481772800,1.667772705078125,-0.000019628496374934912,0.00007055746391415596,0.0006060156738385558
1761475307491750000,1.67775,0.001435072859749198,0.0000063800252974033356,0.0003409720375202596
1761475307501727200,1.687727294921875,0.001122683985158801,-5.442416295409203e-7,-0.0005059131653979421
1761475307511704000,1.6977041015625,0.001106823212467134,0.00020125589799135923,-0.0005120077985338867
1761475307521681200,1.70768115234375,-0.0014026734279468656,-0.0003585404483601451,0.0019996194168925285
1761475307531658000,1.717657958984375,0.00039519823621958494,0.0012811101041734219,0.0024873586371541023
1761475307541635000,1.727635009765625,0.0006330184987746179,0.0013570101000368595,0.0003959781606681645
1761475307551612000,1.73761181640625,0.0018286302220076323,-0.0003618213813751936,0.00036660130717791617
1761475307561589000,1.747589111328125,0.001030747196637094,-0.00108886428643018,0.0004377076984383166
1761475307571566000,1.757566162109375,-0.0005606719059869647,0.001057242276147008,-0.003532113041728735
1761475307581543000,1.76754296875,0.000839884509332478,0.00014590867795050144,0.0022709148470312357
1761475307591521000,1.77752099609375,-0.0015151710249483585,0.0006917545106261969,-0.0025606530252844095
1761475307601497900,1.787497802734375,-0.003010003361850977,0.0027972497045993805,0.00028759767883457243
1761475307611475000,1.797474853515625,-0.0016294255619868636,0.00026259548030793667,-0.0019805829506367445
1761475307621452000,1.8074521484375,-0.001336477929726243,-0.0020311851985752583,-0.0007938783382996917
1761475307631428900,1.817428955078125,-0.00070580915780738,0.0015538358129560947,0.0025204585399478674
1761475307641406000,1.827406005859375,0.0006468102801591158,0.0007373106200248003,-0.003400281071662903
1761475307651383000,1.837383056640625,0.00007082486990839243,0.0023533767089247704,-0.0005871624452993274
1761475307661360000,1.847360107421875,0.0013701810967177153,-0.0009518723236396909,0.000716987531632185
1761475307671337000,1.8573369140625,-0.00030703016091138124,0.0005321705248206854,-0.0017405780963599682
1761475307681314000,1.86731396484375,0.0000410449574701488,0.0005345672834664583,-0.0007501484360545874
1761475307691291100,1.877291015625,0.0004187836602795869,-0.002870811615139246,0.0005705647636204958
1761475307701268000,1.88726806640625,-0.000659530283883214,0.00020833546295762062,0.0014273036504164338
1761475307711246000,1.89724609375,0.0009130088146775961,0.0008044019341468811,-0.0003699591907206923
1761475307721223200,1.90722314453125,0.0005809126305393875,-0.00007470767013728619,0.0014636272098869085
1761475307731200000,1.917199951171875,-0.0029041797388345003,-0.0002447054721415043,0.0017425904516130686
1761475307741177000,1.927177001953125,0.0009230489376932383,0.0005041754338890314,-0.00009072970715351403
1761475307751154400,1.937154541015625,0.00019526216783560812,-0.00013252801727503538,0.0005280568730086088
1761475307761131500,1.947131591796875,-0.0001392308622598648,0.0008957183454185724,-0.002621663734316826
1761475307771108400,1.9571083984375,-0.0005604190519079566,0.0014554746448993683,0.00043051736429333687
1761475307781085400,1.96708544921875,-0.001180402934551239,0.0006618525367230177,-0.005325638689100742
1761475307791062500,1.9770625,0.0016461885534226894,0.000021480955183506012,-0.00009501274325884879
1761475307801039400,1.987039306640625,-0.0008979291305877268,-0.0021963997278362513,0.0021798594389110804
1761475307811016400,1.997016357421875,0.0020752514246851206,-0.0012376843951642513,-0.0023900489322841167
1761475307820994600,2.00699462890625,-0.001475274795666337,0.002725898288190365,0.0022782059386372566
1761475307830971400,2.016971435546875,0.0015886971959844232,0.002318264450877905,-0.0005705046933144331
1761475307840948500,2.026948486328125,0.0009016016265377402,-0.0002530174097046256,0.002484673634171486
1761475307850925600,2.036925537109375,-0.001898083370178938,0.0009784023277461529,0.0007904659723863006
1761475307860902700,2.046902587890625,0.0002598760765977204,-0.0014477374497801065,-0.0010769425425678492
1761475307870879500,2.05687939453125,0.0004116020572837442,0.0004013781435787678,0.0018701350782066584
1761475307880856600,2.066856689453125,-0.0005564570310525596,-0.0013107681879773736,-0.0014502941630780697
1761475307890833700,2.076833740234375,0.0008070961339399219,0.0014437143690884113,0.0005307496176101267
1761475307900810500,2.086810546875,0.00015675221220590174,-0.00003833463415503502,-0.0006543570780195296
1761475307910787600,2.09678759765625,-0.0004656155942939222,0.0010300988797098398,0.0039257570169866085
1761475307920764400,2.106764404296875,-0.0020230321679264307,0.0005866826977580786,0.0028879232704639435
1761475307930742500,2.116742431640625,0.0019080869387835264,-0.0007449949625879526,0.0038544712588191032
1761475307940719600,2.1267197265625,-0.0005979476845823228,-0.001231554546393454,0.00004748243372887373
1761475307950696400,2.136696533203125,-0.0009249862632714212,0.00029411353170871735,0.0014147120527923107
1761475307960673500,2.146673583984375,-0.0010858410969376564,0.0008770795539021492,-0.001574686262756586
1761475307970650400,2.156650390625,-0.0014770436100661755,-0.00005500251427292824,-0.0005801962106488645
1761475307980627500,2.16662744140625,-0.0010679819388315082,0.0006792310159653425,-0.0025551964063197374
1761475307990604300,2.176604248046875,0.0014120418345555663,-0.00005047186277806759,-0.002756549045443535
1761475308000581400,2.186581298828125,0.0018123149638995528,-0.0012579491594806314,0.0028768356423825026
1761475308010558700,2.196558837890625,0.001260579563677311,0.0005920850671827793,0.0015505002811551094
1761475308020535600,2.20653564453125,0.0006126324879005551,-0.0003626581747084856,0.0002852325269486755
1761475308030513400,2.216513427734375,-0.0004249649937264621,-0.0004281835863366723,0.0020036788191646338
1761475308040490500,2.226490478515625,0.00034522119676694274,0.0016275104135274887,0.0002252197591587901
1761475308050467600,2.236467529296875,0.0010911027202382684,0.0011128776241093874,-0.0006815302185714245
1761475308060444700,2.246444580078125,-0.0008631249074824154,0.0018271375447511673,0.0008740221383050084
1761475308070421500,2.25642138671875,-0.0007012810674495995,-0.00018680037464946508,-0.00024311483139172196
1761475308080398600,2.266398681640625,-0.0002621258608996868,-0.00020038255024701357,-0.000024469307390972972
1761475308090375400,2.27637548828125,-0.001212932402268052,0.00044708047062158585,-0.0026445663534104824
1761475308100352500,2.2863525390625,0.0011817819904536009,0.0005946194287389517,-0.0006924693007022142
1761475308110329300,2.296329345703125,-0.000131179578602314,-0.00004481500945985317,0.000742004020139575
1761475308120306400,2.306306396484375,0.0003503199259284884,0.0008207124192267656,-0.0003272551402915269
1761475308130283500,2.316283447265625,0.000978744588792324,-0.00012261304073035717,-0.0005372833111323416
1761475308140260400,2.32626025390625,-0.00022633577464148402,0.0016680965200066566,-0.0012182535137981176
1761475308150238500,2.336238525390625,0.0002969176566693932,0.001425424823537469,0.0015314286574721336
1761475308160215600,2.346215576171875,-0.0006668803398497403,0.0015372775960713625,-0.002263309434056282
1761475308170192400,2.3561923828125,-0.0005275835283100605,0.0008016231004148722,-0.0010385792702436447
1761475308180169500,2.36616943359375,-0.001397904590703547,0.0008631420787423849,-0.00021246669348329306
1761475308190146600,2.376146484375,-0.002516580279916525,0.0002659577876329422,-0.0009929402731359005
1761475308200123600,2.38612353515625,0.001456589438021183,-0.0007961108349263668,0.0015381280099973083
1761475308210100500,2.3961005859375,0.0019511946011334658,-0.00003771297633647919,0.003400829853489995
1761475308220077600,2.40607763671875,0.002648143796250224,0.0004198180977255106,0.0009099752060137689
1761475308230054700,2.4160546875,0.0003988728276453912,0.0006566504016518593,-0.0014492443297058344
1761475308240031500,2.426031494140625,-0.0015966336941346526,0.0007583831902593374,-0.0009677446796558797
1761475308250008600,2.436008544921875,-0.00027102400781586766,0.0010165951680392027,-0.0008281519403681159
1761475308259986400,2.445986328125,0.00246137916110456,-0.00020153471268713474,0.00037905899807810783
1761475308269963500,2.455963623046875,-0.0008731302223168314,0.003318052738904953,0.002832234837114811
1761475308279940600,2.465940673828125,-0.0018089648801833391,0.0007161442190408707,-0.0013649070169776678
1761475308289917400,2.47591748046875,-0.00023608707124367356,0.0007805377244949341,-0.00017880628001876175
1761475308299894500,2.48589453125,-0.0017136088572442532,0.000636993208900094,0.0008233412518166006
1761475308309871400,2.495871337890625,0.001134409918449819,0.00121607119217515,0.0007841468323022127
1761475308319848400,2.505848388671875,-0.0020350180566310883,0.00018462887965142727,-0.0032801032066345215
1761475308329825300,2.5158251953125,-0.0016123470850288868,-0.0008077721577137709,0.0027077512349933386
1761475308339802600,2.525802734375,-0.0007340365555137396,-0.0007284099701792002,-0.002705656224861741
1761475308349779700,2.53577978515625,-0.0029533037450164557,0.001486028777435422,-0.0014851965242996812
1761475308359756500,2.545756591796875,-0.001288295490667224,-0.00017977843526750803,0.003987865522503853
1761475308369733600,2.555733642578125,-0.0007517466438002884,0.0011695376597344875,-0.0028125946410000324
1761475308379711500,2.56571142578125,0.000740422576200217,0.001620410941541195,0.0027595371939241886
1761475308389688600,2.5756884765625,-0.00027114152908325195,0.000460559967905283,0.0014713115524500608
1761475308399665700,2.585665771484375,-0.0008208179497160017,0.0011796136386692524,-0.0019114355091005564
1761475308409642500,2.595642578125,0.0017243028851225972,0.0023083232808858156,-0.0013103652745485306
1761475308419619600,2.60561962890625,-0.0025130528956651688,-0.0010102418018504977,0.002514466643333435
1761475308429596400,2.615596435546875,0.0005267768283374608,-0.0002764834789559245,0.00015115343558136374
1761475308439573500,2.625573486328125,0.0032155043445527554,-0.0021779804956167936,-0.0009532594121992588
1761475308449550300,2.63555029296875,-0.001998483669012785,0.0007793651893734932,0.0016483461949974298
1761475308459527400,2.64552734375,-0.00041097309440374374,0.0014100016560405493,0.000726626138202846
1761475308469504500,2.65550439453125,0.0005397641798481345,-0.0002494516083970666,0.0015880482969805598
1761475308479481300,2.6654814453125,0.00007956998888403177,0.0006712030153721571,0.0006508820224553347
1761475308489459500,2.67545947265625,-0.000014009303413331509,0.00004930701106786728,0.001316616777330637
1761475308499436500,2.6854365234375,-0.002710992470383644,-0.0013147641438990831,0.00010647637827787548
1761475308509413400,2.695413330078125,0.0009892283705994487,0.002442731522023678,0.0027980394661426544
1761475308519390500,2.705390380859375,-0.0028691592160612345,-0.0011275021824985743,0.0008219738956540823
1761475308529367600,2.715367431640625,-0.001862335135228932,0.00027556135319173336,0.0010227309539914131
1761475308539344600,2.7253447265625,-0.0018037453992292285,-0.0015878526028245687,0.0002786437689792365
1761475308549321500,2.735321533203125,-0.0021287030540406704,0.0022670261096209288,0.0013636031653732061
1761475308559298600,2.745298583984375,0.001031403779052198,0.0011484981514513493,0.002922085113823414
1761475308569275400,2.755275390625,-0.00164421449881047,0.00036787264980375767,-0.00044166651787236333
1761475308579252500,2.76525244140625,0.000899636885151267,-0.00039831886533647776,0.0008249328820966184
1761475308589229600,2.7752294921875,-0.0023798574693500996,0.000004330882802605629,-0.0025427506770938635
1761475308599206400,2.785206298828125,0.0004140649107284844,-0.0012337728403508663,-0.0003440449363552034
1761475308609184500,2.7951845703125,-0.00008969788905233145,-0.0030308030545711517,-0.0011737560853362083
1761475308619161600,2.80516162109375,-0.003806937951594591,0.0008883047848939896,0.0018215011805295944
1761475308629138400,2.815138427734375,0.0007656277157366276,0.0020960508845746517,0.0007122582755982876
1761475308639115500,2.825115478515625,0.0037816576659679413,0.0008976282551884651,-0.0015543581685051322
1761475308649092400,2.83509228515625,0.0003486569912638515,0.0030813361518085003,-0.0012880121357738972
1761475308659069400,2.8450693359375,0.0029279286973178387,-0.0013397776056081057,-0.0014187733177095652
1761475308669046500,2.855046630859375,0.000048172660171985626,0.00025458820164203644,-0.0022141903173178434
1761475308679023600,2.865023681640625,-0.0001172096817754209,-0.0004634001525118947,-0.0025236494839191437
1761475308689000700,2.875000732421875,-0.001222023623995483,0.00029365974478423595,-0.0024503653403371572
1761475308698977500,2.8849775390625,0.0019980045035481453,-0.0012227443512529135,0.0014812593581154943
1761475308708954600,2.89495458984375,-0.0006125569925643504,-0.0008868253789842129,0.002226938959211111
1761475308718932500,2.904932373046875,-0.0007877930183894932,-0.00139602180570364,-0.0006258389912545681
1761475308728909600,2.91490966796875,0.0011406850535422564,0.0009950462263077497,0.0008989964262582362
1761475308738886700,2.92488671875,-0.000624191714450717,0.0003894434776157141,-0.001296513481065631
1761475308748863200,2.93486328125,0.00032582180574536324,-0.0009278615470975637,0.000040209226426668465
1761475308758840000,2.944840087890625,-0.0004427664680406451,-0.000021055107936263084,-0.0005688557284884155
1761475308768817200,2.954817138671875,-0.0018200085032731295,0.003428405150771141,-0.0043790568597614765
1761475308778794000,2.9647939453125,0.0000844178139232099,0.00011303601786494255,-0.0007867188542149961
1761475308788771000,2.97477099609375,-0.0014597754925489426,0.0011661855969578028,-0.000551203265786171
1761475308798748000,2.984747802734375,0.0007040428463369608,0.0012780383694916964,-0.0013112694723531604
1761475308808725000,2.99472509765625,-0.0017995150992646813,-0.0009216911857947707,0.0005370500730350614
1761475308818702300,3.004702392578125,-0.0009401129791513085,-0.0009232891025021672,0.0019708960317075253
1761475308828679200,3.01467919921875,-0.0018452121876180172,-0.001346557168290019,0.0009912548121064901
1761475308838657000,3.024656982421875,-0.000591928546782583,-0.00047676870599389076,-0.0010391392279416323
1761475308848634000,3.034634033203125,0.000059428042732179165,0.0017593067605048418,0.0022836942225694656
1761475308858611200,3.044611083984375,-0.002088144887238741,0.0011427851859480143,-0.0009464537724852562
1761475308868588300,3.05458837890625,0.001939988462254405,0.0011575098615139723,-0.0007562764221802354
1761475308878565000,3.064565185546875,-0.002694710623472929,0.001758052734658122,-0.0008257849840447307
1761475308888542200,3.074542236328125,0.0018752791220322251,-0.0011015787022188306,-0.0009247086709365249
1761475308898519000,3.08451904296875,-0.001888832775875926,-0.0012877336703240871,0.0011256590951234102
1761475308908496100,3.09449609375,-0.002389592118561268,0.002037231344729662,0.0010507855331525207
1761475308918473000,3.104472900390625,-0.0016284608282148838,0.0020380299538373947,0.0006363976863212883
1761475308928450000,3.114449951171875,0.000878887134604156,-0.001100040739402175,-0.00004768290091305971
1761475308938427100,3.12442724609375,-0.0010045003145933151,0.0024243867956101894,-0.0025614406913518906
1761475308948405000,3.134405029296875,-0.0010391053510829806,-0.0005629541119560599,0.0020566070452332497
1761475308958382000,3.144382080078125,-0.0011578822741284966,0.0014533251523971558,-0.003361061681061983
1761475308968359200,3.154359130859375,0.0008128660265356302,0.0008786413818597794,0.003680925350636244
1761475308978336000,3.1643359375,0.0001135198981501162,0.0005667852237820625,-0.001165228895843029
1761475308988313000,3.17431298828125,-0.0023235799744725227,-0.0004747658967971802,-0.002256818115711212
1761475308998290200,3.184290283203125,-0.00070810632314533,0.0009042189922183752,0.003927308134734631
1761475309008267300,3.194267333984375,0.0005731969722546637,-0.0030289245769381523,-0.0016677676467224956
1761475309018244000,3.204244140625,-0.0022742548026144505,-0.00018014130182564259,0.0020835609175264835
1761475309028221200,3.21422119140625,0.0008142163278535008,0.00011685024946928024,-0.0006453340174630284
1761475309038198300,3.2241982421875,0.001718892133794725,0.004654077813029289,-0.0019545438699424267
1761475309048175000,3.234175048828125,0.00035571560147218406,-0.0009454393293708563,0.0037432529497891665
1761475309058152200,3.244152099609375,-0.0026224975008517504,0.0009195723105221987,-0.0022517889738082886
1761475309068130000,3.254130126953125,-0.0017074310453608632,0.0013583980035036802,0.0007080072537064552
1761475309078107100,3.264107177734375,0.0015749151352792978,0.001036421861499548,-0.0007045333040878177
1761475309088084200,3.274084228515625,0.00109406269621104,0.0009638627525418997,-0.0014625885523855686
1761475309098061000,3.28406103515625,-0.002012514742091298,-0.0003485430497676134,-0.0003025156329385936
1761475309108038100,3.2940380859375,-0.00007656490197405219,0.00029277242720127106,-0.0017123824218288064
1761475309118015000,3.304014892578125,0.00009867112385109067,-0.00012561003677546978,0.0031643982511013746
1761475309127992000,3.313991943359375,-0.00020891433814540505,0.0010749844368547201,-0.0016601869137957692
1761475309137969000,3.323968994140625,-0.00005791307194158435,0.0003945466596633196,-0.0030958971474319696
1761475309147946200,3.3339462890625,0.0003033583052456379,0.0004270381759852171,-0.0008737284806557
1761475309157923300,3.34392333984375,0.0005473038763739169,0.0006483469624072313,-0.0019696191884577274
1761475309167900200,3.353900146484375,0.0003265553677920252,0.0014739339239895344,0.0033674235455691814
1761475309177877200,3.363877197265625,0.0011228404473513365,0.0026063101831823587,-0.0014230707893148065
1761475309187855000,3.373855224609375,-0.000234811392147094,-0.0009686299599707127,0.0023488467559218407
1761475309197832200,3.383832275390625,-0.0009986059740185738,0.0021046579349786043,0.0008638679864816368
1761475309207809300,3.393809326171875,0.0011896153446286917,0.0022345990873873234,0.0001581196120241657
1761475309217786000,3.4037861328125,-0.0006857826374471188,0.00029848096892237663,0.0001884796511149034
1761475309227763200,3.41376318359375,-0.00010325369657948613,-0.00004783039912581444,-0.0013834870187565684
1761475309237740000,3.423739990234375,0.00020141189452260733,-0.001016954774968326,-0.00016642242553643882
1761475309247717000,3.433717041015625,-0.0006901497836224735,-0.0013218224048614502,0.0016167066060006618
1761475309257694000,3.44369384765625,-0.0009692491148598492,0.000353838549926877,0.0015301539096981287
1761475309267671000,3.453671142578125,0.0028176410123705864,0.00010979757644236088,0.0001088788703782484
1761475309277648100,3.463648193359375,-0.00023886893177405,-0.001680911984294653,0.00138639728538692
1761475309287625000,3.473625,0.0006853314116597176,-0.0021076081320643425,0.002937787678092718
1761475309297602300,3.483602294921875,-0.0003991078119724989,0.0006620793137699366,-0.003692417871206999
1761475309307580200,3.493580078125,-0.000443014781922102,-0.001401545712724328,-0.0006496539572253823
1761475309317557000,3.503556884765625,0.0017745994264259934,0.0007436305750161409,-0.0003689568256959319
1761475309327534000,3.5135341796875,-0.0006174759473651648,0.0035281532909721136,-0.0022417486179620028
1761475309337511200,3.52351123046875,-0.0009700783994048834,0.0002838906366378069,0.001327686244621873
1761475309347488300,3.53348828125,-0.00190934375859797,0.001945058349519968,-0.0009348057210445404
1761475309357465000,3.543465087890625,-0.000749537197407335,0.00007951399311423302,-0.00236252648755908
1761475309367442200,3.553442138671875,-0.002450751606374979,0.0007938945200294256,-0.001803111401386559
1761475309377419300,3.563419189453125,-0.00028799852589145303,-0.001555279828608036,0.000606783083640039
1761475309387396000,3.57339599609375,-0.0015747707802802324,0.002026505535468459,0.00019623679690994322
1761475309397373200,3.583373291015625,0.0005797264166176319,0.0001252747606486082,0.0005722751375287771
1761475309407350000,3.59335009765625,-0.0002475351211614907,0.0015159237664192915,0.0010030359262600541
1761475309417328000,3.603328125,0.003032414009794593,-0.001417015679180622,-0.0005557122640311718
1761475309427305200,3.61330517578125,0.0009239436476491392,0.00023464346304535866,0.0017498648958280683
1761475309437282000,3.623281982421875,-0.00028433254919946194,0.00034010480158030987,-0.0023692462127655745
1761475309447259100,3.633259033203125,-0.0000017558340914547443,-0.0009648790583014488,-0.0007802146719768643
1761475309457236000,3.643236083984375,0.0007633703644387424,-0.00042186048813164234,0.0017758873291313648
1761475309467213000,3.653213134765625,0.0011915280483663082,0.0008918684907257557,-0.003128612646833062
1761475309477190100,3.663190185546875,-0.0023504761047661304,-0.0010727454209700227,0.0033202318008989096
1761475309487167200,3.673167236328125,0.0009734999621286988,0.00030084652826189995,0.0011510309996083379
1761475309497144300,3.683144287109375,0.0008648430230095983,0.0010521241929382086,-0.0003137075691483915
1761475309507121200,3.69312109375,0.0009817511308938265,-0.0014278220478445292,-0.0013561159139499068
1761475309517098200,3.70309814453125,0.0008714962750673294,0.0008233480621129274,-0.0012051146477460861
1761475309527075000,3.713074951171875,0.0008988750050775707,-0.0015003811568021774,0.00006615903112106025
1761475309537052200,3.72305224609375,-0.00003376405220478773,0.0029074170161038637,-0.0019141675438731909
1761475309547030300,3.7330302734375,0.0004557044303510338,-0.002916336990892887,0.0010191943729296327
1761475309557007000,3.743007080078125,-0.00223728409036994,0.00291838264092803,-0.00010119745275005698
1761475309566984200,3.752984130859375,0.0009921060409396887,-0.0001673020888119936,0.0017925966531038284
1761475309576961000,3.7629609375,0.0024938625283539295,0.0013256659731268883,0.000711353262886405
1761475309586938000,3.772938232421875,0.00196329178288579,-0.0019957947079092264,0.00007029531116131693
1761475309596915000,3.7829150390625,-0.0009861589642241597,0.0018450163770467043,-0.0003693925973493606
1761475309606892000,3.79289208984375,0.00015750760212540627,0.0007554672192782164,-0.0020329118706285954
1761475309616869000,3.802869140625,0.001290416345000267,0.0014175290707498789,-0.00005338419578038156
1761475309626846000,3.812845947265625,0.0022637424990534782,-0.0009808206232264638,0.0010949678253382444
1761475309636823300,3.8228232421875,-0.00038130907341837883,0.0010365238413214684,-0.0023021604865789413
1761475309646800100,3.832800048828125,-0.00021343922708183527,-0.0012878223787993193,0.0028694779612123966
1761475309656777200,3.842777099609375,-0.0014733807183802128,0.00010394561104476452,0.0034082354977726936
1761475309666755000,3.852755126953125,-0.0010307484772056341,-0.0006504241609945893,-0.0007562952814623713
1761475309676732200,3.862732177734375,-0.00010476727038621902,-0.0014403178356587887,0.00009964464697986841
1761475309686709200,3.872709228515625,-0.0011588360648602247,-0.000596341211348772,0.0015347568551078439
1761475309696686000,3.88268603515625,-0.0006040996522642672,0.0013981000520288944,0.0019201162504032254
1761475309706663200,3.8926630859375,-0.00018093892140313983,-0.0022537033073604107,0.00032033780007623136
1761475309716640300,3.90264013671875,0.00013597728684544563,-0.0037405460607260466,0.0029286378994584084
1761475309726617000,3.9126171875,-0.0028545884415507317,0.0001687465701252222,-0.000390274275559932
1761475309736594200,3.92259423828125,-0.0018356632208451629,0.00023585837334394455,0.001823078840970993
1761475309746571800,3.93257177734375,-0.00041535013588145375,-0.001368916709907353,0.002012653974816203
1761475309756548600,3.942548583984375,-0.0018699686042964458,0.0017238124273717403,-0.0004326605412643403
1761475309766525700,3.952525634765625,-0.0016934738960117102,-0.0011550089111551642,0.000037466903449967504
1761475309776502500,3.96250244140625,-0.0001384541392326355,-0.0003808279288932681,0.0011448091827332973
1761475309786480600,3.972480712890625,0.00007275701500475407,0.0013904597144573927,0.00017818479682318866
1761475309796457700,3.982457763671875,0.0005827523418702185,0.0005438406951725483,0.001123606925830245
1761475309806434600,3.9924345703125,0.0003650864236988127,0.0008321856148540974,0.0006227055564522743
1761475309816411000,4.002410888671875,-0.0034701316617429256,0.002604785608127713,-0.004275912884622812
1761475309826387700,4.0123876953125,0.003487783018499613,0.00016016792505979538,0.0003961062466260046
1761475309836365800,4.02236572265625,-0.0005578247364610434,0.0020616650581359863,-0.0008678300073370337
1761475309846343000,4.032343017578125,0.0018264643149450421,-0.0005621872842311859,-0.0005536017706617713
1761475309856319700,4.04231982421875,-0.0012249856954440475,-0.0027169508393853903,0.004009990952908993
1761475309866296800,4.052296875,-0.0006570058176293969,-0.0006706431740894914,0.0016108225099742413
1761475309876273700,4.062273681640625,0.0030655607115477324,2.069864422082901e-7,-0.00033248617546632886
1761475309886250800,4.072250732421875,0.00011044356506317854,-0.00038263655733317137,0.0016170516610145569
1761475309896227600,4.0822275390625,0.0010955468751490116,0.0003521295730024576,0.00023753421555738896
1761475309906204700,4.09220458984375,0.0008115976233966649,-0.00009872741065919399,0.0006193931913003325
1761475309916181800,4.102181640625,-0.0006289061857387424,-0.0006585238734260201,-0.0014046091819182038
1761475309926158600,4.11215869140625,-0.000016260251868516207,0.001098402077332139,0.0011035834904760122
1761475309936135700,4.1221357421875,0.00031636859057471156,-0.0019221552647650242,0.0024652578867971897
1761475309946112500,4.132112548828125,0.0004761016753036529,0.00008538179099559784,-0.0001921324583236128
1761475309956090600,4.142090576171875,-0.0013729310594499111,0.001105638686567545,0.002217761939391494
1761475309966067700,4.152067626953125,-0.001413753954693675,-0.0012774363858625293,0.00015182836796157062
1761475309976044500,4.16204443359375,-0.00003263878170400858,0.0013052972499281168,-0.00040743546560406685
1761475309986021600,4.172021728515625,-0.0003346240264363587,-0.00023559387773275375,-0.0006591055425815284
1761475309995998700,4.181998779296875,0.000021973217371851206,0.0010997150093317032,0.001662371912971139
1761475310005975800,4.191975830078125,-0.001995820552110672,0.003054444445297122,-0.0029596828389912844
1761475310015953000,4.201952880859375,-0.00018487090710550547,0.0006903563626110554,-0.0009074509143829346
1761475310025929700,4.2119296875,0.0002648711088113487,-0.0006115471478551626,0.0012968177907168865
1761475310035906800,4.22190673828125,0.0005860483506694436,-0.0015998461749404669,0.0009596616728231311
1761475310045883600,4.231883544921875,-0.00038628611946478486,-0.00009615090675652027,0.0003400423447601497
1761475310055860700,4.24186083984375,-0.00016311317449435592,-0.0007851107511669397,-0.0000682202517054975
1761475310065837600,4.251837646484375,0.00005088263424113393,-0.00002561137080192566,0.001600946648977697
1761475310075815700,4.261815673828125,0.0010096206096932292,0.0006947736255824566,-0.0012664789101108909
1761475310085792800,4.271792724609375,-0.0026184197049587965,0.0017860454972833395,0.00025269921752624214
1761475310095769600,4.28176953125,0.00219604279845953,-0.001779660931788385,0.0013951952569186687
1761475310105746700,4.29174658203125,-0.003161872271448374,0.002359882229939103,0.0014677036087960005
1761475310115723500,4.3017236328125,0.0005055671208538115,-0.0014116864185780287,0.0016738323029130697
1761475310125700600,4.31170068359375,0.0034392732195556164,-0.001418126979842782,0.0020956192165613174
1761475310135677700,4.321677734375,0.00148717628326267,0.0004197205416858196,0.0012591202976182103
1761475310145654800,4.33165478515625,0.0006377312820404768,0.0013854957651346922,-0.0021956907585263252
1761475310155631900,4.3416318359375,0.00006488536018878222,0.000036871060729026794,0.00003923388430848718
1761475310165608700,4.351608642578125,0.000315432611387223,0.00013963552191853523,-0.00037060255999676883
1761475310175585800,4.361585693359375,0.0011500673135742545,-0.0013804966583848,-0.004324065521359444
1761475310185562600,4.371562744140625,-0.002091860631480813,0.00023712054826319218,-0.0007251229835674167
1761475310195540700,4.381540771484375,0.0010480063501745462,-0.0004108264110982418,0.0009284337284043431
1761475310205517800,4.391517822265625,-0.0037984829396009445,-0.00015451782383024693,-0.0012972750701010227
1761475310215494700,4.40149462890625,-0.001069808378815651,-0.00007062824442982674,-0.002121789613738656
1761475310225471700,4.4114716796875,0.00026536837685853243,0.00015213387086987495,0.0018102622125297785
1761475310235448600,4.421448486328125,0.00004299444844946265,-0.0000851538497954607,-0.000934391631744802
1761475310245425700,4.43142578125,-0.0000988696119748056,0.00014673382975161076,-0.0008419707301072776
1761475310255402800,4.44140283203125,-0.0014701311010867357,0.0002838866785168648,-0.0005271850968711078
1761475310265379600,4.451379638671875,0.0028290259651839733,-0.0002143962774425745,-0.0022926521487534046
1761475310275356700,4.461356689453125,0.000630320399068296,0.0006953396368771791,0.0031617681961506605
1761475310285333800,4.471333740234375,0.002182608935981989,0.0008919285610318184,0.000564858375582844
1761475310295310800,4.481310791015625,0.00017911277245730162,-0.0003024991601705551,0.0029995201621204615
1761475310305288700,4.491288818359375,-0.0012484111357480288,0.00006871088407933712,-0.0011618182761594653
1761475310315265500,4.501265625,0.0010831864783540368,0.0010612709447741508,-0.0009876475669443607
1761475310325243000,4.511242919921875,0.0015570205869153142,-0.0024014448281377554,0.003043160308152437
1761475310335219700,4.5212197265625,0.0013205318246036768,-0.0007952925516292453,0.0012023834278807044
1761475310345196800,4.53119677734375,-0.001891362713649869,0.0007254574447870255,0.0015255073085427284
1761475310355173600,4.541173583984375,-0.0015227810945361853,-0.0018250519642606378,0.0014480091631412506
1761475310365150700,4.551150634765625,0.0011999531416222453,-0.002329339738935232,-0.001423896523192525
1761475310375127800,4.5611279296875,0.0002518678084015846,-0.0016518316697329283,0.0011441896203905344
1761475310385104600,4.571104736328125,0.00011414923937991261,0.0017633265815675259,-0.002212927211076021
1761475310395081700,4.581081787109375,-0.0004235429805703461,-0.00002232310362160206,-0.0021522073075175285
1761475310405058600,4.59105859375,-0.00041089783189818263,0.0011693504638969898,-0.0019770220387727022
1761475310415035600,4.60103564453125,-0.0003453840618021786,0.0012194178998470306,0.0005332735599949956
1761475310425013800,4.611013671875,0.0002681144396774471,0.0016330746002495289,-0.0006398619734682143
1761475310434990600,4.620990478515625,-0.0006046034395694733,0.0009268040303140879,-0.000990333966910839
1761475310444967700,4.6309677734375,-0.001066081691533327,0.002031240612268448,-0.0011665268102660775
1761475310454944500,4.640944580078125,0.00021676288451999426,-0.00002232263796031475,-0.0004663816944230348
1761475310464921600,4.650921630859375,-0.001718332408927381,-0.0004942175000905991,-0.0005032026674598455
1761475310474898700,4.660898681640625,0.00009954144479706883,0.0005188488867133856,0.001223857281729579
1761475310484875800,4.670875732421875,-0.0012467614142224193,-0.0017642155289649963,0.0029736068099737167
1761475310494852900,4.680852783203125,-0.002126936335116625,-0.0010302484733983874,-0.0022294106893241405
1761475310504829700,4.69082958984375,-0.0012879731366410851,-0.0006642056396231055,0.0012188560795038939
1761475310514806800,4.700806884765625,0.0005299006588757038,0.00009692576713860035,-0.0002629267401061952
1761475310524783600,4.71078369140625,-0.00003173301229253411,0.0007591645698994398,-0.0030458378605544567
1761475310534760700,4.7207607421875,0.0013070381246507168,0.000465684337541461,0.0006679403595626354
1761475310544737800,4.73073779296875,0.0005627272184938192,0.0020763156935572624,0.0003469977527856827
1761475310554715600,4.740715576171875,0.0002969437337014824,-0.00021133990958333015,0.00017549018957652152
1761475310564692700,4.750692626953125,0.002110906410962343,0.0025507041718810797,-0.0020413773600012064
1761475310574669600,4.760669677734375,0.003011054825037718,-0.001693842001259327,0.0014617448905482888
1761475310584646700,4.770646728515625,0.0013840333558619022,0.000512795289978385,0.0010284548625349998
1761475310594623700,4.780623779296875,0.0006458050338551402,0.0009548799134790897,0.0027376716025173664
1761475310604600600,4.7906005859375,0.00016556656919419765,0.0019512663129717112,0.000419965828768909
1761475310614577700,4.80057763671875,-0.0007076839101500809,-0.0015350779285654426,0.00040984584484249353
1761475310624554800,4.8105546875,0.0015892577357590199,0.0015063448809087276,-0.004136138595640659
1761475310634531800,4.82053173828125,-0.0010800284799188375,-0.0006910293595865369,0.0002258526801597327
1761475310644508700,4.8305087890625,0.002030367963016033,0.0009892235975712538,0.00009702917304821312
1761475310654485800,4.84048583984375,-0.0012088350486010313,0.0003559237811714411,-0.0018191151320934296
1761475310664462800,4.850462890625,0.0019695074297487736,0.000637144548818469,-0.0008319109911099076
1761475310674440700,4.860440673828125,-0.00017486978322267532,-0.0010827247751876712,-0.00032537782681174576
1761475310684417800,4.870417724609375,0.0008073290227912366,0.00016659474931657314,0.00033587287180125713
1761475310694394600,4.88039453125,0.000609456212259829,0.0002819094806909561,-0.00013923508231528103
1761475310704371700,4.890371826171875,-0.0008748811669647694,0.0012139235623180866,0.0009322963887825608
1761475310714348800,4.900348876953125,-0.0026184527669101954,0.0011955476365983486,-0.0022850686218589544
1761475310724325600,4.91032568359375,-0.0015820071566849947,0.001300155883654952,-0.000773400766775012
1761475310734302700,4.920302734375,0.001362383714877069,-0.00021358486264944077,-0.0011321286438032985
1761475310744279600,4.930279541015625,-0.0007322523160837591,-0.00005782861262559891,0.0024096560664474964
1761475310754256100,4.940256103515625,0.0006946693756617606,0.00020502530969679356,0.00009217338811140507
1761475310764233000,4.95023291015625,0.000946351676248014,0.0008592787198722363,0.0003471762756817043
1761475310774210000,4.9602099609375,0.0009548738016746938,-0.0019064140506088734,-0.00026322025223635137
1761475310784187000,4.970186767578125,-0.0023311921395361423,-0.0017209465149790049,0.0004041166976094246
1761475310794164000,4.9801640625,-0.0019463655771687627,0.002210944425314665,0.0028672744520008564
1761475310804142000,4.99014208984375,-0.0009748436277732253,0.0012800281401723623,0.0003572463756427169
1761475310814119000,5.000118896484375,-0.00064940529409796,0.0024478244595229626,0.001666456344537437
1761475310824096000,5.010095947265625,0.00008577376138418913,-0.0012537885922938585,-0.0002608788199722767
1761475310834073000,5.020072998046875,-0.002108937129378319,0.002026959555223584,-0.003105933777987957
1761475310844050000,5.0300498046875,0.0011179557768628001,0.0011144019663333893,0.00047081755474209785
1761475310854027000,5.040027099609375,-0.0012432029470801353,-0.002072602976113558,0.0008146315813064575
1761475310864003800,5.05000390625,-0.0014339846093207598,0.0009956599678844213,0.0013974986504763365
1761475310873981000,5.05998095703125,-0.0007378343143500388,-0.00009410572238266468,-0.0002637811121530831
1761475310883957800,5.069957763671875,0.00007659371476620436,0.0013300604186952114,-0.0016983470413833857
1761475310893934800,5.079934814453125,-0.004039587918668985,0.0003939592279493809,-0.00016010526451282203
1761475310903912200,5.089912109375,0.0003093246778007597,-0.00028105382807552814,0.0009530747774988413
1761475310913889000,5.099888916015625,-0.00032237713458016515,0.0003850026987493038,-0.0012051509693264961
1761475310923866000,5.1098662109375,-0.000007627124432474375,0.0006819979753345251,-0.000005929236067458987
1761475310933844000,5.119843994140625,-0.0002699485048651695,-0.0002058998215943575,-0.001513544819317758
1761475310943821000,5.129821044921875,-0.0009313070913776755,-0.0025396982673555613,0.002982181729748845
1761475310953798100,5.139798095703125,-0.0013459613546729088,0.0008270700927823782,0.000460700859548524
1761475310963775000,5.14977490234375,-0.00005924399010837078,0.00022850418463349342,0.0007005372899584472
1761475310973752000,5.159751953125,-0.0001639062538743019,0.000574714969843626,-0.0018491731025278568
1761475310983729000,5.16972900390625,-0.0018513572867959738,-0.0006122614722698927,0.003480364801362157
1761475310993706000,5.1797060546875,0.0012506928760558367,-0.0015787226147949696,0.0015048319473862648
1761475311003682800,5.189682861328125,0.00121526257134974,0.000009097158908843994,0.002058877144008875
1761475311013660000,5.199659912109375,0.0012541447067633271,-0.0004452380817383528,-0.001766753732226789
1761475311023637000,5.209636962890625,0.0008388751884922385,0.0023023493122309446,-0.0013748782221227884
1761475311033613800,5.21961376953125,0.00014006171841174364,-0.0017275458667427301,0.0027290531434118748
1761475311043591000,5.2295908203125,0.001731143333017826,-0.0011360541684553027,0.0016167679568752646
1761475311053568000,5.239568115234375,0.0007857210584916174,-0.003700944595038891,0.00315074878744781
1761475311063545900,5.2495458984375,0.0012140464968979359,0.00022269925102591515,-0.0023064978886395693
1761475311073523000,5.25952294921875,-0.0003718659281730652,-0.00003962218761444092,0.004638227168470621
1761475311083500000,5.2695,0.000762837880756706,0.0006307295989245176,0.00017248034419026226
1761475311093477000,5.27947705078125,-0.0010395895224064589,0.0017830794677138329,0.000132266606669873
1761475311103454000,5.289453857421875,0.0012199580669403076,-0.0018971392419189215,0.00035229933564551175
1761475311113431000,5.29943115234375,-0.0009369360632263124,-0.0012870091013610363,0.0005027679726481438
1761475311123408000,5.309407958984375,-0.0026172639336436987,0.0011099951807409525,-0.0015588339883834124
1761475311133385000,5.319385009765625,-0.0006180290947668254,0.0005105175077915192,-0.0027703058440238237
1761475311143362000,5.329362060546875,0.001053276122547686,-0.0012297544162720442,0.002363596111536026
1761475311153339000,5.3393388671875,-0.0014932384947314858,0.0018171679694205523,-0.0000031549425330013037
1761475311163316000,5.34931591796875,0.0034211822785437107,0.001209585228934884,0.0013726594625040889
1761475311173292800,5.359292724609375,-0.0004736905684694648,-0.0006287948926910758,0.0006504101911559701
1761475311183271000,5.36927099609375,0.00113389128819108,-0.00039160565938800573,-0.0023878116626292467
1761475311193248000,5.379248046875,0.0004598451778292656,0.0005333102308213711,0.0018183848587796092
1761475311203224800,5.389224853515625,0.000666341744363308,-0.0010488189291208982,0.00010348671639803797
1761475311213202000,5.399201904296875,-0.0007898747571744025,0.0006790400948375463,0.0006401136633940041
1761475311223178800,5.4091787109375,-0.0026038624346256256,0.0018616525921970606,-0.0005560872377827764
1761475311233155800,5.41915576171875,0.0005445266724564135,-0.0006329305469989777,-0.0008466379949823022
1761475311243133200,5.42913330078125,-0.002270657103508711,-0.00030906195752322674,0.000296098121907562
1761475311253110000,5.439110107421875,-0.0034230067394673824,0.0011940260883420706,0.0007866524392738938
1761475311263087000,5.449087158203125,0.0013066319515928626,-0.00045090774074196815,0.002460976131260395
1761475311273064000,5.45906396484375,0.0004597467486746609,-0.0015859468840062618,-0.00039686192758381367
1761475311283041000,5.469041015625,0.0016854318091645837,0.0004292372614145279,0.0013677171664312482
1761475311293017900,5.479017822265625,0.0005549199413508177,0.0005493457429111004,0.0040188939310610294
1761475311302995000,5.488994873046875,-0.00486585171893239,0.00014466047286987305,-0.001911234576255083
1761475311312973000,5.49897314453125,0.0012370480690151453,-0.0005339129129424691,-0.00008031117613427341
1761475311322950000,5.508949951171875,0.0005826023407280445,0.0006291747558861971,-0.0018668888369575143
1761475311332927000,5.518927001953125,0.001059840782545507,0.0015546232461929321,0.0034980489872395992
1761475311342903800,5.52890380859375,0.0013476078165695071,-0.0010528385173529387,0.00041661979048512876
1761475311352881000,5.538880859375,-0.000055878073908388615,0.0005344054661691189,0.00006801199924666435
1761475311362858000,5.54885791015625,0.0007172613404691219,0.00021667452529072762,-0.000020259234588593245
1761475311372834800,5.558834716796875,0.0009399016271345317,0.00008005439303815365,0.0007131753372959793
1761475311382812000,5.56881201171875,-0.0015201682690531015,0.0009849390480667353,0.0060906303115189075
1761475311392789000,5.5787890625,0.0005911858752369881,0.0011188960634171963,-0.0015137599548324943
1761475311402766000,5.58876611328125,0.0007612228509970009,-0.0010423007188364863,0.00014288164675235748
1761475311412743000,5.598742919921875,0.0010179515229538083,0.0004221715498715639,0.0028715564403682947
1761475311422720000,5.608719970703125,-0.0025753136724233627,0.001657214481383562,0.0017350604757666588
1761475311432697000,5.618697021484375,0.0011081044794991612,0.0005852922331541777,-0.001959809334948659
1761475311442675000,5.628675048828125,0.000825822411570698,-0.001963854068890214,0.0004940674407407641
1761475311452652000,5.638652099609375,-0.00036514317616820335,0.0022444729693233967,-0.0022897347807884216
1761475311462628900,5.64862890625,-0.0013566581765189767,-0.0022878251038491726,0.000553421676158905
1761475311472606000,5.65860595703125,-0.0007483921945095062,0.0017500596586614847,-0.0006263586692512035
1761475311482583000,5.6685830078125,0.0005141550791449845,0.0021178291644901037,0.0013911525020375848
1761475311492560000,5.678559814453125,-0.000222208967898041,0.0010778647847473621,0.00099034677259624
1761475311502537000,5.688536865234375,0.0017959410324692726,-0.00253298575989902,0.0011356896720826626
1761475311512513800,5.698513671875,0.000028401031158864498,-0.0013971475418657064,-0.0013759376015514135
1761475311522491000,5.708490966796875,0.0021914064418524504,-0.0001368056982755661,-0.0039370097219944
1761475311532468000,5.718468017578125,0.0003434389363974333,-0.001903813099488616,-0.00015718553913757205
1761475311542445000,5.728445068359375,0.0009064304758794606,-0.0025251987390220165,-0.0010310584912076592
1761475311552422100,5.738422119140625,-0.001341543858870864,-0.001461265841498971,0.0018717870116233826
1761475311562399000,5.74839892578125,-0.00015447544865310192,0.0013944350648671389,0.00037612166488543153
1761475311572377000,5.758377197265625,-0.0012514314148575068,-0.0016583465039730072,0.0013553659664466977
1761475311582354200,5.768354248046875,-0.0018738270737230778,0.0009750488679856062,-0.0010464565129950643
1761475311592331000,5.7783310546875,0.0022295713424682617,-0.00035440106876194477,0.0004465115489438176
1761475311602308000,5.78830810546875,0.003887019818648696,-0.00024012778885662556,-0.00339087238535285
1761475311612285000,5.798284912109375,0.0003588641993701458,0.0010533696040511131,0.001667003147304058
1761475311622262000,5.808261962890625,-0.002597615122795105,-0.0007515380857512355,-0.0003386218741070479
1761475311632238800,5.81823876953125,0.0022445442155003548,-0.0006428811466321349,-0.001441170577891171
1761475311642216000,5.8282158203125,-0.0014370663557201624,-0.0007613042835146189,-0.002094175899401307
1761475311652193000,5.838193115234375,0.0010383418994024396,0.0014600383583456278,-0.0011434273328632116
1761475311662169900,5.848169921875,-0.0013408747036010027,0.0003147770185023546,-0.00023727341613266617
1761475311672147000,5.85814697265625,0.0011758125619962811,0.0009427506010979414,-0.0004497936461120844
1761475311682123800,5.868123779296875,-0.0003016385599039495,-0.0006340327672660351,0.00039702243520878255
1761475311692101000,5.87810107421875,0.0018427388276904821,0.0007931552827358246,0.0024066439364105463
1761475311702079000,5.888078857421875,-0.0009761147084645927,0.0003170394338667393,-0.0012635472230613232
1761475311712055800,5.898055908203125,-0.0012914328835904598,-0.00046992464922368526,0.0007005339721217752
1761475311722033000,5.908032958984375,-0.000023502332624047995,-0.0002293416764587164,0.001777804922312498
1761475311732010000,5.918010009765625,0.00037756969686597586,-0.0006048474460840225,0.000599356135353446
1761475311741987000,5.927987060546875,0.0017488985322415829,-0.002103290054947138,0.0006376247620210052
1761475311751964400,5.93796435546875,0.00006551446858793497,-0.001285166828893125,0.0009303061524406075
1761475311761941500,5.94794140625,-0.0005016571958549321,0.0003188743721693754,0.0005562417791225016
1761475311771918300,5.95791845703125,0.0014230093220248818,-0.0015221688663586974,0.0006393324001692235
1761475311781895400,5.9678955078125,-0.00007165246643126011,-0.0004170264583081007,-0.0002941740385722369
1761475311791872300,5.977872314453125,-0.0011686085490509868,-0.0010673702927306294,0.0019729749765247107
1761475311801849300,5.987849365234375,0.00357263907790184,-0.0003079825546592474,0.0008615800179541111
1761475311811826200,5.997826171875,0.0003491488751024008,0.0010451695416122675,-0.0022942658979445696
1761475311821803300,6.00780322265625,-0.0004897332983091474,0.0030755300540477037,-0.0006164632504805923
1761475311831781400,6.017781494140625,-0.0003051762469112873,-0.0012369266478344798,-0.0016223392449319363
1761475311841758200,6.02775830078125,-0.0018828497268259525,-0.001446364913135767,0.0010466777021065354
1761475311851735300,6.0377353515625,-0.0015595417935401201,0.0018631455022841692,-0.0015469748759642243
1761475311861712100,6.047712158203125,-0.0028620189987123013,0.00036701979115605354,-0.0021792068146169186
1761475311871689200,6.057689208984375,0.000746564066503197,-0.00006787432357668877,0.0003217679914087057
1761475311881666300,6.067666259765625,0.0002830020966939628,-0.0010845432989299297,0.0015024299500510097
1761475311891643400,6.077643310546875,-0.0012323365081101656,0.00048805330879986286,-0.002800971968099475
1761475311901620500,6.087620361328125,0.0006493509281426668,0.00003393157385289669,-0.00038442379445768893
1761475311911597300,6.097597412109375,0.0002927536843344569,0.0024408965837210417,-0.0012515491107478738
1761475311921574400,6.107574462890625,0.002058865502476692,0.002189889783039689,-0.00028661475516855717
1761475311931551200,6.11755126953125,0.001299331896007061,-0.0012943235924467444,-0.0009486766066402197
1761475311941528300,6.1275283203125,0.004157236777245998,-0.000339413876645267,-0.0013502008514478803
1761475311951505400,6.13750537109375,-0.0005464382120408118,0.0005860344972461462,-0.0006394031806848943
1761475311961482200,6.147482177734375,0.0012950397795066237,-0.0019640608225017786,0.00042243010830134153
1761475311971460400,6.15746044921875,0.0018476457335054874,-0.0009597827447578311,-0.0005456289509311318
1761475311981437400,6.1674375,-0.0015827788738533854,-0.0004280358552932739,0.00046860985457897186
1761475311991414300,6.177414306640625,0.0017248671501874924,-0.0016618783120065928,0.0022523952648043633
1761475312001391400,6.187391357421875,0.000021051208022981882,0.0008533454965800047,0.0009941470343619585
1761475312011368200,6.1973681640625,0.0008021563407965004,0.0017561570275574923,-0.0030400094110518694
1761475312021345300,6.20734521484375,-0.0006985249929130077,0.0005673363339155912,-0.0011204812908545136
1761475312031322400,6.217322265625,-0.0002947896718978882,-0.0009346866281703115,0.0008715630974620581
1761475312041299500,6.227299560546875,-0.0012890391517430544,0.00030954182147979736,-0.0009036432020366192
1761475312051276500,6.237276611328125,-0.00015479896683245897,-0.0009892818052321672,-0.0025489442050457
1761475312061253400,6.24725341796875,0.00010198919335380197,0.0024320005904883146,-0.0004010808188468218
1761475312071230500,6.25723046875,0.0001802861224859953,0.00042823818512260914,0.0019265220034867525
1761475312081207300,6.267207275390625,0.0024021207354962826,-0.0002042099367827177,0.0010154028423130512
1761475312091184400,6.277184326171875,0.00007824640488252044,-0.00007744343020021915,0.00020899770606774837
1761475312101162500,6.28716259765625,-0.0015718907816335559,0.000521716196089983,-0.001317096408456564
1761475312111139300,6.297139404296875,-0.0014959907857701182,0.0003560674376785755,-0.0010638298699632287
1761475312121116400,6.307116455078125,0.0005831887247040868,0.0014045187272131443,-0.00027431093621999025
1761475312131093200,6.31709326171875,-0.00210820185020566,-0.0004889888223260641,-0.0018162812339141965
1761475312141070300,6.3270703125,0.00012018228881061077,0.0005065472796559334,0.000861643347889185
1761475312151047200,6.337047119140625,-0.001179440412670374,-0.0011704452335834503,0.0013146470300853252
1761475312161024300,6.347024169921875,-0.0020320531912148,0.0009188454132527113,-0.0020387591794133186
1761475312171001300,6.35700146484375,0.0035315565764904022,0.00004000216722488403,0.0015005817404016852
1761475312180978200,6.366978271484375,0.00044461534707807004,-0.0001766006462275982,0.00011447961151134223
1761475312190955500,6.37695556640625,0.0006009428761899471,-0.0010674280347302556,0.0016449983231723309
1761475312200932400,6.386932373046875,0.0010780346347019076,-0.0004255484091117978,-0.00016067417163867503
1761475312210909400,6.396909423828125,-0.00123598612844944,0.0010746102780103683,-0.0007143453694880009
1761475312220886300,6.40688623046875,-0.0010727972257882357,0.0028781003784388304,-0.00003927058423869312
1761475312230864400,6.416864501953125,-0.0018344612326472998,0.00047646183520555496,0.0028883423656225204
1761475312240841500,6.426841552734375,0.0015187085373327136,-0.0023945604916661978,0.0003879909636452794
1761475312250818300,6.436818359375,0.0001327994978055358,-0.0005194287514314055,-0.0010730191133916378
1761475312260795400,6.44679541015625,0.0022376447450369596,-0.0025828967336565256,-0.0013974988833069801
1761475312270772200,6.456772216796875,0.0020863772369921207,-0.0001985686831176281,-0.0032651738729327917
1761475312280749300,6.466749267578125,-0.001762268366292119,0.0014306644443422556,0.00009037036215886474
1761475312290726400,6.476726318359375,0.0019009097013622522,-0.0010657827369868755,0.00006560295878443867
1761475312300703200,6.486703125,0.00043375877430662513,-0.0015144315548241138,0.0002836885105352849
1761475312310680300,6.496680419921875,0.0022590893786400557,-0.0007072275038808584,-0.0022332649677991867
1761475312320657200,6.5066572265625,-0.001696806401014328,0.00007276330143213272,0.0015308103756979108
1761475312330634200,6.51663427734375,-0.0006523146294057369,0.00257560214959085,-0.0016442103078588843
1761475312340611300,6.526611328125,-0.0006870966753922403,-0.00031518610194325447,0.002093992196023464
1761475312350588400,6.53658837890625,0.0018588851671665907,0.000021970132365822792,0.0010862520430237055
1761475312360565500,6.5465654296875,0.00039568342617712915,0.0012996478471904993,0.0005146745825186372
1761475312370543400,6.55654345703125,-0.0007974127074703574,-0.00039785110857337713,0.002626827685162425
1761475312380520400,6.5665205078125,-0.00451374426484108,0.0005623209290206432,-0.0021901109721511602
1761475312390497500,6.57649755859375,0.000813909515272826,0.0019463659264147282,-0.0009647903498262167
1761475312400474400,6.586474365234375,0.0008675312856212258,-0.00000393623486161232,0.003399785840883851
1761475312410451500,6.596451416015625,0.0014457035576924682,-0.00006439001299440861,0.0022583550307899714
1761475312420428300,6.60642822265625,0.0010264749871566892,0.0009496817365288734,0.0004913020529784262
1761475312430405400,6.6164052734375,0.0017777527682483196,-0.0011986902682110667,-0.00040831376099959016
1761475312440382200,6.62638232421875,0.001526322914287448,0.00019894307479262352,-0.0011214632540941238
1761475312450359300,6.636359375,0.00043735644430853426,0.00048683094792068005,0.0028551688883453608
1761475312460336400,6.64633642578125,0.003068755380809307,0.00020780856721103191,-0.00005127274198457599
1761475312470313200,6.656313232421875,-0.0005898954696021974,0.0033639208413660526,-0.0017847241833806038
1761475312480290300,6.666290283203125,-0.0007545226835645735,-0.0005345011595636606,-0.0018347199074923992
1761475312490267400,6.676267333984375,0.00204259529709816,-0.00021012802608311176,-0.0033644395880401134
1761475312500245200,6.686245361328125,0.0004674818483181298,-0.001271155197173357,0.0027453044895082712
1761475312510222300,6.696222412109375,-0.000558634172193706,0.000060425372794270515,-0.0014992414508014917
1761475312520199400,6.706199462890625,-0.0005502264248207211,-0.0006044103065505624,0.002014779718592763
1761475312530176500,6.716176513671875,0.0002540482673794031,-0.00018869084306061268,-0.00034904194762930274
1761475312540153300,6.7261533203125,0.0007957512279972434,0.00012425403110682964,-0.0036243165377527475
1761475312550130400,6.73613037109375,0.00019547477131709456,-0.0010981368832290173,-0.0023356128949671984
1761475312560107300,6.746107177734375,0.0018744817934930325,0.0011151612270623446,0.0012220883509144187
1761475312570084400,6.75608447265625,0.002465171040967107,-0.0005146934418007731,-0.0033279224298894405
1761475312580061400,6.7660615234375,-0.000012400385458022356,-0.00043864536564797163,-0.00065635796636343
1761475312590038300,6.776038330078125,0.0015436846297234297,-0.0015422592405229807,0.0015881542349234223
1761475312600015400,6.786015380859375,0.002504033502191305,-0.0004325100453570485,0.002029256196692586
1761475312609992200,6.7959921875,0.0007812344701960683,-0.0009180043125525117,-0.0011758581968024373
1761475312619969300,6.80596923828125,0.0008445181883871555,-0.0024386770091950893,0.002222714712843299
1761475312629946000,6.815946044921875,0.002268244046717882,0.00018506916239857674,0.0035993026103824377
1761475312639924200,6.82592431640625,-0.0014978182734921575,0.0024716919288039207,0.0005680524045601487
1761475312649901300,6.8359013671875,0.001817817334085703,-0.00039227167144417763,0.0008554074447602034
1761475312659878100,6.845878173828125,-0.000913114461582154,-0.00006233761087059975,-0.002041744301095605
1761475312669855200,6.855855224609375,-0.000832420599181205,-0.0005443696863949299,0.001808387809433043
1761475312679832300,6.865832275390625,0.00007484632078558207,0.0007614195346832275,-0.00006328178278636187
1761475312689809400,6.875809326171875,0.0010269263293594122,0.0022085814271122217,-0.0012574432184919715
1761475312699786500,6.885786376953125,-0.0004388302913866937,0.00012939679436385632,-0.0006626480026170611
1761475312709763300,6.895763427734375,-0.00018582999473437667,0.0007373965345323086,-0.0012719793012365699
1761475312719740400,6.905740478515625,-0.0004727903287857771,0.0009980560280382633,-0.00017651227244641632
1761475312729717200,6.91571728515625,0.00011310511035844684,-0.001713308272883296,0.00009086911450140178
1761475312739694300,6.9256943359375,-0.000520599540323019,0.0009556007571518421,0.0007348452345468104
1761475312749671200,6.935671142578125,0.00027408773894421756,-0.0003059386508539319,0.0009708012803457677
1761475312759648500,6.9456484375,-0.0008401870145462453,0.0007703443989157677,-0.0020734041463583708
1761475312769625600,6.95562548828125,0.0008948624017648399,-0.00019052415154874325,0.0027077689301222563
1761475312779603500,6.965603515625,0.00020315131405368447,0.004211036022752523,-0.000571791606489569
1761475312789580500,6.97558056640625,-0.0008906088769435883,-0.0008321921341121197,0.0037132345605641603
1761475312799557600,6.9855576171875,0.0006185279344208539,-0.0009599192999303341,0.003890756983309984
1761475312809534500,6.995534423828125,0.0006084079504944384,0.0006060195155441761,-0.0008518004324287176
1761475312819511600,7.005511474609375,0.0011815667385235429,0.0008916738443076611,-0.0010416368022561073
1761475312829488600,7.015488525390625,-0.0006504218326881528,0.0015534693375229836,-0.00040753826033324003
1761475312839465700,7.0254658203125,-0.0007710607023909688,0.0005937621463090181,-0.0002664642524905503
1761475312849442600,7.035442626953125,-0.0024413953069597483,-0.0014020106755197048,0.000835019163787365
1761475312859419600,7.045419677734375,-0.0020392443984746933,0.00256198737770319,-0.004225626587867737
1761475312869396700,7.055396728515625,0.00170782336499542,-0.000023142900317907333,0.00018536712741479278
1761475312879373600,7.06537353515625,-0.001663060043938458,-0.0011845368426293135,-0.002450355561450124
1761475312889350700,7.0753505859375,0.0018086368218064308,-0.0002135483082383871,-0.0014442133251577616
1761475312899327500,7.085327392578125,0.00017916786600835621,0.00008155684918165207,0.00016264217265415937
1761475312909304600,7.0953046875,-0.0005018024239689112,0.00018222443759441376,-0.0008786538382992148
1761475312919282700,7.10528271484375,0.0008973190560936928,0.0003317268565297127,-0.00040165273821912706
1761475312929259500,7.115259521484375,-0.0004403867060318589,0.00016421382315456867,0.0019046447705477476
1761475312939236600,7.125236572265625,-0.0006027361378073692,-0.0009550281101837754,0.002686580875888467
1761475312949213400,7.13521337890625,-0.0013305781176313758,-0.00020508188754320145,-0.0018234823364764452
1761475312959190500,7.1451904296875,0.0007669329643249512,0.0008218062575906515,-0.001801170059479773
1761475312969167400,7.15516748046875,0.0015080906450748444,-0.0002650297246873379,0.0015112697146832943
1761475312979144400,7.16514453125,0.000779243593569845,0.00006116414442658424,0.0010691129136830568
1761475312989121800,7.175121826171875,-0.000648743414785713,0.002372788032516837,-0.0004992225440219045
1761475312999098600,7.1850986328125,-0.0001994093181565404,0.000021448824554681778,0.0006715514464303851
1761475313009075700,7.19507568359375,-0.0006635983590967953,-0.0014137286925688386,0.0013474617153406143
1761475313019052500,7.205052490234375,0.00016258598770946264,0.0024295791517943144,0.0010649794712662697
1761475313029029600,7.215029541015625,0.0005157211562618613,-0.002308717230334878,0.00030464702285826206
1761475313039006500,7.22500634765625,0.0028315801173448563,-0.00255788117647171,0.0038419412449002266
1761475313048983600,7.234983642578125,-0.00028378580464050174,-0.0008108476176857948,0.0009356336086057127
1761475313058961700,7.244961669921875,-0.0005273357965052128,0.0024825925938785076,0.0011229254305362701
1761475313068938500,7.2549384765625,0.0011158345732837915,-0.0004343675682321191,-0.0006214450113475323
1761475313078915600,7.26491552734375,-0.0016023480566218495,-0.0011210000375285745,0.0010658290702849627
1761475313088892700,7.274892578125,0.004077375400811434,0.0013389617670327425,0.001418165280483663
1761475313098869500,7.284869384765625,0.00018319213995710015,0.0007440741173923016,0.0017971252091228962
1761475313108846600,7.2948466796875,-0.0011968578910455108,0.000902798492461443,0.0010953822638839483
1761475313118823400,7.304823486328125,0.0004839934699703008,0.001483688596636057,0.001323351520113647
1761475313128800500,7.314800537109375,-0.0009613040019758046,0.002348949434235692,0.0016253539361059666
1761475313138777600,7.324777587890625,-0.0010300843277946115,0.0006033438257873058,-0.0011218462605029345
1761475313148754700,7.334754638671875,-0.0001789380330592394,0.001490442780777812,-0.0009604586521163583
1761475313158731800,7.344731689453125,0.0020554170478135347,0.0014277801383286715,0.0019881296902894974
1761475313168708600,7.35470849609375,-0.0004868364194408059,-0.00006545428186655045,0.0003926298813894391
1761475313178685700,7.364685791015625,-0.0003483216278254986,0.0005343994125723839,-0.001665623625740409
1761475313188662500,7.37466259765625,-0.0011816247133538127,0.0001375884748995304,-0.0015617604367434978
1761475313198639600,7.3846396484375,-0.0014480933314189315,-0.0005186410853639245,-0.0009996882872655988
1761475313208617700,7.39461767578125,-0.0004294343525543809,-0.00043235463090240955,-0.0006489499937742949
1761475313218594600,7.404594482421875,-0.0008442177786491811,0.0014135746750980616,0.0006825674790889025
1761475313228571600,7.414571533203125,0.000013586366549134254,-0.0003244043327867985,-0.0002780347422230989
1761475313238548500,7.424548583984375,0.0016262937569990754,-0.0020408437121659517,0.003631895873695612
1761475313248525600,7.434525634765625,-0.00011381570948287845,0.0006462859455496073,-0.0012118614977225661
1761475313258502400,7.44450244140625,-0.0011443538824096322,0.0014287407975643873,0.0012025886680930853
1761475313268479500,7.4544794921875,0.0017883190885186195,0.00011793291196227074,0.0026641315780580044
1761475313278456600,7.46445654296875,0.0009124343050643802,-0.00018602493219077587,-0.0009562633349560201
1761475313288433700,7.47443359375,0.0013720958959311247,0.0013721904251724482,0.0004693268274422735
1761475313298410800,7.48441064453125,-0.0007778751314617693,-0.002422560704872012,0.0033640009351074696
1761475313308387600,7.4943876953125,0.00019444499048404396,0.0012781680561602116,-0.0006009134231135249
1761475313318364700,7.50436474609375,-0.001606931909918785,0.00045000389218330383,0.0000335418590111658
1761475313328341500,7.514341552734375,-0.0009930732194334269,0.000011913944035768509,-0.00006020141881890595
1761475313338318600,7.524318603515625,0.0002742971701081842,-0.0006198103073984385,-0.0005150127690285444
1761475313348296700,7.534296630859375,0.0007723083253949881,-0.0013708218466490507,0.0018727774731814861
1761475313358273500,7.5442734375,0.0014515519142150879,0.00208937912248075,0.0011170108336955309
1761475313368250600,7.554250732421875,-0.0004648588364943862,-0.00017217732965946198,0.0005894386558793485
1761475313378227500,7.5642275390625,0.001567348837852478,-0.0023574873339384794,0.00036731112049892545
1761475313388204500,7.57420458984375,-0.0007037948817014694,0.0013014294672757387,-0.0013080835342407227
1761475313398181600,7.584181640625,0.0006355318473652005,0.00014941603876650333,0.00012289152073208243
1761475313408158500,7.594158447265625,-0.0031128674745559692,0.00046553323045372963,0.0012946825008839369
1761475313418135600,7.604135498046875,-0.00026815052842721343,0.00036382093094289303,-0.0009187407558783889
1761475313428112400,7.6141123046875,-0.0009043797035701573,-0.0001664143055677414,-0.0010220713447779417
1761475313438089700,7.62408984375,-0.00014019414084032178,0.0014235142152756453,0.0007573014008812606
1761475313448066600,7.634066650390625,-0.0018866951577365398,-0.001716086408123374,0.001336006331257522
1761475313458043600,7.644043701171875,0.0004994808114133775,0.0018286043778061867,-0.0008087023161351681
1761475313468020700,7.654020751953125,0.0015911104856058955,-0.0014611987862735987,0.00040516650187782943
1761475313477997600,7.66399755859375,-0.00018429069314152002,-0.0012814211659133434,0.000028397465939633548
1761475313487975700,7.6739755859375,-0.0008548746118322015,0.00016760476864874363,0.0011154997628182173
1761475313497952800,7.683952880859375,0.0012196790194138885,-0.0006076516583561897,0.001766196102835238
1761475313507929600,7.6939296875,-0.0006703663384541869,0.0007662731222808361,-0.0006711289752274752
1761475313517906700,7.70390673828125,-0.0021196389570832253,-0.00018904614262282848,0.0015932299429550767
1761475313527883500,7.713883544921875,-0.0008570341160520911,-0.0017275544814765453,0.0041690394282341
1761475313537860600,7.723860595703125,-0.0005870824679732323,0.0025474214926362038,-0.0023115898948162794
1761475313547837400,7.73383740234375,-0.0007095879409462214,0.0003796082455664873,0.00020589625637512654
1761475313557814500,7.743814453125,0.0019646547734737396,-0.0015949106309562922,-0.0003363210416864604
1761475313567791600,7.75379150390625,-0.00001327489735558629,0.00039979699067771435,0.002036821795627475
1761475313577768400,7.7637685546875,-0.0008165879407897592,0.0010124505497515202,-0.0005316515453159809
1761475313587745800,7.773745849609375,0.0017877172213047743,-0.00036573526449501514,-0.0016451191622763872
1761475313597722600,7.78372265625,-0.0021619675680994987,-0.0013593523763120174,-0.0011488237651064992
1761475313607699700,7.79369970703125,-0.0007406385848298669,-0.0012855828972533345,-0.0018303267424926162
1761475313617676500,7.803676513671875,-0.0013316246913746,0.0005234212148934603,-0.0006185474921949208
1761475313627654700,7.813654541015625,0.0001695992541499436,-0.00017512589693069458,-0.000512021011672914
1761475313637631700,7.8236318359375,-0.0008843354880809784,0.0001415596343576908,-0.003365306183695793
1761475313647608600,7.833608642578125,-0.0008585028117522597,-0.0006134465802460909,-0.0008587389020249248
1761475313657585700,7.843585693359375,-0.002043567830696702,0.00008312403224408627,-0.0035654446110129356
1761475313667562500,7.8535625,-0.0010241097770631313,-0.0004689492052420974,0.001582179218530655
1761475313677539600,7.86353955078125,-0.0027000121772289276,0.002762562595307827,-0.0012047045165672898
1761475313687516700,7.8735166015625,-0.0017505950527265668,-0.00018369266763329506,-0.0035850380081683397
1761475313697493500,7.883493408203125,-0.0005824059480801225,0.00024220533668994904,0.0014507316518574953
1761475313707470600,7.893470703125,0.0006847260519862175,0.0008821629453450441,-0.0002217334258602932
1761475313717447400,7.903447509765625,-0.0004999125958420336,0.0008458096999675035,-0.0010815091663971543
1761475313727424500,7.913424560546875,-0.0007164276321418583,0.0017121359705924988,-0.0005408874712884426
1761475313737401600,7.923401611328125,-0.0019421821925789118,0.0021984302438795567,-0.00017589476192370057
1761475313747378700,7.933378662109375,0.0005047302111051977,0.00031557539477944374,-0.0014510161709040403
1761475313757355300,7.943355224609375,-0.0023647123016417027,-0.0006311760516837239,-0.0000438018178101629
1761475313767332400,7.953332275390625,-0.0005199407460168004,-0.0015576897421851754,-0.0001796230353647843
1761475313777310200,7.963310302734375,0.0003022571618203074,-0.00174514832906425,0.0018174684373661876
1761475313787287300,7.973287353515625,-0.0013510332209989429,0.0002996267285197973,0.0012454213574528694
1761475313797264400,7.983264404296875,0.00024603362544439733,-0.0014383760280907154,0.0002662948099896312
1761475313807241200,7.9932412109375,-0.0027662678621709347,-0.0006181224016472697,-0.0011696815490722656
1761475313817218300,8.00321826171875,0.00024130623205564916,-0.0016905558295547962,-0.00015441453433595598
1761475313827195100,8.013195068359375,0.0002546220493968576,-0.001739557832479477,-0.0005642749601975083
1761475313837172200,8.023172119140625,0.0004947238485328853,-0.0002789604477584362,0.0026640640571713448
1761475313847149000,8.033149169921876,-0.002996413968503475,-0.00030319509096443653,-0.0018896751571446657
1761475313857126100,8.043126220703124,0.0008465192513540387,0.0016677151434123516,-0.002435303060337901
1761475313867103200,8.053103271484375,0.00020576271344907582,0.00015237671323120594,0.003687304211780429
1761475313877080300,8.063080322265625,-0.00044130103196948767,-0.0008672313997521996,0.0016170612070709467
1761475313887057400,8.073057373046876,0.0007917425245977938,-0.00031595700420439243,-0.00022797679412178695
1761475313897034200,8.0830341796875,0.000900410464964807,-0.0011435233755037189,0.0027729710564017296
1761475313907011300,8.09301123046875,-0.00024501513689756393,-0.0003720056265592575,0.00041500834049656987
1761475313916988200,8.10298828125,0.0021506156772375107,-0.0002893273485824466,0.0011460151290521026
1761475313926965200,8.11296533203125,-0.00033358088694512844,-0.00151331617962569,0.0016197914956137538
1761475313936942300,8.1229423828125,0.0019242807757109404,-0.0015254748286679387,-0.00048491821507923305
1761475313946920200,8.132920166015625,-0.00010584690608084202,0.0013459455221891403,-0.00048065712326206267
1761475313956897300,8.142897216796875,-0.0028841423336416483,0.002450781874358654,0.00027995501295663416
1761475313966874400,8.152874267578126,-0.0007011493435129523,0.00047737942077219486,0.0014461532700806856
1761475313976851200,8.162851318359374,0.0014675459824502468,0.0019134501926600933,0.0016909987898543477
1761475313986828300,8.172828369140625,-0.0027857886161655188,0.001296129310503602,0.0012832689099013805
1761475313996805000,8.18280517578125,0.0008850836893543601,0.000639304518699646,0.0009440458961762488
1761475314006782200,8.1927822265625,0.0002927966706920415,0.003329630009829998,0.00012432492803782225
1761475314016759000,8.202759033203124,-0.00020666903583332896,0.0006861004512757063,0.0018189656548202038
1761475314026736400,8.212736328125,-0.0003368975594639778,-0.00012642983347177505,0.0005345230456441641
1761475314036713500,8.22271337890625,0.0013951868750154972,-0.0010670542251318693,0.0011870777234435081
1761475314046690300,8.232690185546875,-0.0025425630155950785,0.0001976808998733759,-0.0007311971276067197
1761475314056667400,8.24266748046875,0.0021494943648576736,0.0014831526204943657,-0.0005852880422025919
1761475314066644200,8.252644287109375,0.000443473516497761,0.0015513293910771608,-0.0011906245490536094
1761475314076621300,8.262621337890625,0.0004921903600916266,0.00012667407281696796,0.000623819069005549
1761475314086598100,8.27259814453125,0.001296465052291751,0.0012246952392160892,-0.0011839347425848246
1761475314096576300,8.282576171875,0.00045158155262470245,-0.0004548095166683197,-0.0011628663633018732
1761475314106553300,8.29255322265625,0.0010654402431100607,-0.0006305781425908208,-0.0029202864971011877
1761475314116530200,8.3025302734375,-0.0018545956118032336,-0.0013105530524626374,-0.0020169485360383987
1761475314126507300,8.31250732421875,0.0019808888901025057,0.0009121212642639875,-0.002192717045545578
1761475314136484000,8.322484130859374,0.0024216976016759872,0.0012317602522671223,0.0027340881060808897
1761475314146461200,8.332461181640625,0.0002528191253077239,-0.0004811848048120737,-0.0009176383027806878
1761475314156438300,8.342438232421875,-0.0012785685248672962,0.0008297718595713377,-0.002471473766490817
1761475314166415000,8.3524150390625,0.0010303921299055219,0.0010835709981620312,-0.00002642557956278324
1761475314176392200,8.36239208984375,-0.0008590426295995712,-0.0010394048877060413,-0.0015459794085472822
1761475314186369300,8.372369384765625,0.000025659450329840183,-0.002216522116214037,-0.0026019227225333452
1761475314196346400,8.382346435546875,0.000641578168142587,0.0012443491723388433,0.002805541967973113
1761475314206323200,8.3923232421875,-0.002940373495221138,-0.00012797769159078598,0.0026872975286096334
1761475314216300300,8.40230029296875,0.0014814205933362246,-0.0006259470246732235,0.001145402085967362
1761475314226277400,8.41227734375,0.001075288630090654,0.0006236080080270767,0.002106803236529231
1761475314236254200,8.422254150390625,0.0009662783704698086,-0.001361744711175561,0.0004622178093995899
1761475314246232300,8.432232421875,-0.002117395866662264,-0.0011457623913884163,-0.0013734991662204266
1761475314256209200,8.442209228515624,0.0012077766004949808,-0.0012241429649293423,-0.0020919530652463436
1761475314266186200,8.452186279296875,0.0007406582008115947,-0.0001421007327735424,-0.001221898477524519
1761475314276163300,8.462163330078125,0.0009137489250861108,0.002572564408183098,0.0002254835853818804
1761475314286140200,8.47214013671875,-0.0013206431176513433,-0.0006285549607127905,0.002328581875190139
1761475314296117200,8.4821171875,0.0009303268743678927,-0.0016198300290852785,0.000034532102290540934
1761475314306094000,8.492093994140625,0.0010986386332660913,0.00011734990403056145,-0.001270949374884367
1761475314316071200,8.5020712890625,0.0005225932109169662,0.0013690439518541098,-0.0011601019650697708
1761475314326048300,8.51204833984375,-0.0006017934065312147,0.001583428354933858,-0.00048019696259871125
1761475314336025300,8.522025390625,0.0002943689760286361,-0.0014785106759518385,-0.0003397592226974666
1761475314346002400,8.53200244140625,-0.0003961886977776885,-0.00037409772630780935,-0.0010883738286793232
1761475314355979300,8.541979248046875,0.000748105754610151,-0.0009144747164100409,-0.000682312820572406
1761475314365956400,8.551956298828125,-0.0001339332084171474,-0.0006460280856117606,0.0011840304359793663
1761475314375933200,8.56193310546875,-0.0018056202679872513,-0.0008976991521194577,0.000056753015087451786
1761475314385910300,8.57191015625,-0.0018844499718397856,-0.0005341776413843036,-0.00005749659612774849
1761475314395888400,8.581888427734375,-0.000673095288220793,0.000037028221413493156,0.00038492027670145035
1761475314405865200,8.591865234375,-0.0007007921230979264,-0.00047802727203816175,-0.0016646484145894647
1761475314415842300,8.60184228515625,0.0005964950541965663,-0.000589786795899272,-0.00003825523890554905
1761475314425819100,8.611819091796875,-0.0004956673365086317,0.0012123743072152138,0.0009604301303625107
1761475314435796200,8.621796142578125,0.00015827995957806706,-0.002690718276426196,-0.000781697453930974
1761475314445773300,8.631773193359376,-0.0014923472190275788,-0.0014835073379799724,-0.002283720299601555
1761475314455750100,8.641750244140624,-0.0018926722696051002,0.002072456991299987,-0.0012868705671280622
1761475314465727200,8.651727294921875,0.0021942146122455597,0.0005896091461181641,-0.00498067494481802
1761475314475704300,8.661704345703125,-0.0013952981680631638,0.00005560135468840599,0.0005916416412219405
1761475314485681400,8.671681396484376,-0.00005732604768127203,0.0010297857224941254,-0.00076337467180565
1761475314495658200,8.681658203125,-0.000807570293545723,0.002249506302177906,0.001132404082454741
1761475314505635300,8.69163525390625,-0.0003638877533376217,0.0013970285654067993,-0.00027587549993768334
1761475314515612400,8.7016123046875,-0.0027373963966965675,-0.0006584239890798926,-0.0022523291409015656
1761475314525589200,8.71158935546875,0.001622464507818222,-0.00013378122821450233,0.0008505199803039432
1761475314535566300,8.72156640625,0.0001324109616689384,0.00035369209945201874,-0.0030865799635648727
1761475314545544200,8.731544189453125,0.000622166262473911,0.0005228028167039156,-0.0006119705503806472
1761475314555521300,8.741521240234375,-0.002915621269494295,-0.0005175374681130052,-0.0014991380739957094
1761475314565498400,8.751498291015626,-0.000737954571377486,-0.00045069213956594467,-0.001411520061083138
1761475314575475200,8.76147509765625,0.000580277293920517,0.0010539453942328691,-0.0014435481280088425
1761475314585452300,8.771452392578125,-0.0005275977309793234,-0.00011917692609131336,0.00175331044010818
1761475314595429000,8.78142919921875,0.0014560160925611854,0.002398153766989708,-0.001074215630069375
1761475314605406200,8.79140625,0.0004591949109453708,-0.00016220915131270885,-0.0012212221045047045
1761475314615383000,8.801383056640624,0.0012711456511169672,0.0016268359031528234,0.00046831468353047967
1761475314625360100,8.811360107421875,0.0001938969362527132,-0.00015402003191411495,-0.0005932212807238102
1761475314635337500,8.82133740234375,-0.003932365216314793,0.0002527420874685049,-0.002714077942073345
1761475314645314300,8.831314208984375,-0.0016620203386992216,0.0008636713027954102,0.0013632216723635793
1761475314655291400,8.84129150390625,-0.001727221067994833,0.0006492529064416885,-0.00002434218185953796
1761475314665268200,8.851268310546875,0.0006352690397761762,0.002073511481285095,0.0035813115537166595
1761475314675245300,8.861245361328125,-0.0006679577636532485,-0.0007520869839936495,-0.0018496420234441757
1761475314685222100,8.87122216796875,-0.00007620343239977956,-0.0006311794277280569,-0.0011431053280830383
1761475314695199200,8.88119921875,0.00041406857781112194,0.0010573593899607658,0.0006471266970038414
1761475314705177300,8.89117724609375,0.0000630639842711389,-0.001188484369777143,0.0022096033208072186
1761475314715154200,8.901154296875,-0.0003206369001418352,-0.002550622448325157,0.0015967852668836713
1761475314725131300,8.91113134765625,-0.00003088492667302489,0.0002792526502162218,-0.0010567883728072047
1761475314735108000,8.921108154296874,-0.00042231526458635926,0.00025665247812867165,-0.000004864166839979589
1761475314745085200,8.931085205078125,-0.00082897994434461,0.00005691545084118843,-0.0039042646531015635
1761475314755061800,8.941061767578125,0.0011335299350321293,-0.00018254597671329975,-0.00038815545849502087
1761475314765038800,8.951038818359375,0.0009239391656592488,-0.0012640557251870632,-0.00043502706103026867
1761475314775016200,8.96101611328125,0.00032479187939316034,-0.000848997151479125,-0.002376941032707691
1761475314784993000,8.970992919921875,-0.0030214700382202864,0.0022498571779578924,-0.005696837790310383
1761475314794970000,8.98097021484375,0.0015009400667622685,0.0003013438545167446,0.0007795797428116202
1761475314804947000,8.990947021484375,-0.002651194343343377,0.001293371431529522,-0.0024148819502443075
1761475314814924000,9.000924072265626,0.000246741168666631,-0.0013924299273639917,0.00104515440762043
1761475314824900900,9.01090087890625,0.0010475537274032831,0.00023289723321795464,-0.0003127913805656135
1761475314834878000,9.0208779296875,0.00021921220468357205,-0.0002788449637591839,-0.0008844925323501229
1761475314844855000,9.03085498046875,-0.00005509337643161416,-0.000053009018301963806,0.0010076833423227072
1761475314854833000,9.0408330078125,0.0008576866239309311,-0.000723554752767086,0.0006840687710791826
1761475314864810000,9.05081005859375,0.0005682010087184608,0.0004801941104233265,0.0007583709666505456
1761475314874786800,9.060786865234375,-0.001243322854861617,0.001919677946716547,-0.002054753014817834
1761475314884764000,9.070763916015625,-0.001404444221407175,0.00039634970016777515,-0.001114657148718834
1761475314894741000,9.080740966796874,0.0019072561990469694,-0.0011874961201101542,-0.003309439169242978
1761475314904717800,9.0907177734375,0.000365019659511745,-0.0014602039009332657,0.001620604656636715
1761475314914695000,9.10069482421875,-0.0009501713793724775,0.0001379428431391716,-0.0011912937043234706
1761475314924672000,9.110672119140625,0.00001708872150629759,-0.0003310397733002901,-0.0020008948631584644
1761475314934649000,9.120649169921874,-0.0007355754496529698,0.0010372987017035484,-0.0009015052928589284
1761475314944626000,9.1306259765625,0.000885490735527128,0.0018045555334538221,0.0007256861426867545
1761475314954603000,9.14060302734375,-0.001339333364740014,0.0005742241628468037,0.00250494503416121
1761475314964580000,9.150580078125,-0.0007180178654380143,-0.0013792045647278428,0.0016585924895480275
1761475314974557000,9.160556884765626,-0.0002680556499399245,0.0005427503492683172,-0.00019232512568123639
1761475314984534000,9.170533935546874,0.00038255457184277475,0.0016237276140600443,-0.0014400160871446133
1761475314994510800,9.1805107421875,0.0024024867452681065,-0.0023514367640018463,0.0008883443661034107
1761475315004489000,9.190489013671876,0.00007728079799562693,-0.0006728462176397443,-0.003293084679171443
1761475315014466000,9.200466064453124,0.00040722338599152863,-0.0005502533167600632,0.003958657383918762
1761475315024443000,9.21044287109375,-0.0026737877633422613,-0.0015148503007367253,0.002384196501225233
1761475315034420000,9.220419921875,-0.0006651789299212396,-0.0005454634083434939,-0.00002781336661428213
1761475315044396800,9.230396728515625,0.000057602941524237394,-0.00003120698966085911,0.00130563136190176
1761475315054374000,9.240373779296876,0.0004398734017740935,-0.0008820710936561227,-0.0012512467801570892
1761475315064350700,9.250350830078125,0.0015959516167640686,-0.002844288246706128,-0.0008536368841305375
1761475315074328000,9.260328125,-0.00008571194484829903,-0.0007609969470649958,0.000283977686194703
1761475315084305200,9.27030517578125,-0.00010488671250641346,-0.0004608586896210909,0.0010357880964875221
1761475315094282000,9.280281982421876,-0.0007857082528062165,-0.00034723407588899136,-0.0013382923789322376
1761475315104259000,9.290259033203125,0.0021291214507073164,-0.0007211420452222228,-0.00046823773300275207
1761475315114236000,9.30023583984375,0.0012302618706598878,0.00023773359134793282,0.0013450337573885918
1761475315124213000,9.310212890625,-0.0009841565042734146,0.001273703295737505,0.0016323887975886464
1761475315134189800,9.32018994140625,-0.00039365648990496993,-0.004186284728348255,0.00035028235288336873
1761475315144167000,9.3301669921875,-0.0010498594492673874,-0.0005228405352681875,0.0026437968481332064
1761475315154144000,9.34014404296875,0.0003026633057743311,-0.00018039834685623646,0.0008944780565798283
1761475315164121900,9.350121826171875,-0.002151705790311098,0.00040469830855727196,0.0009528013179078698
1761475315174099000,9.360098876953124,-0.0005349926650524139,0.00038879155181348324,0.0012459236895665526
1761475315184076000,9.370075927734375,-0.0005158178973942995,0.00016428716480731964,-0.001936287502758205
1761475315194052900,9.380052978515625,0.00009832368232309818,-0.001601295080035925,0.0017488512676209211
1761475315204030000,9.390030029296875,-0.0017267405055463314,0.00011617760173976421,-0.0009963351767510176
1761475315214006800,9.4000068359375,0.0005934390355832875,0.0009810368064790964,0.0031488758977502584
1761475315223984000,9.409984130859375,0.0014437863137573004,0.0010683885775506496,-0.0031814579851925373
1761475315233961000,9.4199609375,0.00038136602961458266,-0.0002926166635006666,-0.001337646972388029
1761475315243938000,9.42993798828125,0.001856224611401558,-0.0026042405515909195,0.001860809396021068
1761475315253915100,9.4399150390625,0.0014283022610470653,-0.0007703305454924703,0.0015647986438125372
1761475315263892000,9.44989208984375,-0.00004016474122181535,-0.0009471644880250096,-0.0006640009814873338
1761475315273869000,9.459869140625,0.0024447853211313486,-0.0011912223417311907,0.0018886895850300789
1761475315283846000,9.469845947265625,0.0005779092898592353,-0.0014745827065780759,0.00001169367169495672
1761475315293823000,9.479822998046876,0.0013073571026325226,0.0002502144780009985,-0.0014053282793611288
1761475315303799800,9.4897998046875,-0.00038481532828882337,0.0021967189386487007,-0.0008865444688126445
1761475315313777000,9.49977685546875,0.0008766965474933386,-0.0008743788348510861,0.0008953498327173293
1761475315323755000,9.509755126953126,0.001755806035362184,-0.000311652896925807,-0.0010221260599792004
1761475315333731800,9.51973193359375,0.0021199616603553295,0.0005079319234937429,0.0027557455468922853
1761475315343709000,9.529708984375,-0.002522194292396307,0.000374773982912302,-0.0010733474045991898
1761475315353685800,9.539685791015625,0.0023027569986879826,-0.0015878904378041625,-0.00028803059831261635
1761475315363662800,9.549662841796875,0.00131365901324898,0.0029943445697426796,-0.0020640927832573652
1761475315373640000,9.559639892578126,-0.00007506250403821468,0.0009966103825718164,-0.002797274151816964
1761475315383617000,9.569616943359375,-0.0006228747661225498,0.0002360115759074688,-0.002195932436734438
1761475315393594000,9.579593994140625,-0.002567171584814787,0.0005616140551865101,-0.0017481603426858783
1761475315403571000,9.589571044921875,-0.0009993688436225057,-0.00004745088517665863,0.0024106320925056934
1761475315413548000,9.599548095703126,0.00018932000966742635,-0.0007226475281640887,0.001581916119903326
1761475315423524900,9.60952490234375,-0.0003374532097950578,-0.0004968114662915468,-0.0007318381685763597
1761475315433502000,9.619501953125,0.0011017215438187122,0.0018424000591039658,-0.0014448323054239154
1761475315443479000,9.62947900390625,0.0005097007961012423,0.00008737691678106785,0.0015299186343327165
1761475315453456000,9.639455810546876,-0.0005671131075359881,-0.0016556415939703584,0.0013200873509049416
1761475315463433000,9.649432861328124,0.0008763201767578721,-0.0012814674992114305,0.0013587032444775105
1761475315473409800,9.659409912109375,-0.001475740224123001,-0.0022192897740751505,-0.002106199972331524
1761475315483388000,9.669387939453125,0.0012372219935059547,-0.00004641665145754814,-0.0013192358892410994
1761475315493365000,9.679364990234374,-0.0006907983333803713,0.0019456904847174883,0.0009038755670189857
1761475315503341800,9.689341796875,0.0011342659126967192,-0.00022345432080328465,0.0027651588898152113
1761475315513319000,9.69931884765625,0.0010123597458004951,-0.00191211118362844,-0.0007607270963490009
1761475315523296000,9.7092958984375,0.00006720394594594836,0.00022480939514935017,0.0002635246783029288
1761475315533273000,9.719273193359374,0.0023800597991794348,-0.0007508266717195511,-0.000026712747057899833
1761475315543250000,9.72925,-0.00037471402902156115,-0.0018296733032912016,0.00014000113878864795
1761475315553227000,9.73922705078125,-0.0019967129919677973,0.00011162622831761837,0.0008600079454481602
1761475315563204000,9.7492041015625,-0.0006025482434779406,0.0003140266053378582,0.0011497598607093096
1761475315573181000,9.759180908203126,0.002132771071046591,0.0009694311302155256,0.0008991363574750721
1761475315583158000,9.769157958984374,0.0007636398659087718,-0.001352845225483179,0.00040298947715200484
1761475315593134800,9.779134765625,-0.0005095181986689568,0.0010162359103560448,-0.0007006499217823148
1761475315603112000,9.78911181640625,-0.0011153874220326543,0.0014966700691729784,-0.0020852272864431143
1761475315613088800,9.7990888671875,0.0010948204435408115,0.00015644077211618423,-0.000554347294382751
1761475315623065900,9.80906591796875,0.0000942709157243371,-0.000796438311226666,0.0010270377388224006
1761475315633043000,9.81904296875,-0.0004232922801747918,0.00007603829726576805,0.0038722497411072254
1761475315643020800,9.829020751953125,-0.0007410073885694146,0.0009777846280485392,0.0020061726681888103
1761475315652998000,9.838997802734376,0.0004880406195297837,-0.0012700790539383888,-0.00015164908836595714
1761475315662975000,9.84897509765625,-0.0003713615005835891,-0.000366202206350863,-0.0027010932099074125
1761475315672952000,9.8589521484375,-0.0011226183269172907,-0.00014828634448349476,-0.0013512533623725176
1761475315682929200,9.86892919921875,0.0003823340521194041,-0.0002255178987979889,0.00021069060312584043
1761475315692906000,9.878906005859376,0.00021628302056342363,-0.00035481248050928116,-0.002287228824570775
1761475315702883000,9.888883056640625,0.0034203319810330868,0.001223376952111721,-0.0015535277780145407
1761475315712860000,9.89885986328125,-0.00026653631357476115,-0.001703314483165741,0.0023152988869696856
1761475315722837000,9.9088369140625,0.0007577154319733381,0.0012261627707630396,0.0027872109785676003
1761475315732814000,9.91881396484375,-0.0002492679050192237,0.0004299802239984274,-0.00035675050457939506
1761475315742791000,9.928791015625,-0.00034088059328496456,-0.0003407385665923357,-0.0009141500922851264
1761475315752768000,9.93876806640625,-0.00141270668245852,0.003753483993932605,0.000017322920029982924
1761475315762744800,9.948744873046875,-0.00015809148317202926,-0.0014343536458909512,-0.0019374374533072114
1761475315772722000,9.958721923828126,-0.0017910460010170937,0.0007554281037300825,-0.0011723932111635804
1761475315782698800,9.96869873046875,0.001771997194737196,-0.0005836093332618475,0.002436988987028599
1761475315792676000,9.978676025390625,-0.0002647243672981858,0.0018205554224550724,0.003053964814171195
1761475315802653200,9.988653076171875,0.0030764774419367313,-0.0012394164223223925,0.00041024471283890307
1761475315812630800,9.998630859375,0.0018886481411755085,-0.0016133985482156277,0.0022775144316256046
1761475315822608000,10.00860791015625,0.0002782346564345062,0.00012111826799809933,-0.0024061868898570538
1761475315832585000,10.0185849609375,0.0007154822815209627,-0.00024880748242139816,-0.006717095151543617
1761475315842562000,10.02856201171875,0.0003844513848889619,-0.0001734399702399969,0.0002723710495047271
1761475315852539100,10.0385390625,0.00021543412003666162,-0.00140024209395051,0.002084952313452959
1761475315862516000,10.048515869140624,0.0009001328726299107,0.0008274922147393227,0.0003254016919527203
1761475315872493000,10.0584931640625,0.0009779612300917506,-0.0013963677920401096,-0.0017508898163214326
1761475315882470000,10.068469970703125,-0.0006835849490016699,-0.0017758682370185852,-0.0022630158346146345
1761475315892447000,10.078447021484376,-0.000475328357424587,0.0013116197660565376,0.00027377178776077926
1761475315902423800,10.088423828125,0.0015100582968443632,-0.0005067867459729314,-0.0005842986865900457
1761475315912401000,10.09840087890625,0.0022614989429712296,-0.001291695749387145,0.0016862321645021439
1761475315922378000,10.1083779296875,-0.0017702606273815036,-0.0018086154013872147,0.0016920911148190498
1761475315932354800,10.118354736328126,0.0007014641305431724,0.00139523483812809,-0.0006704446277581155
1761475315942332000,10.128331787109374,-0.0011936412192881107,0.0002969473134726286,-0.0008696490549482405
1761475315952309000,10.13830908203125,0.0020864345133304596,-0.0017698395531624556,0.000971996458247304
1761475315962286000,10.1482861328125,-0.00007338915020227432,-0.002820989117026329,-0.001176642021164298
1761475315972264000,10.158263916015626,-0.0015906586777418852,0.0006768051534891129,-0.002090433379635215
1761475315982241000,10.168240966796875,-0.00014243170153349638,-0.0020843602251261473,0.0015232099685817957
1761475315992218000,10.178218017578125,0.0005413774051703513,0.0008574619423598051,0.0027487457264214754
1761475316002195000,10.18819482421875,-0.0007081777439452708,-0.00013350020162761211,0.001128212083131075
1761475316012172000,10.198172119140626,0.0008541292045265436,-0.0027491459622979164,-0.001969976117834449
1761475316022148900,10.20814892578125,-0.00048783764941617846,-0.0001195406075567007,-0.003532985458150506
1761475316032126000,10.2181259765625,0.0012507300125434995,-0.0000012349337339401245,0.0011048095766454935
1761475316042103000,10.22810302734375,-0.001202573999762535,-0.0026979518588632345,0.00001664194860495627
1761475316052079900,10.238079833984376,-0.0006498967413790524,0.0006258648354560137,-0.0031489310786128044
1761475316062057000,10.248056884765624,-0.00042991962982341647,-0.0005216913996264338,0.0005174428224563599
1761475316072033800,10.25803369140625,0.0033415586221963167,0.0010265745222568512,0.0027373414486646652
1761475316082011000,10.268010986328125,0.0023186386097222567,-0.001051490195095539,0.002275815699249506
1761475316091988000,10.277988037109376,0.0005191009258851409,0.00037369271740317345,-0.00023346318630501628
1761475316101965000,10.287965087890624,-0.002131543355062604,0.0003265547566115856,-0.0015860827406868339
1761475316111942100,10.297942138671875,-0.000833450467325747,-0.0006364291766658425,-0.0024329484440386295
1761475316121919000,10.3079189453125,0.0023692669346928596,-0.0007038072217255831,-0.0022065797820687294
1761475316131896000,10.31789599609375,0.00001925497781485319,0.0012190130073577166,-0.000873516546562314
1761475316141874200,10.327874267578125,-0.0021181979682296515,0.000526324613019824,-0.000533963437192142
1761475316151851000,10.33785107421875,0.000551762233953923,-0.001668090233579278,0.001110736862756312
1761475316161828000,10.347828125,-0.0024395002983510494,0.0012459405697882175,0.00015839045227039605
1761475316171805000,10.357804931640626,0.000024978246074169874,0.0008529990445822477,-0.0031499892938882113
1761475316181782000,10.367781982421874,0.0018734782934188843,0.001469254493713379,-0.0008303759386762977
1761475316191758800,10.3777587890625,-0.0015835869126021862,-0.0012592262355610728,-0.0012017014669254422
1761475316201736000,10.38773583984375,-0.000723119592294097,-0.0015167538076639175,-0.0005646733334288001
1761475316211713000,10.397713134765626,-0.000025842629838734865,0.0012706844136118889,0.0019027632661163807
1761475316221689900,10.40768994140625,0.0021611452102661133,0.00016280938871204853,0.0012883719755336642
1761475316231667000,10.4176669921875,-0.00006484263576567173,-0.0006192454602569342,-0.0038642892614006996
1761475316241644000,10.42764404296875,0.000678445678204298,0.0012154062278568745,-0.0031305882148444653
1761475316251621000,10.43762109375,-0.001737535698339343,0.0013229683972895145,0.00033590057864785194
1761475316261598000,10.447597900390624,-0.001237127697095275,0.00007794075645506382,0.0004895649617537856
1761475316271575000,10.457574951171875,-0.00033148424699902534,0.00015163677744567394,-0.0013064572121948004
1761475316281552000,10.4675517578125,0.0006205958779901266,0.0011977264657616615,0.0009670833824202418
1761475316291529000,10.477529052734376,-0.0017650661757215858,0.002449315506964922,-0.00014418966020457447
1761475316301506000,10.487506103515624,0.00020620558643713593,0.00042291637510061264,-0.0016898883040994406
1761475316311484000,10.49748388671875,-0.0006099256570450962,0.001411536242812872,0.0007957483176141977
1761475316321461000,10.5074609375,-0.000035215518437325954,0.0004072580486536026,0.0020652771927416325
1761475316331438000,10.51743798828125,0.0010100650833919644,-0.002043177140876651,0.0026556504890322685
1761475316341415000,10.527414794921874,0.002353363437578082,0.0013462279457598925,-0.0008229705854319036
1761475316351392000,10.53739208984375,-0.0016331309452652931,0.0007972219027578831,-0.0007201106636784971
1761475316361368800,10.547368896484375,-0.0008221983443945646,-0.00015112990513443947,-0.0003339523100294173
1761475316371346000,10.557345947265626,0.0007714555831626058,0.0002327181864529848,0.0006156402523629367
1761475316381322800,10.56732275390625,-0.0015492228558287024,0.0017094409558922052,-0.0034155866596847773
1761475316391299800,10.5772998046875,0.0010861793998628855,-0.002323819324374199,-0.000692793691996485
1761475316401277200,10.587277099609375,-0.00019400223391130567,-0.0006918341387063265,0.0026795673184096813
1761475316411254000,10.59725390625,-0.0004047650727443397,0.000022769439965486526,-0.0032180696725845337
1761475316421231000,10.607231201171874,0.0016530593857169151,-0.0012379710096865892,-0.000718959141522646
1761475316431208000,10.6172080078125,0.0005466213915497065,-0.00015267496928572655,-0.00040094496216624975
1761475316441185000,10.62718505859375,0.001678464817814529,0.0004870162811130285,0.001279243384487927
1761475316451161900,10.637161865234376,-0.0009401195566169918,0.0012977828737348318,0.00035620119888335466
1761475316461139000,10.647138916015624,-0.0011097630485892296,0.002065305830910802,-0.000693084264639765
1761475316471116000,10.657115966796875,0.0006161730270832777,0.0012884123716503382,0.0023925702553242445
1761475316481094000,10.667093994140625,-0.0011401816736906767,0.001314777648076415,-0.00013903077342547476
1761475316491071000,10.677071044921876,0.0019728250335901976,0.0005521394778043032,-0.0006955522112548351
1761475316501047800,10.6870478515625,0.0007059592753648758,-0.0003336279187351465,0.0017814539605751634
1761475316511025000,10.69702490234375,0.0018363595008850098,0.0011868514120578766,-0.000021220999769866467
1761475316521002000,10.707001953125,0.0001300722360610962,0.00009335740469396114,-0.0015291027957573533
1761475316530978800,10.716978759765626,0.0005360816139727831,-0.0011162941809743643,-0.000233873026445508
1761475316540956000,10.726955810546874,-0.0011012298054993153,-0.0009415908716619015,0.0004857130697928369
1761475316550933000,10.73693310546875,0.0010423088679090142,0.0009467822965234518,-0.000861364183947444
1761475316560910000,10.74691015625,-0.00020245270570740104,-0.00010410090908408165,0.001806856831535697
1761475316570887000,10.756886962890626,-0.0016800521407276392,0.000916612334549427,-0.0021012830547988415
1761475316580864000,10.766864013671874,0.00010053731966763735,0.0019627020228654146,0.003050335682928562
1761475316590841000,10.776841064453125,0.0006944779306650162,6.319023668766022e-7,0.00038212211802601814
1761475316600818000,10.78681787109375,0.0005485367146320641,0.00006667827256023884,-0.00145652424544096
1761475316610795000,10.796794921875,0.0007022523786872625,0.0005782437510788441,0.0022001645993441343
1761475316620771800,10.806771728515624,-0.0020828815177083015,0.0018642840441316366,-0.0020081624388694763
1761475316630749000,10.8167490234375,-0.001483388477936387,0.0007816581055521965,0.00027788669103756547
1761475316640725800,10.826725830078125,-0.0018042994197458029,0.0003736617509275675,-0.0011937760282307863
1761475316650702800,10.836702880859375,-0.00009259069338440895,0.001289314590394497,0.00023049193259794265
1761475316660681000,10.846680908203124,-0.0002585055772215128,0.00024269241839647293,0.0017032199539244175
1761475316670657800,10.85665771484375,-0.00023047317517921329,0.001828688196837902,0.00018398422980681062
1761475316680635000,10.866634765625,-0.0011583184823393822,-0.00038972508627921343,0.0009501756867393851
1761475316690611700,10.87661181640625,0.0033595049753785133,-0.001350577105768025,0.0014073322527110577
1761475316700589000,10.886589111328124,-0.00242354953661561,-0.0014927899464964867,-0.0012236045440658927
1761475316710566100,10.896566162109375,0.0009707364370115101,-0.0005416007479652762,-0.001641054404899478
1761475316720543000,10.90654296875,0.0021204231306910515,0.0005316531751304865,0.0030690121930092573
1761475316730520000,10.91652001953125,-0.00008189462823793292,0.0017501332331448793,-0.002445714082568884
1761475316740497000,10.926496826171874,0.0016022884519770741,0.0012294850312173367,-0.002180995885282755
1761475316750474000,10.936473876953125,-0.0009926969651132822,0.001390999648720026,-0.0014463303377851844
1761475316760451000,10.946451171875,0.0005255710566416383,-0.001052184379659593,0.0034062154591083527
1761475316770428200,10.95642822265625,0.0007008343818597496,-0.001507486798800528,0.0015549254603683949
1761475316780405000,10.966405029296874,0.0006494353874586523,0.0005924156866967678,-0.0031524780206382275
1761475316790382000,10.976382080078125,0.0010901081841439009,-0.00275808316655457,0.0017178631387650967
1761475316800359000,10.98635888671875,0.0007180645479820669,0.0011527687311172485,0.0015753840561956167
1761475316810336000,10.9963359375,-0.000596948026213795,0.0009185292292386293,0.0008480538963340223
1761475316820313000,11.00631298828125,-0.0016265260055661201,-0.00031025323551148176,0.00352213392034173
1761475316830291000,11.016291015625,0.001293932436965406,0.0009132237173616886,-0.0024157315492630005
1761475316840268000,11.02626806640625,-0.0015769550809636712,0.0013233504723757505,0.00019416627765167505
1761475316850245000,11.0362451171875,0.000050144619308412075,0.00045076292008161545,-0.00003006120095960796
1761475316860222200,11.04622216796875,0.0019902572967112064,0.0009746067225933075,-0.0008790768915787339
1761475316870199000,11.056198974609375,-0.0027832549531012774,0.0010749991051852703,-0.003760135732591152
1761475316880176000,11.066176025390625,0.00034169823629781604,0.000615870114415884,0.0017558037070557475
1761475316890153200,11.0761533203125,-0.0017847546841949224,-0.0024066537152975798,0.0003833614173345268
1761475316900130000,11.086130126953124,0.0018691022414714098,-0.00001699943095445633,-0.00021984457271173596
1761475316910107100,11.096107177734375,-0.003335727611556649,-0.0011449053417891264,-0.0004059465427417308
1761475316920084000,11.106083984375,0.000871534226462245,0.002326791640371084,0.000056910881539806724
1761475316930061000,11.11606103515625,0.0010413271375000477,-0.0028031107503920794,0.0037667732685804367
1761475316940038000,11.126037841796874,-0.0007006465457379818,0.002106959465891123,0.0018431722419336438
1761475316950015000,11.136014892578125,0.001367979682981968,0.0002519187983125448,0.0014394806930795312
1761475316959992000,11.145991943359375,-0.000148956838529557,0.0028362504672259092,0.009329628199338913
1761475316969969200,11.15596923828125,-0.0012324207928031683,0.004170120693743229,0.0013574552722275257
1761475316979946200,11.1659462890625,-0.0012731673195958138,0.00012770830653607845,0.0002881961117964238
1761475316989923000,11.175923095703125,0.0009405830642208457,-0.0027010717894881964,0.0009787612361833453
1761475316999900200,11.185900146484375,-0.0008272232371382415,-0.00014630123041570187,-0.0033850944600999355
1761475317009878300,11.195878173828126,-0.0012318454682826996,-0.0012055140687152743,-0.004476531408727169
1761475317019855000,11.205855224609374,-0.0007799070444889367,0.0006043701432645321,-0.002350796479731798
1761475317029832200,11.215832275390625,-0.0013054918963462114,-0.0010241385316476226,-0.000648762914352119
1761475317039809000,11.22580908203125,-0.0002692559501156211,-0.00030322070233523846,0.0011821603402495384
