time,seconds_elapsed,z,y,x
1761476307680655400,0.0876552734375,0.17049334478378295,-0.10810242812670767,-0.10195044483561068
1761476307690688300,0.097688232421875,0.08124737362265587,-0.14424327043555676,-0.08174690237632021
1761476307700721200,0.10772119140625,-0.024335984355211258,-0.1366899324465543,-0.048794572176784276
1761476307710754000,0.117754150390625,-0.09363163889944554,-0.09094890262149274,-0.004136414818139747
1761476307720788200,0.127788330078125,-0.11650631853044033,-0.04649192125760018,0.025131600845465434
1761476307730821000,0.137821044921875,-0.10192658903598785,-0.0011176058530807495,0.04009235641360283
1761476307740854000,0.14785400390625,-0.05491466249227524,0.02827792691402137,0.03890160312592052
1761476307750887200,0.15788720703125,-0.003102057668566704,0.047466465378180146,0.022009934294130652
1761476307760921300,0.16792138671875,0.0424900652050972,0.055334641470015045,0.0010281374713405967
1761476307770954200,0.177954345703125,0.08218143960237502,0.04225801001489162,-0.004703337119054049
1761476307780987100,0.187987060546875,0.08347440202236175,0.010885770347341894,-0.0008022197609767318
1761476307791020000,0.19802001953125,0.06891571531593799,-0.02980557487271726,0.019353857694240285
1761476307801054200,0.20805419921875,0.039648704299330706,-0.048594957951456304,0.03836267394362949
1761476307811087000,0.218087158203125,-0.012415244936943053,-0.06697751379497349,0.042387518146075304
1761476307821120000,0.2281201171875,-0.04088379905223846,-0.04275967592671513,0.04499244908061809
1761476307831153200,0.238153076171875,-0.0470692096889019,-0.035057284855842585,0.03233425310011953
1761476307841187300,0.248187255859375,-0.018382044386863708,-0.018851707725226877,0.027310470121353864
1761476307851220200,0.25822021484375,0.03081073332726955,-0.0019053952299058435,0.01103338039079681
1761476307861253000,0.268253173828125,0.07255494860112667,0.023024682560935615,0.001376128925103694
1761476307871286300,0.278286376953125,0.08740180459916591,0.02959076307825744,-0.0036390506220981477
1761476307881320200,0.2883203125,0.07533201209902762,0.019426365808025002,-0.007764240793325007
1761476307891353000,0.29835302734375,0.027503508475422857,0.009966098219156264,-0.006975602033128961
1761476307901386000,0.308385986328125,0.0071843585461378095,0.004243263592943549,-0.011323979101516305
1761476307911419100,0.318419189453125,-0.010319149440526962,0.0013677812218666075,-0.011326508985320106
1761476307921453300,0.328453369140625,0.004348258337378502,0.0005614332750439643,-0.0019416081876028328
1761476307931486200,0.338486328125,0.029643443113565444,0.015232421249523759,-0.002507105716411024
1761476307941519000,0.34851904296875,0.054630584853887554,0.022112974543496967,-0.0021176132084801793
1761476307951552300,0.35855224609375,0.04865794018507003,0.01141892737597227,-0.0045043439482338726
1761476307961586200,0.368586181640625,0.04178746989369392,0.004717822302132845,-0.00906309409798123
1761476307971619000,0.378619140625,0.030135610544681547,-0.0019403934780508278,-0.021541293869074433
1761476307981652000,0.38865185546875,0.037193712362647055,-0.010490779680386185,-0.021580402036756277
1761476307991685000,0.39868505859375,0.03616261574923992,-0.010169950228184461,-0.012086889765411614
1761476308001719300,0.40871923828125,0.023442834907770157,-0.01733918427042663,0.0065904569067526605
1761476308011752200,0.418752197265625,0.0258241770863533,-0.02934672518931329,0.009406601172871887
1761476308021785000,0.42878515625,0.012941899159550666,-0.02275865203589201,0.01487318688253872
1761476308031818200,0.438818359375,0.01486322261095047,-0.006602905396372079,0.022606037023756652
1761476308041852200,0.44885205078125,0.029954408758878705,-0.002363587326183915,0.014922661180607973
1761476308051885000,0.458885009765625,0.026032266879081726,0.013448825768381356,0.013227575099980458
1761476308061918000,0.46891796875,0.027643793728947638,0.0028732904139906167,0.015804394184891133
1761476308071951000,0.478951171875,0.04273673344254494,-0.013387012578547,0.0127895581420511
1761476308081985300,0.4889853515625,0.03493278169333935,-0.021321751100569962,0.004272992010926828
1761476308092018200,0.49901806640625,0.03672317224144935,-0.025960297621414063,0.013450460603041574
1761476308102051000,0.509051025390625,0.03687456341087818,-0.026816329928860065,0.02249750774852
1761476308112084200,0.519084228515625,0.045995442977547644,-0.02680946179665625,0.022304177133506162
1761476308122118100,0.5291181640625,0.0405816012352705,-0.0118991121083498,0.025688942467281595
1761476308132151000,0.539151123046875,0.02783493238687515,-0.00621054507791996,0.024421662477822972
1761476308142184000,0.549183837890625,0.021365444111824033,-0.007582856344431638,0.017132071725232526
1761476308152217000,0.559217041015625,0.031962241449952127,-0.01345357500873506,0.0049805648915469646
1761476308162251300,0.569251220703125,0.03254091812074184,-0.023000863293930886,0.005996719664148986
1761476308172284200,0.5792841796875,0.037602877685427666,-0.028515315866470336,0.0005351845889352262
1761476308182317000,0.589317138671875,0.05359831919670105,-0.02487067575380206,0.0004318886112421751
1761476308192350200,0.59935009765625,0.04536415933668613,-0.0019455080445855855,0.00001388239488005638
1761476308202384100,0.609384033203125,0.04803483985066414,0.014500599843636153,-0.0064327547275461255
1761476308212417000,0.6194169921875,0.04308393944501877,0.025570129260048268,-0.004649140980094671
1761476308222450000,0.629449951171875,0.03678396251797676,0.018420622831583022,-0.008572086577489972
1761476308232484000,0.639484130859375,0.04201426438689232,0.012413564436510205,-0.00328504955265671
1761476308242517200,0.649517333984375,0.05444470689296722,0.0013066256191581486,-0.01661388393687084
1761476308252550100,0.659550048828125,0.04965981070399284,-0.012218480255827308,-0.013944555129762738
1761476308262583000,0.6695830078125,0.05743979705572128,-0.026264760460704563,-0.017921550735644994
1761476308272617200,0.6796171875,0.03634264849126339,-0.032406916477531196,-0.016397117647342384
1761476308282650000,0.689650146484375,0.024810616129636764,-0.008284721003472804,-0.014200411320663988
1761476308292683000,0.69968310546875,0.03361585387587547,-0.0032193273726850748,-0.00544608177775517
1761476308302716000,0.7097158203125,0.024155951613187787,-0.005535130034387111,-0.004206383914966136
1761476308312750000,0.71975,0.03415302949249744,0.009881780936568975,-0.009534026944823562
1761476308322783200,0.729783203125,0.041916649231314655,0.008921192276105284,-0.01217845877269283
1761476308332816100,0.739816162109375,0.06106617085933685,0.002010609170049429,-0.02461489262813702
1761476308342849000,0.74984912109375,0.06692775636911392,-0.01005173067599535,-0.025258232032973317
1761476308352883200,0.75988330078125,0.06441957294046878,-0.018175854290276766,-0.024105335670802742
1761476308362916400,0.769916259765625,0.06714812112152577,-0.023671748292818665,-0.012272164938133209
1761476308372949200,0.77994921875,0.04593348365724086,-0.027459011746570467,-0.0007839169193059205
1761476308382983200,0.789983154296875,0.03591711655557155,-0.028643837616965172,0.008633424843288958
1761476308393016000,0.80001611328125,0.011651274827122688,-0.007354235220327973,0.017111001537740228
1761476308403049200,0.81004931640625,0.018825111979246138,0.002966448590159416,0.02276265235757455
1761476308413082000,0.82008203125,0.012086743634939194,0.01803893003761768,0.026951957273576407
1761476308423116300,0.8301162109375,0.014028525352478026,0.019345847917720673,0.021101422880776224
1761476308433149200,0.840149169921875,0.026893267622590065,0.00564684678055346,0.0363072666506283
1761476308443182300,0.850182373046875,0.04331950176656246,-0.021678017192333934,0.02257997100073844
1761476308453216000,0.860216064453125,0.04553893138170242,-0.02982508329078555,0.011133333633933215
1761476308463249200,0.870249267578125,0.04687690198719501,-0.032107056748121976,-0.0008822627272456883
1761476308473281300,0.88028125,0.04268763360381126,-0.03678432784415781,-0.016443587137572466
1761476308483314400,0.890314453125,0.05018354231715202,-0.03544182719402015,-0.0184707638499327
1761476308493348400,0.900348388671875,0.054702481046319,-0.02354001167193055,-0.0168741788408719
1761476308503381500,0.910381591796875,0.04231763124763965,-0.021208426919206977,-0.020230887123942373
1761476308513414400,0.920414306640625,0.0475789127767086,-0.008989800532907247,-0.01734594280477613
1761476308523448600,0.930448486328125,0.03519230941236019,-0.0033668460845947264,-0.022413345729559657
1761476308533481500,0.9404814453125,0.04689619120955467,0.0052783057291060686,-0.013787318741437047
1761476308543514400,0.950514404296875,0.03720715636610985,-0.008280190958827734,-0.014663864113949238
1761476308553548500,0.960548583984375,0.049665655922889705,0.0004896832130849361,-0.006349405559338629
1761476308563581400,0.97058154296875,0.05792027404904365,0.011447495883330702,0.0017377653117291627
1761476308573614300,0.9806142578125,0.04462357010245323,0.01580174557007849,0.0036968086913228035
1761476308583647500,0.9906474609375,0.03639817807078361,0.01522642990015447,0.008296813300065696
1761476308593681700,1.000681640625,0.021863456761837003,0.014273878415673971,0.015200802268553524
1761476308603714600,1.010714599609375,0.02783376334309578,0.01598725820481777,0.004282846684660762
1761476308613747500,1.02074755859375,0.03110708592534065,0.0006560527559369802,0.0023735607309266923
1761476308623781400,1.030781494140625,0.0554828177690506,-0.008456716569513082,-0.0054112479263916605
1761476308633814500,1.040814453125,0.06236848562955856,0.003380655414238572,-0.01590332451472059
1761476308643847400,1.050847412109375,0.05491057083904743,0.004551233563572168,-0.0165757804161869
1761476308653881600,1.060881591796875,0.05403320348262786,-0.0003264554753899574,-0.002172576532419771
1761476308663914500,1.07091455078125,0.03564005317986011,-0.0011828531090170144,0.007099666804214939
1761476308673947600,1.08094775390625,0.02186754841506481,-0.007727963903546333,0.01099942332226783
1761476308683980500,1.09098046875,0.006435586005449295,-0.019861615420132876,0.011933836361858994
1761476308694014500,1.101014404296875,0.018691840988397598,-0.028339301712438463,0.008938353473460302
1761476308704047400,1.11104736328125,0.040242578539252276,-0.041409576492011546,-0.001412177486019209
1761476308714080500,1.12108056640625,0.0540185904353857,-0.04838862172439694,-0.003704224812798202
1761476308724114400,1.131114501953125,0.05597673876583576,-0.04720167696215212,0.005275766712147742
1761476308734147600,1.141147705078125,0.050315644264221186,-0.043566754525899885,0.002794927948154509
1761476308744180500,1.151180419921875,0.03940729675889015,-0.0358627560198307,0.0011556545748375355
1761476308754214400,1.16121435546875,0.02295125199854374,-0.03179652949422598,0.0196084535098169
1761476308764247300,1.171247314453125,0.012616320466995238,-0.0189875359993428,0.007899493678705766
1761476308774280400,1.181280517578125,0.01768354072868824,-0.01256765901967883,0.007162804301455617
1761476308784313300,1.191313232421875,0.03367430606484413,0.00032280221357941627,0.010935235512256622
1761476308794347500,1.201347412109375,0.04728080661296844,0.005947291031852364,0.010167155482899396
1761476308804380400,1.21138037109375,0.051613282859325406,-0.0005324994415044785,0.007167188215628266
1761476308814413600,1.22141357421875,0.05311082794070243,0.006531374530121684,0.007550625442108139
1761476308824447500,1.231447509765625,0.03993512002527713,0.029540859521925446,-0.0032936803836841133
1761476308834480600,1.241480712890625,0.028852000474929806,0.028860549107566476,-0.0007654953466262668
1761476308844513500,1.251513427734375,0.012963526469469069,0.023400164809823036,-0.007399846194032579
1761476308854547500,1.26154736328125,0.013528759136795996,0.01132218900322914,-0.01494184993826784
1761476308864580400,1.271580322265625,0.030429040533304214,0.008513999714702368,-0.025563352459389715
1761476308874613500,1.281613525390625,0.055717211046814916,0.004207388561964035,-0.03418551612314768
1761476308884647400,1.2916474609375,0.06709785223901271,0.0030050270348787305,-0.029497915429342537
1761476308894680600,1.3016806640625,0.06996668567359447,-0.003897665025666356,-0.03643710357537493
1761476308904713500,1.31171337890625,0.043804070413112635,0.0005981850888580084,-0.025431588439038023
1761476308914746600,1.32174658203125,0.023466800305247306,-0.0025460312210023404,-0.021743949434859678
1761476308924780300,1.3317802734375,0.003555646654963493,-0.009009089755266904,-0.013779135434981434
1761476308934813400,1.3418134765625,0.020150223103165624,-0.01114376369640231,-0.01338653765451163
1761476308944846300,1.351846435546875,0.027166239345073697,-0.025889570472761986,-0.010595655693812295
1761476308954880500,1.361880615234375,0.035850481060147286,-0.03102159959897399,-0.018821093391254543
1761476308964913400,1.371913330078125,0.06400748500823975,-0.0343606808938086,-0.01343970174700953
1761476308974946600,1.381946533203125,0.055504445078969,-0.038641719213873146,-0.01088820889960043
1761476308984980500,1.39198046875,0.05103226810097694,-0.03212649210095406,-0.004021775462524965
1761476308995013400,1.402013427734375,0.024089900639653203,-0.01762223899550736,0.010088144563091919
1761476309005046300,1.41204638671875,0.011215221497416496,-0.008557254334539174,0.015585344606731086
1761476309015080400,1.42208056640625,0.025566987454891204,-0.005946560379490256,0.006363470617309212
1761476309025113600,1.432113525390625,0.013428805893659591,-0.006209449099376797,0.02132608934896998
1761476309035146500,1.442146484375,0.029437106886506078,-0.01816584435291588,0.006630313993105664
1761476309045180700,1.4521806640625,0.04155132305026054,-0.020535496093705294,0.01948877265290357
1761476309055213600,1.462213623046875,0.05861819318532943,-0.0113212391551584,0.012528021129034459
1761476309065246500,1.47224658203125,0.05684241568446159,-0.00264276959374547,0.0031057474629953502
1761476309075280400,1.4822802734375,0.037543256452679634,-0.00630019612275064,0.008645581071963533
1761476309085313500,1.4923134765625,0.020047347250580785,0.003411196682974696,0.017049215747369454
1761476309095346400,1.502346435546875,0.0012070377022027968,0.0062075494032353155,0.021656115887779742
1761476309105380600,1.512380615234375,-0.014657470905780791,0.003327463922277093,0.028542021210305392
1761476309115413500,1.52241357421875,-0.010621347257494926,-0.025089652266725895,0.034666413241578264
1761476309125446700,1.53244677734375,0.032598785787820814,-0.04133468462489545,0.024523634148109704
1761476309135480300,1.542480224609375,0.04123977288305759,-0.03341134427972138,0.014140561759052797
1761476309145513500,1.552513427734375,0.04660393026471138,-0.014731485990062356,0.0011385938421823083
1761476309155546400,1.56254638671875,0.04208966771066189,-0.007091419565677643,-0.008674843699065968
1761476309165580500,1.57258056640625,0.03713233756422996,-0.002474646485224366,-0.013448168181255458
1761476309175613400,1.582613525390625,0.03383095793128013,-0.008875380373001097,-0.021780682982364668
1761476309185646600,1.592646484375,0.041755321189761156,-0.012518339985236524,-0.03664815251016989
1761476309195679500,1.602679443359375,0.052229368931055065,-0.0008628273744136094,-0.04036341930679045
1761476309205713400,1.61271337890625,0.053286184507608414,-0.008419745559990406,-0.036366970081767064
1761476309215746300,1.622746337890625,0.06199439162015914,-0.0079728055100888,-0.028614584123017265
1761476309225779500,1.632779541015625,0.05678454801738262,-0.006679039372503757,-0.027880278499098493
1761476309235813400,1.6428134765625,0.04243278205990791,-0.006058350190892815,-0.0038068906028289346
1761476309245846500,1.652846435546875,0.01714578059017658,0.012195172445476054,0.009213590218266472
1761476309255879400,1.66287939453125,0.012335749959945679,0.013779007570818066,0.012044393197400494
1761476309265913600,1.67291357421875,0.012768296158313751,0.018366043100133535,0.017822593006351962
1761476309275946500,1.682946533203125,0.020682138022780416,0.0006029343292117119,0.020062928412202745
1761476309285979400,1.6929794921875,0.05043956290483474,-0.0021824586056172846,0.006073593425797298
1761476309296013300,1.703013427734375,0.0558311928153038,-0.0012500000610947608,-0.007243879314186051
1761476309306046500,1.71304638671875,0.05480652594268322,-0.004416209007054567,-0.008738684449205175
1761476309316079400,1.723079345703125,0.05467851564884185,-0.010538710475340485,0.0016837792353238908
1761476309326113500,1.733113525390625,0.032847207590937615,-0.01762844954058528,0.0037980679755564776
1761476309336146400,1.743146484375,0.013256371936202048,-0.01809935498796403,0.005308773932605981
1761476309346179600,1.7531796875,0.012512275570631027,-0.021052432639896868,0.015240869417460634
1761476309356213500,1.763213623046875,0.0020206921726465222,-0.02011602857261896,0.012263506707642226
1761476309366246400,1.773246337890625,0.012321136912703513,-0.019182693245261905,0.014268380256649105
1761476309376279300,1.783279296875,0.020538345637917517,-0.025146277824789284,0.014034598900238051
1761476309386313500,1.7933134765625,0.03429740639925003,-0.024546119974553585,0.0012089099988806993
1761476309396346600,1.8033466796875,0.0434223776191473,-0.02817205538675189,-0.002930856686970219
1761476309406379500,1.813379638671875,0.05120353301465511,-0.030315497156232593,-0.004828041210956871
1761476309416413400,1.823413330078125,0.03429389926791191,-0.01750796496607363,-0.009995972767611964
1761476309426446300,1.8334462890625,0.03924129254221916,-0.007462956291809678,-0.00229911638838239
1761476309436479500,1.8434794921875,0.03266542128324509,-0.007149652558937668,0.0031930512871127573
1761476309446513400,1.853513427734375,0.028777766194939613,-0.0022646569963544606,0.002124782734783366
1761476309456546600,1.863546630859375,0.0271183085501194,-0.005648673411458731,0.0057513300683349365
1761476309466579500,1.873579345703125,0.024115619602799416,-0.007909457950294017,0.01612554329750128
1761476309476614100,1.8836142578125,0.03623158933222294,0.0035641952876001594,0.01873298584953882
1761476309486647300,1.893647216796875,0.020360650983452796,0.004718479889258742,0.03007490246654488
1761476309496680200,1.90368017578125,0.029163550642132757,0.004804623802751302,0.01893549528485164
1761476309506714400,1.91371435546875,0.030486323678493497,0.004966609431430697,0.017931697670323772
1761476309516747300,1.923747314453125,0.028816929161548613,0.0000364595528692007,-0.003637972909864038
1761476309526780400,1.933780517578125,0.04690729712545871,0.004150397677719593,-0.006574638283113017
1761476309536814300,1.943814453125,0.04017068234682083,-0.0007759528085589408,-0.010508698929566889
1761476309546847200,1.95384716796875,0.05260112485289573,-0.0025102292552590367,-0.012385315589560195
1761476309556880100,1.963880126953125,0.04587210885882377,-0.005399959347397089,-0.0003685045188292861
1761476309566914300,1.973914306640625,0.03616261574923992,-0.001532324133813381,-0.0028351868933066725
1761476309576947500,1.983947509765625,0.030478724893927573,-0.0030145985808223484,0.002017002378217876
1761476309586980400,1.99398046875,0.01849777972102165,-0.00233384977504611,0.00432917917757295
1761476309597014500,2.0040146484375,0.025360651227831838,-0.006329422217234969,0.0021727043965831397
1761476309607047400,2.01404736328125,0.02894727754294872,-0.01286320790015161,-0.0062671889022924004
1761476309617080600,2.02408056640625,0.04855155720114707,-0.018069032914936542,-0.009808825298212469
1761476309627114200,2.0341142578125,0.05006196176409721,-0.01768098344542086,-0.006725974653614685
1761476309637147400,2.0441474609375,0.04676701187193393,-0.018783026403188706,-0.005126631431886926
1761476309647180300,2.05418017578125,0.043488428592681885,-0.009771160168945789,0.0005712148835416883
1761476309657214500,2.06421435546875,0.022251579296588896,-0.010289850280806421,-0.003706873427610844
1761476309667247400,2.074247314453125,0.012829086434841156,-0.008235913425683975,0.004007518608309328
1761476309677280500,2.084280517578125,0.007428104174137115,-0.009761296362057328,0.004771570916520432
1761476309687314200,2.094314208984375,0.01714753415584564,-0.018085472593083976,-0.0016695589137263596
1761476309697347300,2.104347412109375,0.04348959763646126,-0.011556143889576195,-0.006842212311271577
1761476309707380200,2.114380126953125,0.0610159019768238,-0.0018481851499527692,-0.00732151112766005
1761476309717414400,2.124414306640625,0.05580781193971634,0.009156243140995501,-0.0016434380917809902
1761476309727447300,2.134447265625,0.0453612367272377,0.0074511197235435245,0.005713509675441309
1761476309737480400,2.14448046875,0.01620470034778118,0.004374269561469555,0.022608347711851818
1761476309747514400,2.154514404296875,-0.008778934261202812,0.005564502259343862,0.02644982557087205
1761476309757547300,2.16454736328125,-0.020012275937199592,0.006048047992587089,0.029051322439312934
1761476309767580200,2.174580078125,-0.006588146218657494,0.0042524698127061125,0.029504080308647825
1761476309777614300,2.1846142578125,0.013408932149410246,-0.0032172815460711716,0.009146799459215253
1761476309787647200,2.194647216796875,0.05318623126447201,-0.02055083979330957,-0.010614059000182896
1761476309797680400,2.204680419921875,0.06859656636416912,-0.020142185927182435,-0.024818890767637637
1761476309807714300,2.21471435546875,0.06954056921601295,-0.02865333609767258,-0.03579138955036178
1761476309817747500,2.22474755859375,0.06629764177203178,-0.03414301955513656,-0.03533812935752794
1761476309827780400,2.2347802734375,0.053175709870457645,-0.022091785624995825,-0.03411221342491917
1761476309837814300,2.244814208984375,0.02163140157163143,-0.017383242607861758,-0.012945753350760788
1761476309847847200,2.25484716796875,0.006240355694293975,-0.006307794907316565,-0.0012099603116512297
1761476309857881300,2.26488134765625,0.01074701946377754,0.0012839023306965827,0.0017180559642612932
1761476309867914500,2.27491455078125,0.01314297468960285,0.004568184698373079,0.01618742041941732
1761476309877947400,2.284947509765625,0.034544074636697765,0.0030781653363257644,0.011334326965594664
1761476309887981300,2.294981201171875,0.04952010997235775,-0.007524623351171612,0.006691040337551385
1761476309898014200,2.30501416015625,0.057628597626090045,-0.004076967115327716,0.009738573073595762
1761476309908047400,2.31504736328125,0.05495440998077392,-0.008731807183846831,0.00986213552118279
1761476309918081300,2.325081298828125,0.044184009641408915,-0.005158990198373794,0.006988817707728594
1761476309928114400,2.335114501953125,0.025034488013386726,0.0007400777775794267,0.003119511126866564
1761476309938147300,2.345147216796875,0.03205693399608135,0.008306129117682576,-0.004733668325236067
1761476309948181500,2.355181396484375,0.03879121068716049,0.018677374071627853,-0.0038063882793299853
1761476309958214400,2.36521435546875,0.04464052123725414,0.011487754828482865,-0.008812699533486738
1761476309968247300,2.375247314453125,0.05333586886823177,-0.014045038095861672,-0.010338548260740935
1761476309978281200,2.38528125,0.04288052582740783,-0.021627675244584678,-0.002413198621571064
1761476309988314400,2.395314453125,0.039901802277565,-0.02789353070631623,0.006767238245764747
1761476309998347300,2.40534716796875,0.012969956210255621,-0.012668196784704922,0.0028038236406631766
1761476310008381400,2.41538134765625,0.011034604233503342,-0.00507255402393639,0.0010242558806668966
1761476310018414300,2.425414306640625,0.013572013756632804,-0.0014622545722872019,0.0050786001722328365
1761476310028447500,2.435447509765625,0.02432721652686596,-0.02210968660786748,-0.002646313257701695
1761476310038481200,2.445481201171875,0.0494610732614994,-0.01829531595148146,-0.009151375169632955
1761476310048514300,2.455514404296875,0.05351707065403461,-0.016024156149104237,-0.002634695885144174
1761476310058547200,2.465547119140625,0.058491351935267444,-0.029816826919093726,-0.006842120979726314
1761476310068581400,2.475581298828125,0.05224398197829723,-0.027982670294493434,-0.011558746838616206
1761476310078614300,2.4856142578125,0.03477729887068271,-0.022196415043249724,-0.011438481459813191
1761476310088648200,2.495648193359375,0.019541735816001892,-0.016346081579849122,-0.00010040990086272358
1761476310098681300,2.505681396484375,0.010876783323287963,0.0010677022967487573,0.008644749954901635
1761476310108714200,2.51571435546875,0.008028408154845238,0.014608078806102275,0.010894328113133088
1761476310118748400,2.52574853515625,0.014737550404667853,0.010933408881351352,0.019505769453477113
1761476310128781300,2.53578125,0.02578676768541336,0.0282139948323369,0.024068428593361748
1761476310138814500,2.545814453125,0.04057867862582207,0.03551474629975855,0.02303077437500469
1761476310148848400,2.555848388671875,0.0378583137512207,0.03330174642540514,0.02173121781744994
1761476310158881500,2.565881591796875,0.031106501403450965,0.030287147844582793,0.00790772265093401
1761476310168914400,2.57591455078125,0.023898177459836006,0.022883812785521148,-0.004137099804729223
1761476310178948400,2.5859482421875,0.03434183006286621,0.011019698925316334,-0.022465943566476927
1761476310188981200,2.595981201171875,0.04255144000351429,0.003976064024120569,-0.027478218770539388
1761476310199014400,2.606014404296875,0.05390928484201431,0.0008437573477625847,-0.02708330116881989
1761476310209048300,2.61604833984375,0.0485375286757946,-0.0026308599602431057,-0.033253696899442
1761476310219081500,2.62608154296875,0.0552951862424612,-0.007056713578477501,-0.032470190972089766
1761476310229114400,2.6361142578125,0.04903963297903537,-0.007040785356983542,-0.023730273547023534
1761476310239148300,2.646148193359375,0.03723755150437355,-0.013681538545712827,-0.016575944812968372
1761476310249181200,2.65618115234375,0.029183424386382103,-0.03268522196225822,-0.0105450580177363
1761476310259214300,2.66621435546875,0.015604980888962745,-0.03567424771040678,0.0072109999578911805
1761476310269248300,2.676248291015625,0.026842998740077017,-0.05564129626639187,0.017378813027916475
1761476310279281400,2.686281494140625,0.019976035580039023,-0.07769340746812523,0.01660542663577944
1761476310289315300,2.6963154296875,0.022974048352241514,-0.09829590438343584,0.026334272899804636
1761476310299348500,2.706348388671875,0.004415478354692459,-0.1100868068769574,0.030493895063595844
1761476310309381000,2.716381103515625,0.00962649100124836,-0.09232347891032695,0.034349118320178236
1761476310319415300,2.726415283203125,0.0194803610175848,-0.06484335131049156,0.049687977352552114
1761476310329448200,2.7364482421875,0.006581131955981254,-0.0439739470873028,0.046750672658486286
1761476310339481300,2.7464814453125,0.013285598030686378,-0.01795271305888891,0.04225694143581204
1761476310349515500,2.756515625,0.00279635272026062,-0.002069499750435352,0.037368283478263764
1761476310359548400,2.76654833984375,0.0014554595053195953,-0.007781228460744023,0.03313210721323266
1761476310369581600,2.77658154296875,0.0177723880559206,-0.025574074782803654,0.043814400010881945
1761476310379615200,2.786615234375,0.03898644099831581,-0.031612551229447124,0.038704281322378666
1761476310389648400,2.7966484375,0.038947862553596495,-0.029072584423050284,0.028695074613858014
1761476310399681300,2.806681396484375,0.04250643181800842,0.0010166296966373919,0.015398224536795168
1761476310409715500,2.816715576171875,0.048641573572158814,0.018635507691279054,0.0050951129156164825
1761476310419748400,2.826748291015625,0.05118365927040577,0.018143705586344004,-0.004909490683022886
1761476310429782300,2.8367822265625,0.053740358015894885,0.018928791549429298,-0.004525971258152276
1761476310439815200,2.846815185546875,0.05613806680738925,0.015865166195109484,-0.00245347583303228
1761476310449848300,2.856848388671875,0.057335752159357066,0.01575169588327408,-0.003676076430547982
1761476310459882200,2.86688232421875,0.05178805490434169,0.015817381530627606,-0.02250279584499076
1761476310469915400,2.876915283203125,0.04967676183879375,0.03695756551921368,-0.03274109860165045
1761476310479948300,2.8869482421875,0.053552141967415805,0.04869922204352915,-0.031134814182482658
1761476310489982500,2.896982421875,0.04740589429736137,0.0517765836622566,-0.04032015555379912
1761476310500015400,2.907015380859375,0.04724515077769756,0.05723937911279499,-0.053298769994545726
1761476310510048500,2.917048583984375,0.05548106420338154,0.0605007920615375,-0.058210525699891144
1761476310520082200,2.927082275390625,0.05803191772997379,0.06371821973808109,-0.05967878988785669
1761476310530115300,2.937115234375,0.05564473033249378,0.0631140432998538,-0.06774873562948777
1761476310540148200,2.947148193359375,0.06075403617024421,0.06412037079818546,-0.0658707763957791
1761476310550182400,2.957182373046875,0.05209317533075809,0.059921311673149465,-0.06298795096846296
1761476310560215300,2.96721533203125,0.041945290803909296,0.04625146356523037,-0.05902063650637865
1761476310570249200,2.977249267578125,0.02910802106261253,0.026973200991004705,-0.033979663953278214
1761476310580282400,2.987282470703125,0.03153027977347374,0.015830533273145556,-0.009857651142310351
1761476310590315300,2.997315185546875,0.022860651105642317,0.006028393444046378,0.002464052025973797
1761476310600349400,3.007349365234375,0.019710078120231626,0.0034498481929302214,0.005817837699595838
1761476310610382300,3.01738232421875,0.0045639469146728515,-0.0031290918059647082,0.017619024125114083
1761476310620415500,3.02741552734375,0.017246902877092362,-0.014576806885004043,0.02465681380741298
1761476310630449400,3.037449462890625,0.02483867318034172,-0.023083427010849117,0.021838212722726166
1761476310640482300,3.047482421875,0.016568857485055922,-0.036267172102257605,0.028296923875436183
1761476310650515200,3.05751513671875,0.027763620716333388,-0.04827442076019942,0.028553090593591332
1761476310660549400,3.06754931640625,0.041516836258769035,-0.06651749506779014,0.03131886551249772
1761476310670582300,3.077582275390625,0.041216392007470126,-0.06849142548926174,0.03918760785991326
1761476310680616400,3.087616455078125,0.03043079409897327,-0.06536109157428145,0.044744383470527824
1761476310690649300,3.0976494140625,0.017833178332448005,-0.0612839052632451,0.05007303114738315
1761476310700682500,3.1076826171875,-0.004372223734855652,-0.05467895404025912,0.04947126586195081
1761476310710716200,3.117716064453125,-0.003994622594118118,-0.03582651566267013,0.06643069356717168
1761476310720749300,3.127749267578125,-0.0003197334736585617,-0.02502951957732439,0.05457890946557745
1761476310730782200,3.1377822265625,0.019354104289412498,-0.018430340507999063,0.048123212253861125
1761476310740816400,3.14781640625,0.04127893584966659,-0.03413965855427086,0.04097993463678285
1761476310750849300,3.157849365234375,0.05664893893897533,-0.033599121936783195,0.032947142567764966
1761476310760882400,3.16788232421875,0.06036123746037483,-0.04439736013114452,0.021568163609690962
1761476310770916000,3.177916015625,0.0639437721222639,-0.03690218207016587,0.02733697453578934
1761476310780949200,3.18794921875,0.051367199143767354,-0.01600939697138965,0.03783288704901933
1761476310790983400,3.1979833984375,0.027699323308467864,-0.007255597151443362,0.026688429232873023
1761476310801016300,3.208016357421875,0.00820610280930996,0.003724646546319127,0.024335180637612936
1761476310811049200,3.21804931640625,0.013096212938427925,0.005846095679700374,0.01260579907298088
1761476310821083400,3.22808349609375,0.02143500221669674,0.004645195457339287,-0.0014649945186451076
1761476310831116500,3.238116455078125,0.04024959280192852,-0.005192088750377297,-0.02157883113417774
1761476310841149400,3.2481494140625,0.06298048004806041,-0.026994682170450687,-0.04142309356071055
1761476310851183400,3.258183349609375,0.06462766273319721,-0.0336396731428802,-0.04727286076853052
1761476310861216300,3.26821630859375,0.06298807883262635,-0.015496771274134517,-0.04553074807524681
1761476310871250400,3.27825048828125,0.04338379917442799,0.0014656155731528997,-0.03979940134901553
1761476310881283300,3.288283447265625,0.01913257049322128,0.012222571909055112,-0.04664265483990311
1761476310891316500,3.29831640625,-0.00392915614247322,0.013998130214214324,-0.039945221294183285
1761476310901350100,3.30835009765625,0.011024082839488983,0.017030337516963482,-0.035938141077291215
1761476310911383300,3.31838330078125,0.03526888177990913,0.014088950302824378,-0.03774683446707204
1761476310921416200,3.328416259765625,0.05967617780566215,0.019831439477577803,-0.03872958016041666
1761476310931450400,3.338450439453125,0.07542436655759811,0.01823321050070226,-0.03126982047269121
1761476310941483300,3.348483154296875,0.07067629524767398,0.01930105892792344,-0.034140517070796336
1761476310951516400,3.358516357421875,0.04169277734756469,0.020248715041577815,-0.01820389307467267
1761476310961550300,3.36855029296875,0.012868249401450156,0.015642317224666476,-0.01562074471367523
1761476310971583500,3.37858349609375,-0.021801497441530225,-0.0038950346771627663,-0.002219246952049434
1761476310981617400,3.388617431640625,-0.020754618737101552,-0.025547625167295335,0.0184808833851479
1761476310991650300,3.398650390625,-0.006285363879799843,-0.04938457395918667,0.01628861577156931
1761476311001683200,3.40868310546875,0.014304419684410095,-0.04645334281288087,0.000906191592104733
1761476311011717400,3.41871728515625,0.05331891773343086,-0.037055472935736175,-0.012442059878632426
1761476311021750500,3.42875048828125,0.05271218401193618,-0.02462042731977999,-0.01634363389443606
1761476311031783400,3.438783447265625,0.04630056340396404,-0.0105293581251055,-0.015988171520270406
1761476311041817300,3.4488173828125,0.04963000008761882,-0.0015940642584115266,-0.017453896691277622
1761476311051850200,3.458850341796875,0.03815583539307117,0.0028428222104907035,-0.014568294784985482
1761476311061884400,3.468884521484375,0.037760698595643044,0.013746055149286984,-0.0046914274855516845
1761476311071917300,3.478917236328125,0.03392038978040218,0.01254004036039114,-0.0005831336501985788
1761476311081950500,3.488950439453125,0.04503916516602039,-0.0017278467059135437,-0.0007541611018590629
1761476311091984400,3.498984375,0.049585576424002645,-0.006075155195221305,0.0038040136591531333
1761476311102017300,3.509017333984375,0.03017594255506992,-0.01760813740491867,0.011257672399654984
1761476311112050200,3.51905029296875,0.02840659479498863,-0.019438786898180842,0.019531707612331955
1761476311122084400,3.52908447265625,0.024389175847172737,-0.0016505436860024929,0.025191030281968414
1761476311132117200,3.5391171875,0.022760113340616225,-0.010038286672532558,0.026312307663168756
1761476311142151400,3.5491513671875,0.024863223099708554,-0.022705972000584006,0.028896935595199465
1761476311152184300,3.559184326171875,0.033843232890963554,-0.022942045778781173,0.029070465531200167
1761476311162217500,3.569217529296875,0.044022097077965734,-0.019582140891626475,0.020003033184818924
1761476311172251100,3.579251220703125,0.05001578453481197,-0.0077033409189432855,0.008409863486792893
1761476311182284300,3.5892841796875,0.04270984543561935,-0.0013509762175381182,0.0011878946103155612
1761476311192317200,3.599317138671875,0.037650223958492275,-0.0018760960701853036,-0.006724650346208364
1761476311202351400,3.609351318359375,0.025554712495207785,-0.009168956492096186,0.006665924162603914
1761476311212384300,3.61938427734375,0.022877017718553543,-0.014842399018630385,0.0011517638510093091
1761476311222418400,3.62941845703125,0.005521978291869163,-0.009515139581263064,0.005658080560620874
1761476311232451300,3.639451416015625,0.00819908854663372,-0.006739172061905265,0.01140340101327747
1761476311242484200,3.649484130859375,0.018659692284464836,-0.006957856313884258,0.002666113936714828
1761476311252518400,3.659518310546875,0.019246552261710168,-0.009198986304178834,0.004543908773642033
1761476311262551300,3.66955126953125,0.03494681021869182,-0.009431626016274093,-0.00724208008274436
1761476311272584400,3.67958447265625,0.03855506384372711,-0.018268939401209352,-0.014803254318330437
1761476311282618400,3.689618408203125,0.058339376243948936,-0.017146438177302478,-0.006639237085077911
1761476311292651500,3.699651611328125,0.05254676431715488,-0.015974398723244666,0.0029076310750097037
1761476311302685200,3.709685302734375,0.049583238336443895,-0.011247443266585468,0.005167337901610881
1761476311312718300,3.71971826171875,0.017408230918645858,0.00802066323980689,0.01442408227501437
1761476311322751200,3.729751220703125,-0.007466098096966743,0.00488163456171751,0.021166907598730175
1761476311332785400,3.739785400390625,-0.012306523865461348,-0.00593625818118453,0.023634832082223146
1761476311342818300,3.749818359375,0.011439677903056144,-0.0018097528357058762,0.00403453447939828
1761476311352851500,3.7598515625,0.037426936596632,-0.012436068529263138,-0.007370035577658564
1761476311362885000,3.769885009765625,0.057149874198436736,-0.012003449265658855,-0.010896638801228254
1761476311372918300,3.779918212890625,0.0641705666154623,-0.0028164456602185963,-0.023444661538675426
1761476311382952400,3.789952392578125,0.042621582630276676,0.0027246026583015916,-0.024274609556794165
1761476311392985300,3.7999853515625,0.037385435542464256,0.012128610015287995,-0.016522479326371103
1761476311403018200,3.810018310546875,0.01822422347664833,0.020454028355330226,-0.010168178396206349
1761476311413052400,3.820052490234375,0.010126257216930388,0.013010434351116418,-0.013350607824604958
1761476311423085600,3.83008544921875,0.017595277923345566,0.004720379585400223,-0.002512092418782413
1761476311433118500,3.840118408203125,0.04451952520608902,-0.00842449480034411,-0.005420582010317593
1761476311443152400,3.85015234375,0.04752572128474712,-0.01476400002017617,-0.015851082870829848
1761476311453185300,3.860185302734375,0.053826867255568504,-0.025801819124072787,-0.014115089391078799
1761476311463219500,3.870219482421875,0.05654781665205955,-0.020004531022161244,-0.019591255779843775
1761476311473251600,3.88025146484375,0.02887538135051727,-0.03186521081626415,-0.006013141075987369
1761476311483284500,3.890284423828125,0.002236380749940872,-0.03077756171002984,0.0020956205723807212
1761476311493318700,3.900318603515625,-0.00017360300123691558,-0.020693609264865517,0.00427661787327379
1761476311503351800,3.910351806640625,-0.002149286988377571,-0.012813231278583406,0.011808602546993643
1761476311513384700,3.920384765625,0.02520166127383709,0.011993804654479027,0.02132692046603188
1761476311523418600,3.930418701171875,0.030255437532067296,0.012948328900337218,0.015564685411192476
1761476311533451500,3.940451416015625,0.04103168309032917,0.011472411128878594,0.0019437179462984202
1761476311543485700,3.950485595703125,0.04927636434435844,-0.011654270501807331,-0.012214498200453817
1761476311553518600,3.9605185546875,0.05378711976706981,-0.022792919631674884,-0.011154869612306356
1761476311563551700,3.9705517578125,0.05381517681777477,-0.032846038547158236,-0.012117248371057212
1761476311573585400,3.98058544921875,0.048293783047795295,-0.029395678897574544,-0.004946461692545563
1761476311583618600,3.99061865234375,0.043375615867972374,-0.01244688218422234,0.004936396956257522
1761476311593648600,4.000648681640625,0.020636545315384863,-0.00033390812948346134,0.021710951347555962
1761476311603681500,4.010681640625,-0.01483750364780426,0.016537220237776637,0.03785650538662448
1761476311613715700,4.0207158203125,-0.027579496321082114,0.018022271163761615,0.039068657655362035
1761476311623748600,4.03074853515625,-0.022820319095253942,0.006050824471563101,0.03381471918253228
1761476311633781800,4.04078173828125,0.025604981377720833,-0.016950842539966104,0.030514526859670876
1761476311643815400,4.0508154296875,0.04471358647346496,-0.03300692819729447,0.010308299252949654
1761476311653848600,4.0608486328125,0.06848141555190086,-0.03240450532473624,-0.004338303198944777
1761476311663882500,4.070882568359375,0.05441548079848289,-0.03483224392831325,-0.0010431523773819207
1761476311673915600,4.08091552734375,0.03660977499485016,-0.037498394397646184,-0.005937061898782849
1761476311683948500,4.090948486328125,0.022234628161787985,-0.016243497988209128,-0.0076048672468401485
1761476311693982700,4.100982666015625,0.034036709636449815,-0.014163549908995628,-0.008964008504524827
1761476311704015600,4.111015625,0.027721535140275953,0.0033585897129029033,-0.013355978119466453
1761476311714049500,4.121049560546875,0.044913492959737775,-0.011303557367995381,-0.013320267485268412
1761476311724082700,4.131082763671875,0.06214870539903641,-0.02558708039484918,-0.02166793418973684
1761476311734115600,4.141115478515625,0.06083996088802814,-0.025247180915996432,-0.017201419767551122
1761476311744149800,4.151149658203125,0.06717910078167914,-0.0223852886788547,-0.00415260790111497
1761476311754182700,4.1611826171875,0.04805997429192066,-0.00882328485958278,-0.0013916918204165995
1761476311764215800,4.1712158203125,0.008112579306960105,-0.002153817033022642,0.02240450483597815
1761476311774249500,4.18124951171875,-0.018854922595620154,0.0008433189563453197,0.02532461180007085
1761476311784282600,4.19128271484375,-0.018756722918152807,0.010390241915360093,0.03389560239901766
1761476311794316500,4.201316650390625,0.012620996642112732,0.01032791726887226,0.018144728499650955
1761476311804349700,4.211349609375,0.050013446447253224,0.001056304119899869,-0.0061730808780528605
1761476311814382600,4.221382568359375,0.06781622964143752,0.005270122422650456,-0.017976020869240165
1761476311824416500,4.23141650390625,0.07530921574532985,0.0027336627475917337,-0.020799663455225527
1761476311834449400,4.241449462890625,0.06292787307798862,0.011212225822731852,-0.017344901625160128
1761476311844482600,4.251482666015625,0.02732815190851688,0.0025356559574604034,-0.00976104063373059
1761476311854516500,4.2615166015625,0.0009819967746734618,0.002329465860873461,0.004303030956164002
1761476311864549600,4.271549560546875,-0.00861994430720806,0.002800882764905691,0.007314889590628444
1761476311874583600,4.28158349609375,0.005559387692809104,0.012429784918949006,-0.0018027751056477427
1761476311884616700,4.29161669921875,0.03814239138960838,0.01877732731476426,-0.009600899902265519
1761476311894649600,4.301649658203125,0.05877484505176544,0.02266658983826637,-0.020602259453292936
1761476311904683500,4.31168359375,0.06686228991746902,0.020640929229557514,-0.02492037838073447
1761476311914716400,4.32171630859375,0.0640484015405178,0.007756240149959921,-0.038410924398992206
1761476311924750600,4.33175048828125,0.05032207400500774,0.002973462852835655,-0.034821448539663104
1761476311934783700,4.34178369140625,0.03509527877867222,-0.0047173108454793685,-0.02947206860203296
1761476311944816600,4.351816650390625,0.022108371433615683,-0.0027193419612944122,-0.024178327841777352
1761476311954850600,4.3618505859375,0.02497545130252838,-0.005067804783582687,-0.01815996260140091
1761476311964883500,4.371883544921875,0.026933599632978436,-0.010843027184158563,-0.0067002648236230014
1761476311974916600,4.38191650390625,0.02605389418900013,-0.01022584513388574,0.0047314124360680575
1761476311984950500,4.391950439453125,0.028008535388112068,-0.004764949379488826,0.004768620907608419
1761476311994983700,4.401983642578125,0.02337152323722839,0.011270093489810824,0.01697347449688241
1761476312005017600,4.412017578125,0.020527824243903158,0.017295125932991505,0.021793569863401353
1761476312015050800,4.42205078125,0.019627076011896134,0.013803192164003848,0.023823048130702226
1761476312025083600,4.432083740234375,0.013333528825640678,0.0031127251930534836,0.024222897635865954
1761476312035117600,4.44211767578125,0.022743746727705,-0.008390300269797445,0.020945830460265276
1761476312045150500,4.452150390625,0.027371991050243377,-0.008090221344679594,0.016926657946780322
1761476312055184600,4.4621845703125,0.026615619724988937,-0.01797901654392481,0.012094232821650803
1761476312065217500,4.472217529296875,0.030963878062367438,-0.01229417584054172,0.013421024446003139
1761476312075250700,4.482250732421875,0.027955928418040274,-0.015327332991361617,0.022353231306467203
1761476312085284600,4.49228466796875,0.011482348001003265,-0.01623677598647773,0.021826759746950117
1761476312095317500,4.5023173828125,0.02150982101857662,-0.027993410884216426,0.01899438586523756
1761476312105350400,4.512350341796875,0.025845804396271703,-0.05419372780658304,0.014226495609991252
1761476312115384600,4.522384521484375,0.028989947640895842,-0.07062230003811419,0.00824634348815307
1761476312125417700,4.532417724609375,0.050394554719328875,-0.053676133673265576,0.016583269602898507
1761476312135451600,4.54245166015625,0.048286768785119054,-0.04543853974714875,0.018509835484996438
1761476312145484800,4.55248486328125,0.027330489996075628,-0.014764146150648593,0.018326259079016746
1761476312155517700,4.562517578125,0.001433247673511505,-0.003913593247160316,0.019380626970157026
1761476312165551600,4.572551513671875,-0.004734627306461334,-0.0016505436860024929,0.01861645593093708
1761476312175584500,4.58258447265625,0.011831307569146155,-0.01275492522008717,0.0130666763166897
1761476312185619700,4.59261962890625,0.029011574950814245,-0.012184797181934118,0.0014764840270392596
1761476312195652600,4.602652587890625,0.06431728160977364,-0.009060089290142058,-0.009325115168187766
1761476312205686500,4.6126865234375,0.07361410226523876,-0.011968085691332817,-0.02118422405971214
1761476312215719700,4.6227197265625,0.07469839037060737,-0.009238879923149942,-0.023420824005361645
1761476312225752600,4.632752685546875,0.047054596641659736,0.0032158202413469553,-0.019114980037603525
1761476312235786800,4.642786865234375,0.0032370822250843046,0.016237945030257106,-0.0057541065473109484
1761476312245819600,4.652819580078125,-0.028643910682201384,0.018124343298748135,0.0005028714882209897
1761476312255852800,4.662852783203125,-0.03304185338020325,0.022457769393175838,0.01672492482960224
1761476312265886500,4.672886474609375,0.015236732098460196,0.009336714274436235,0.012804152922984213
1761476312275919600,4.682919677734375,0.04902151280045509,0.002443301498889923,-0.004690368039626628
1761476312285953500,4.69295361328125,0.05813537810444831,0.005610825619101524,-0.03687421635100618
1761476312295986700,4.702986572265625,0.0672989277690649,0.006632423751801252,-0.04629119278742
1761476312306019600,4.71301953125,0.05761690718829632,-0.010702814995869994,-0.050164874149300154
1761476312316053500,4.723053466796875,0.04328852210640907,-0.019972820709645747,-0.053832383680902415
1761476312326086400,4.73308642578125,0.03763327282369137,-0.01238126960210502,-0.04406168016968295
1761476312336120600,4.74312060546875,0.029576807618141174,-0.005778583401441574,-0.046396004868764426
1761476312346153500,4.753153564453125,0.01343406659066677,-0.0048643911659717555,-0.040152708298712966
1761476312356186600,4.7631865234375,0.020485738667845727,-0.01378565650731325,-0.03170340785067528
1761476312366220500,4.773220458984375,0.04459902018308639,-0.006257452959567308,-0.028250125591643152
1761476312376253700,4.783253662109375,0.050908933982253074,0.0034952947698533533,-0.018923932711221277
1761476312386286600,4.79328662109375,0.048400166031718254,0.016937398536503313,-0.004858984338492155
1761476312396320500,4.803320556640625,0.04379530258476734,0.007592939347028732,0.0007184322013519704
1761476312406353400,4.813353515625,0.02690729614794254,0.008766074779629707,0.01469208556143567
1761476312416387600,4.8233876953125,0.0203343474984169,-0.009719064655527472,0.0176225312564522
1761476312426420700,4.833420654296875,0.02153553998172283,-0.01597388726659119,0.0016509820774197577
1761476312436453600,4.84345361328125,0.024089900639653203,-0.00989654011428356,-0.006642525020707398
1761476312446487600,4.853487548828125,0.04596329427361488,-0.010511237946525216,-0.003134315970353782
1761476312456520400,4.8635205078125,0.04419102390408516,0.005415449177473783,0.006746113259345292
1761476312466554600,4.8735546875,0.025061960542201993,-0.0006384440340101719,0.01135729684922844
1761476312476587500,4.88358740234375,0.024320202264189718,0.0006130903970450163,0.02692990983854979
1761476312486621700,4.89362158203125,0.012781155639886856,-0.00029072657488286494,0.022776936611253767
1761476312496655600,4.903655517578125,0.007986322578787803,-0.017561448718979952,0.018573511838354168
1761476312506688500,4.9136884765625,0.010972060391306876,-0.015401348075643181,0.009398308268561958
1761476312516722700,4.92372265625,0.03117722855210304,-0.03222834504023194,0.0014139584511518477
1761476312526755600,4.933755615234375,0.05246434673070907,-0.0356804582554847,-0.001536927243694663
1761476312536788700,4.943788818359375,0.05607318487763405,-0.03851495102904737,0.00537148217158392
1761476312546822700,4.95382275390625,0.04036883526742458,-0.03531644724868238,0.016501911462377755
1761476312556855600,4.96385546875,0.010282909083366393,-0.030759733792394398,0.015157876442279665
1761476312566888400,4.973888427734375,0.0017313538372516631,-0.02278210597671568,0.015831428322289138
1761476312576922600,4.983922607421875,-0.002175590473413467,-0.02077222745902836,0.014657653568871318
1761476312586955500,4.99395556640625,0.025490999609231946,-0.013540011183172464,0.01519462825609371
1761476312596989700,5.00398974609375,0.050906011372804635,-0.011153554438054561,0.015136322197597474
1761476312607022600,5.014022705078125,0.05016366857290268,-0.019289441555365917,0.01694136232556775
1761476312617055700,5.0240556640625,0.046724341773986815,-0.0019351327810436486,0.019439152224361895
1761476312627089700,5.034089599609375,0.02712181568145752,-0.0005419979222118854,0.019759543285146355
1761476312637122600,5.04412255859375,0.009151859226822852,0.0109830201767385,0.027407701684441416
1761476312647156700,5.05415673828125,0.005066635739803314,0.011327303569763898,0.018917776965070514
1761476312657189600,5.064189697265625,0.006358429116010665,0.007186039046570658,0.01298513551307842
1761476312667222800,5.074222900390625,0.031309915021061896,0.008587795603275298,0.006259279590472578
1761476312677256700,5.084256591796875,0.03412088078856468,-0.006175108438357711,-0.007272438688389956
1761476312687289600,5.09428955078125,0.0420323845654726,-0.013088175762444735,-0.011250091881398111
1761476312697322500,5.104322509765625,0.048151744228601454,-0.011863821599259972,-0.022382676596660166
1761476312707356700,5.114356689453125,0.0384159476339817,-0.016085019490867852,-0.029068017845787105
1761476312717389600,5.1243896484375,0.029302666851878163,-0.020791955072805283,-0.04016925757471472
1761476312727423700,5.134423828125,0.0339414325684309,-0.019965294990316032,-0.02955423046015203
1761476312737456600,5.14445654296875,0.02931377276778221,-0.018079188982769844,-0.03071797700989991
1761476312747489800,5.15448974609375,0.046374797683954236,-0.00648578182272613,-0.028786753218993544
1761476312757523500,5.1645234375,0.040841128954291345,0.0007997720755636692,-0.017948402209952474
1761476312767556600,5.174556640625,0.03620353228151798,0.008040902310237288,-0.020953721505776048
1761476312777590800,5.1845908203125,0.024680267748236655,0.002755801514163613,-0.015232348184287547
1761476312787623700,5.194623779296875,0.02123801833987236,0.0003255056273192167,-0.016385664671566335
1761476312797656600,5.204656494140625,0.021844752061367035,-0.013505305195972322,-0.016375746065750717
1761476312807690500,5.2146904296875,0.03741173902750015,-0.031593335072323675,-0.018801420576404777
1761476312817723600,5.2247236328125,0.05119301162064075,-0.014778613067418336,-0.017818473953660575
1761476312827757600,5.234757568359375,0.04074059118926525,0.0009129501264542341,-0.01320162780797109
1761476312837790700,5.244790771484375,0.02505085462629795,0.01156447332650423,-0.013138974367920308
1761476312847823600,5.25482373046875,0.012201309925317764,0.026880115880072115,0.00337517552152276
1761476312857857800,5.26485791015625,-0.0050075990289449685,0.008940408433228731,0.02002259640181437
1761476312867890700,5.274890625,-0.005344868159294128,-0.010769012099876999,0.032590766878146674
1761476312877923800,5.284923828125,-0.002406476619839668,-0.034029914569482206,0.028101364770717917
1761476312887957500,5.29495751953125,0.0123696522295475,-0.038216771800071,0.0051413266775198274
1761476312897990700,5.30499072265625,0.043617607930302615,-0.022308277919888497,-0.005429441170208156
1761476312908024600,5.315024658203125,0.062468438872694966,-0.02900748329758644,-0.019466423823777584
1761476312918057700,5.3250576171875,0.05605448017716407,-0.024410145569965243,-0.021524233136419206
1761476312928090600,5.335090576171875,0.04679857605397701,-0.024869652840495107,-0.019930808198824524
1761476312938124500,5.34512451171875,0.039186932006478305,-0.01597220676615834,-0.01387017471930012
1761476312948157400,5.355157470703125,0.023045944544672965,-0.004800312953814864,-0.0021791889362968503
1761476312958191600,5.365191650390625,0.02799918303787708,-0.005611117880046367,-0.010311075731925665
1761476312968224500,5.375224609375,0.037463761475682256,-0.002365194761380553,-0.0033299664066173133
1761476312978257700,5.385257568359375,0.052906829801201816,-0.003227437613904476,0.000795625623408705
1761476312988291800,5.395291748046875,0.05577274062633514,-0.005571954913437366,0.0061118339437991375
1761476312998324700,5.40532470703125,0.04563946914672851,0.0008521598499268293,0.010403539788350463
1761476313008358700,5.415358642578125,0.028002105647325515,0.006049363166838884,0.019705657673440874
1761476313018391600,5.4253916015625,0.0021188918501138685,0.01147299565076828,0.027700327955465762
1761476313028424700,5.4354248046875,0.002856558474898338,0.008794058765098452,0.029435517717618494
1761476313038458600,5.445458740234375,0.004020926079154014,-0.002909530771151185,0.021916721319034695
1761476313048491800,5.45549169921875,0.019099837267398834,-0.0017835954811424015,0.01192064808672294
1761476313058524700,5.465524658203125,0.04346212510764599,0.004076967115327716,0.0010564685166813432
1761476313068558600,5.47555859375,0.05616144768297672,0.003173734665289521,-0.006683879944402724
1761476313078591500,5.485591552734375,0.05063362417221069,0.001209448854997754,-0.007711487692780792
1761476313088625700,5.495625732421875,0.05289747745096683,-0.017162074137851594,-0.006161938429530709
1761476313098658600,5.505658447265625,0.03704641284644603,-0.02199073640331626,0.003543426494207233
1761476313108691700,5.515691650390625,0.018186814075708387,-0.0227160550031811,0.005430153556261212
1761476313118725600,5.5257255859375,0.006180734461545944,-0.01875409256964922,0.006923314723465591
1761476313128758800,5.5357587890625,0.006897358298301696,-0.0023337767098098993,0.018000260261353103
1761476313138792400,5.54579248046875,0.011950550034642219,-0.0025598405506461856,0.014567034409660845
1761476313148825600,5.55582568359375,0.025387539234757422,-0.007534998614713549,0.005942304329480975
1761476313158858500,5.5658583984375,0.03420212933123112,-0.028969927766174075,-0.004777388735953719
1761476313168892700,5.575892578125,0.05081248787045479,-0.03746186177954078,-0.011403912469930947
1761476313178925800,5.58592578125,0.05559621501564979,-0.03360818202607333,-0.013095390954520553
1761476313188959500,5.59595947265625,0.0371960504502058,-0.029351547494903204,-0.004023081503622234
1761476313198992600,5.60599267578125,0.024025018709897993,-0.02205664124637842,0.007208287410996854
1761476313209025500,5.616025634765625,0.011736030501127242,-0.01980272483974695,0.002006371386349201
1761476313219059700,5.626059814453125,0.010513795229792594,-0.010526216319948434,-0.004850855830963701
1761476313229092600,5.636092529296875,0.028005028256773947,-0.012342325831204651,-0.007428944424353539
1761476313239126800,5.646126708984375,0.04834989714920521,-0.010629092172533274,-0.013588398635853082
1761476313249159700,5.65615966796875,0.05465279668569564,-0.005974909691140055,-0.014382508155610412
1761476313259192800,5.66619287109375,0.05556932700872421,0.016122501957044004,-0.01144775161165744
1761476313269226500,5.6762265625,0.037028877189755435,0.02114953633882105,-0.002516184072010219
1761476313279259600,5.686259765625,0.01786474251449108,0.013804434273019433,0.001314187871105969
1761476313289292500,5.69629248046875,0.00736731389760971,0.014794541288912295,0.0022167992666363716
1761476313299326700,5.70632666015625,0.020514380240440368,0.0016443331409245728,-0.0050335189214907585
1761476313309359600,5.716359619140625,0.030977906587719914,-0.011369973667711019,-0.010678173744957893
1761476313319393500,5.7263935546875,0.04609013552367687,-0.023298019609600304,-0.026304654079675673
1761476313329426400,5.736426513671875,0.05777414357662201,-0.030113179517164825,-0.025974490543548015
1761476313339459600,5.74645947265625,0.045503860068321224,-0.026233853865787384,-0.02572804150180891
1761476313349493800,5.75649365234375,0.03264145588576794,-0.012100772160291672,-0.02226577221872285
1761476313359526700,5.766526611328125,0.022763035950064656,-0.010738397765904665,-0.005474942546058446
1761476313369560800,5.776560791015625,0.012139935126900672,-0.008452624916285276,-0.006562427255511283
1761476313379593700,5.78659375,0.010031564670801163,-0.010315350048243998,-0.0038238326044753193
1761476313389626600,5.796626708984375,0.03082008567750454,-0.0051695846576243635,-0.0014809044738300144
1761476313399660500,5.80666064453125,0.04371989926099777,-0.005365253360196947,-0.003665098378807306
1761476313409693700,5.816693603515625,0.04808393968939781,0.002052767811343074,-0.014277677807956933
1761476313419727600,5.8267275390625,0.04167991786599159,-0.00005837912373244762,0.00038183892443776127
1761476313429760800,5.8367607421875,0.029893033960461616,-0.013994111626222728,0.00975267466418445
1761476313439793700,5.846793701171875,0.021529694762825964,-0.01933043115288019,0.006758589148428291
1761476313449827600,5.85682763671875,0.01675064379274845,-0.026606705766171215,0.01479410289749503
1761476313459860500,5.866860595703125,0.02439326750040054,-0.013522329396009444,0.02229806705312803
1761476313469894700,5.876894775390625,0.02964753476679325,0.007781959113106131,0.030954160385951397
1761476313479927300,5.88692724609375,0.022638532787561415,0.014988821751996874,0.034939247966744004
1761476313489960200,5.896960205078125,-0.010573416462540626,0.0012553338233381509,0.03395798184443265
1761476313499994400,5.906994384765625,-0.01044248355925083,-0.01640285326838493,0.039899957380350674
1761476313510027300,5.91702734375,-0.007789923223853111,-0.02286160095371306,0.04531515082949772
1761476313520060400,5.927060302734375,0.015057283878326415,-0.019225728669390083,0.023215930816717443
1761476313530094000,5.937093994140625,0.023550971457362173,-0.02628755681440234,0.00716735261240974
1761476313540127200,5.947127197265625,0.04494505714178085,-0.009041896046325564,-0.002475833795312792
1761476313550161200,5.9571611328125,0.043162849900126456,-0.012791750099137425,-0.016106792931258676
1761476313560194300,5.9671943359375,0.05277297428846359,0.007315656775608658,-0.021654745914600787
1761476313570227200,5.977227294921875,0.04727145426273346,-0.004722133151069283,-0.020004859815724193
1761476313580261000,5.98726123046875,0.046265492090582845,-0.02700922215245664,-0.02637560042403638
1761476313590294000,5.9972939453125,0.035544191589951514,-0.028754896776005623,-0.019270809920132158
1761476313600328200,6.007328125,0.024964345386624336,-0.026018092223256826,-0.014448559129144995
1761476313610361000,6.017361083984375,0.019447627791762352,-0.009317498117312788,-0.0019398637550882994
1761476313620394200,6.027394287109375,0.026031682357192037,-0.001383271051943302,0.005536025083530694
1761476313630428400,6.037428466796875,0.01586217052042484,0.0021785130828619,0.007159151039645075
1761476313640461300,6.04746142578125,0.02035655933022499,0.0064958648253232235,0.008680698051117361
1761476313650495200,6.0574951171875,0.021721417942643165,-0.007546542922034859,0.004761898905877024
1761476313660528000,6.067528076171875,0.03431260396838188,-0.023384017392620443,-0.0022120865589007736
1761476313670561300,6.077561279296875,0.038653848043084145,-0.02333930146805942,-0.009050736939907074
1761476313680595200,6.08759521484375,0.038954876816272736,-0.01162212179787457,-0.010500588688347488
1761476313690628400,6.09762841796875,0.025621347990632055,0.0021243717428296805,-0.01812507395111024
1761476313700661200,6.1076611328125,0.00795768100619316,0.023024171104282138,-0.01817548896409571
1761476313710695200,6.117695068359375,0.014238953232765196,0.028387670898810027,-0.02020460190521553
1761476313720728000,6.12772802734375,0.026819617864489553,0.013166940087080001,-0.021590192778408526
1761476313730762200,6.13776220703125,0.0317845467954874,0.014583017430081963,-0.01596117391549051
1761476313740795100,6.147795166015625,0.03570201250016689,0.013744886105507611,-0.010262998806498945
1761476313750828300,6.157828369140625,0.034953824481368065,0.010821838265657423,-0.0004443462340161204
1761476313760862200,6.1678623046875,0.009958499434590339,0.00776676154397428,-0.0010961246736347675
1761476313770895400,6.177895263671875,0.006205868902802467,0.010974836870282887,0.0025470176016911864
1761476313780929300,6.18792919921875,0.010839958444237708,0.0014447189155966042,0.0036236155909486114
1761476313790962200,6.197962158203125,0.01710837118923664,-0.013273542266711591,0.002434533670544624
1761476313800995000,6.2079951171875,0.02622983527779579,-0.02526851596496999,-0.003689008977357298
1761476313811029200,6.218029296875,0.04103811283111572,-0.031800401951745154,-0.0024267704891972244
1761476313821062400,6.2280625,0.03504851702749729,-0.01905000677630305,0.004934533792734146
1761476313831095300,6.23809521484375,0.016637246546149252,-0.018321619436517358,0.013958967247605323
1761476313841129200,6.248129150390625,0.0071855275899171825,-0.016586027815565466,0.017008271815627814
1761476313851162000,6.258162109375,-0.001219312661886215,-0.006095028939470649,0.013273231739457696
1761476313861196300,6.2681962890625,0.010882628542184828,-0.011478548608720301,0.012596939913090318
1761476313871229200,6.278229248046875,0.01610708519220352,-0.025489172978326678,0.0066708560660481446
1761476313881262300,6.288262451171875,0.03587327741384506,-0.027691213067248463,0.008468206077907233
1761476313891296300,6.298296142578125,0.04755319381356239,-0.02094159267656505,0.013272775081731377
1761476313901329200,6.3083291015625,0.036190672799944874,-0.01965009156130254,0.019304492994025348
1761476313911363000,6.318363037109375,0.020931144347786902,-0.010882117085531353,0.020605985780339686
1761476313921396200,6.328396240234375,0.009997077879309653,-0.009982318701595067,0.021657138801086693
1761476313931429000,6.33842919921875,-0.004688450077176094,-0.0023542349759489295,0.02078092222213745
1761476313941463300,6.34846337890625,-0.004568623089790344,-0.007205401334166526,0.013701850681379437
1761476313951496200,6.35849609375,0.015765724408626555,-0.0021424919214099642,0.005313450107723474
1761476313961529300,6.368529296875,0.03775251528918743,-0.009864975932240486,0.009560640957113354
1761476313971563000,6.37856298828125,0.04718026884794235,-0.010106675733625888,0.0016406068138778208
1761476313981596200,6.38859619140625,0.031027006426453587,-0.01302833533398807,0.0011424297670833766
1761476313991630300,6.39863037109375,0.02908990088403225,-0.015038798373565077,0.0018331519776023924
1761476314001663200,6.408663330078125,0.0017184943556785583,-0.021221505596488714,0.00019628975708037614
1761476314011696000,6.418696044921875,0.00037292496562004086,-0.013998422475159167,-0.00777607736159116
1761476314021730300,6.428730224609375,-0.002345686343312263,-0.015850699278339743,0.0033329986139200626
1761476314031763200,6.43876318359375,0.0033154081583023068,-0.02427344051301479,-0.0007796426029875874
1761476314041796000,6.448796142578125,0.023794717085361478,-0.016072160009294748,-0.008940792025718838
1761476314051830300,6.458830322265625,0.02707154679894447,-0.006767521373555064,-0.004214238427858799
1761476314061863200,6.46886328125,0.027514029869437216,-0.0009950023867189883,-0.007255944211315363
1761476314071897300,6.4788974609375,0.03154547734260559,0.008926233777403831,-0.01871299337428063
1761476314081930200,6.48893017578125,0.01464753403365612,0.019098449027910826,-0.018601897682622073
1761476314091963400,6.49896337890625,0.007454407659173011,0.015286124198138714,-0.01497528641698882
1761476314101997000,6.5089970703125,0.006698036333918571,-0.0025963001035153865,-0.012263671104423701
1761476314112030200,6.5190302734375,0.03394026352465153,-0.015084975602850317,-0.020929993570316583
1761476314122063000,6.52906298828125,0.035145547661185265,-0.011695260099321604,-0.023607487417571245
1761476314132097300,6.53909716796875,0.04069733656942844,-0.0020846973195672034,-0.013220990095566957
1761476314142130200,6.549130126953125,0.04670563707351684,0.0007388356685638427,-0.00393421591008082
1761476314152164000,6.5591640625,0.019945055919885633,0.01842040363587439,0.014946772708557545
1761476314162197000,6.569197021484375,-0.02343698968887329,0.008706599677354097,0.023759974565543233
1761476314172230100,6.579230224609375,-0.045457682839035986,0.00284961727745831,0.03446388553995639
1761476314182264300,6.589264404296875,-0.031304654324054715,-0.01202704933695495,0.043765217973757535
1761476314192297200,6.599297119140625,-0.006084288349747657,-0.0171803404469043,0.021465324289724228
1761476314202330000,6.609330078125,0.03186053464114666,-0.02298508120290935,0.005746982686780392
1761476314212364300,6.6193642578125,0.042909167400002474,-0.01999802821613848,-0.014113755950517951
1761476314222397400,6.6293974609375,0.05909983922243118,-0.009169979405403136,-0.026031591025646776
1761476314232430300,6.639430419921875,0.07275427056550979,-0.011398103783652186,-0.030335535297263412
1761476314242464300,6.64946435546875,0.038518238964676856,-0.01946969349309802,-0.026129973366204647
1761476314252497200,6.6594970703125,0.01220364801287651,-0.023971096565574408,-0.022654406210128215
1761476314262531300,6.66953125,-0.0031990883022546767,-0.03418495900072157,-0.015184874047059566
1761476314272564200,6.679564208984375,-0.005444821402430534,-0.018829130567237732,-0.019241346363630146
1761476314282597400,6.689597412109375,0.006386486166715622,-0.005207505515217781,-0.0113863950795494
1761476314292631000,6.699631103515625,0.018356909945607184,0.002309519051387906,0.013030728220473974
1761476314302664200,6.709664306640625,0.02074701995253563,0.01628646034710109,0.011387107465602456
1761476314312697000,6.719697021484375,0.026274843463301657,0.01884396281018853,0.020769761507306247
1761476314322731300,6.729731201171875,0.013093290328979492,0.01793598111979663,0.02551032536420971
1761476314332764200,6.73976416015625,0.00828968943953514,0.010458850172162056,0.015342019103839992
1761476314342797300,6.74979736328125,0.016059738919138908,0.007779694090783595,0.00418872039411217
1761476314352831200,6.759831298828125,0.019637012884020803,-0.0014367548048496246,0.003559007655829191
1761476314362864000,6.769864013671875,0.03474631921052933,-0.0038358518358319995,-0.004501366539858281
1761476314372898000,6.77989794921875,0.03850128782987594,0.0024731121152639386,-0.00611866554338485
1761476314382931200,6.78993115234375,0.015168343037366866,-0.0010758125379681587,-0.009123637779336422
1761476314392964000,6.799964111328125,0.012940145593881605,0.0014379238486289978,-0.0025429076821543274
1761476314402998300,6.809998291015625,0.002004325559735298,-0.00213766961582005,0.009569755845330655
1761476314413031200,6.82003125,-0.005949263793230056,-0.005021189162880182,0.017158621805440633
1761476314423064300,6.830064208984375,-0.005382862082123756,-0.007795476181805133,0.014168920203857124
1761476314433098200,6.84009814453125,0.011653028392791748,-0.008656842251494526,0.006822192436549812
1761476314443131100,6.850131103515625,0.03768997144699097,-0.006719152187183499,-0.00861070155482739
1761476314453164000,6.8601640625,0.043375031346082685,-0.02049509101808071,-0.01636138874683529
1761476314463198200,6.8701982421875,0.03708849842250347,-0.034436522608995435,-0.016854761754348874
1761476314473231400,6.8802314453125,0.03547287991940975,-0.029483868637681005,-0.004453947201557457
1761476314483265500,6.890265625,0.008562076640129089,-0.020999898735061286,0.0037038777529262005
1761476314493298400,6.90029833984375,-0.0059510173588991164,-0.005814531497657299,0.011170688235945999
1761476314503331600,6.91033154296875,-0.0013256956458091735,0.00529262651540339,0.010579955801181495
1761476314513365500,6.920365478515625,-0.009717676416039467,0.010486688027158379,0.013975041599571704
1761476314523398700,6.930398681640625,0.02066635593175888,0.00929981633014977,0.0053696738069877025
1761476314533431600,6.940431640625,0.04598258349597454,0.010580869116634129,-0.0007771766512654721
1761476314543465700,6.9504658203125,0.054831075862050056,0.003386427567899227,0.01279111077832058
1761476314553498600,6.96049853515625,0.03300678206682205,0.008943404107913375,0.013592709484789519
1761476314563531500,6.970531494140625,0.008318915534019469,0.01527516441270709,0.011326737314183264
1761476314573565400,6.9805654296875,-0.014298574465513228,0.015530527413263917,0.010332666509225964
1761476314583598600,6.9905986328125,-0.0330482831209898,0.010614040733873844,0.005270524281449616
1761476314593631500,7.000631591796875,-0.002849544212222099,0.010317249744385481,-0.008449592708982526
1761476314603665700,7.010665771484375,0.029907062485814092,0.0030438246753066774,-0.015302600408904254
1761476314613698600,7.020698486328125,0.06119242758750915,0.00588562397249043,-0.024163020674791185
1761476314623731700,7.030731689453125,0.0690115769058466,-0.0028766514148563147,-0.02426659064712003
1761476314633765600,7.040765625,0.034795419049263,-0.007808847120031714,-0.025865513743739573
1761476314643798500,7.050798583984375,0.0156722009062767,-0.018326880133524535,-0.012122691731154918
1761476314653832700,7.060832763671875,-0.004655716851353645,-0.031021672664210197,-0.006162102826312184
1761476314663865600,7.070865478515625,-0.01690320400595665,-0.030207287541404365,-0.0002503945644944906
1761476314673898800,7.080898681640625,-0.0023936171382665634,-0.016048121546581386,-0.0007125869824551045
1761476314683932400,7.090932373046875,0.0034171149671077725,-0.004234861090779305,0.002830127125699073
1761476314693965600,7.100965576171875,0.034684359890222546,-0.0007841361150145531,-0.0030180874458514153
1761476314703998500,7.11099853515625,0.0388864877551794,-0.011740779741480946,0.005443615826033055
1761476314714032600,7.12103271484375,0.03620996202230453,-0.007743672929331659,0.0005507292179390788
1761476314724065500,7.1310654296875,0.025616671815514563,-0.017979089609161017,-0.0011932831714861094
1761476314734098700,7.1410986328125,0.012328735697269439,-0.024794980169087648,0.00811604990568012
1761476314744132600,7.151132568359375,0.007251578563451767,-0.02116977540925145,0.015395429791510104
1761476314754165800,7.161165771484375,0.004112696015834808,-0.012645327365770936,0.011413904140982777
1761476314764198700,7.17119873046875,0.0081476506203413,-0.003213847479969263,0.01976648448258638
1761476314774232600,7.181232666015625,0.014281038808822632,0.019175678982585667,0.013955935040302573
1761476314784265500,7.191265380859375,0.00905307502746582,0.022597835450991987,0.013829495649039745
1761476314794298600,7.201298583984375,0.008009703454375267,0.00511602783948183,0.009097462158463895
1761476314804332500,7.21133251953125,0.0068301382809877395,0.0004785042319446802,0.017041790492739527
1761476314814365700,7.22136572265625,0.0021972177833318707,-0.022104864302277562,0.017158621805440633
1761476314824398600,7.231398681640625,0.019257658177614212,-0.032850203265622255,0.016346227710321546
1761476314834432500,7.2414326171875,0.026871055790781972,-0.03788308286629617,0.014333846708294004
1761476314844465400,7.25146533203125,0.006951134312152862,-0.018495222437754272,0.003752320004533976
1761476314854498600,7.26149853515625,0.0008025485545396804,-0.006456921054422855,-0.006369918624404817
1761476314864532700,7.27153271484375,0.007380173379182815,-0.011547449126467107,-0.012856266702711582
1761476314874565600,7.281565673828125,0.01830605654120445,-0.007220964229479432,-0.016623035357706248
1761476314884598500,7.2915986328125,0.03746960669457912,-0.0016421411838382482,-0.02330799301434308
1761476314894632700,7.3016328125,0.04199029898941516,-0.015279036870226264,-0.02100680339988321
1761476314904665600,7.31166552734375,0.04532674993574619,-0.023335502075776456,-0.01949871865818277
1761476314914698500,7.321698486328125,0.028767244800925254,-0.022580811250954864,-0.011936503242980689
1761476314924732700,7.331732666015625,0.017137597283720968,-0.020314400688931346,-0.0012705131261609493
1761476314934765600,7.341765625,-0.0008019640326499939,-0.0005299421582370996,0.0014951887275092303
1761476314944798700,7.351798828125,-0.0065080667197704315,0.01572451561540365,0.014428393123950809
1761476314954832600,7.36183251953125,-0.008178045758605004,0.030378771650791166,0.023343630583304912
1761476314964865800,7.37186572265625,0.0042132337808609005,0.024627003191038964,0.023106314696092155
1761476314974898700,7.381898681640625,0.010929390293359756,0.0009385229591280221,0.006158814890682697
1761476314984932600,7.3919326171875,0.036972763088345524,-0.0103767979118973,-0.003407963546272367
1761476314994965500,7.401965576171875,0.05524257927238941,-0.017550854259729385,-0.01977835758347064
1761476315004998700,7.41199853515625,0.05422375761866569,-0.013894889035448431,-0.019426365808025002
1761476315015032600,7.422032470703125,0.024018004447221755,-0.01466083190664649,-0.01207828633384779
1761476315025065700,7.432065673828125,-0.0021691607326269147,-0.0027964257854968307,0.0015488551435060799
1761476315035098600,7.4420986328125,-0.017157471027970314,-0.0024501696310937405,0.01316889458214864
1761476315045132500,7.452132568359375,-0.004166472029685974,-0.010395721808075905,0.025023765689972787
1761476315055165400,7.46216552734375,0.00030512042641639707,-0.007115969485044479,0.0136212597258389
1761476315065198600,7.472198486328125,0.01405892049074173,-0.011284633471816777,0.003999499698635191
1761476315075232500,7.482232421875,0.03409866895675659,-0.016403803116455673,0.0012793722860515117
1761476315085265700,7.492265625,0.028559739530086517,-0.02239749057330191,-0.0026547157598659395
1761476315095298600,7.502298583984375,0.009250643426179886,-0.018543080167472362,0.00351032794220373
1761476315105332700,7.512332763671875,0.009085223731398582,-0.018116159992292522,0.006268102217745036
1761476315115365600,7.52236572265625,0.007122983747720718,-0.018288520884513854,0.001180953412875533
1761476315125398500,7.5323984375,0.021928338691592216,-0.017908800851926206,-0.005341872484609485
1761476315135432400,7.542432373046875,0.028655601119995114,-0.014105024654790759,-0.004569372008461505
1761476315145465600,7.552465576171875,0.028511808735132215,-0.006988689843565225,0.0033055443514138456
1761476315155498500,7.56249853515625,0.03392038978040218,-0.0009285860870033502,-0.0006708119336515664
1761476315165532700,7.57253271484375,0.02466039400398731,0.0011675824746489524,0.002037661573756486
1761476315175565600,7.582565673828125,0.009125555741786957,-0.013650558885559438,0.010429423148278147
1761476315185598700,7.5925986328125,0.01556990957558155,-0.009919263402745127,0.021000209262315182
1761476315195632600,7.602632568359375,0.0113806411921978,-0.006338847632706165,0.022540442707948385
1761476315205665500,7.61266552734375,-0.00031330373287200925,0.0051079906634986395,0.01887561832377687
1761476315215698400,7.622698486328125,0.005046177473664284,0.01119344805702567,0.014618125276081263
1761476315225732600,7.632732666015625,0.02164309200942516,0.010920111008360982,0.009355674703232944
1761476315235765800,7.642765869140625,0.02776654332578182,0.01553703021928668,0.0005511128104291855
1761476315245798700,7.652798583984375,0.0252098445802927,0.0009003829058259725,-0.007739106352068484
1761476315255832600,7.66283251953125,0.019825228932499883,-0.007041881335526704,-0.004952051183115691
1761476315265865500,7.672865478515625,0.02251987484395504,-0.01069192827567458,-0.005098382584936917
1761476315275898600,7.682898681640625,0.017435703447461127,-0.021757731365039945,-0.012639774407818914
1761476315285932500,7.6929326171875,0.015945172628760336,-0.025346988028660415,-0.017590894009172915
1761476315295965700,7.702965576171875,0.019386837515234946,-0.02134812765084207,-0.01239098727852106
1761476315305998600,7.71299853515625,0.016833645901083945,-0.015944880367815495,-0.01210690964013338
1761476315316032800,7.72303271484375,0.011436755293607711,-0.010684037230163812,-0.005189294005092233
1761476315326065700,7.733065673828125,0.009786065477132797,-0.0007158201191574334,-0.002776296312920749
1761476315336098600,7.7430986328125,0.012478373301029204,0.0043246582660824056,0.003832289905566722
1761476315346132500,7.753132568359375,0.020110475614666938,0.0007307984925806522,0.00003379267174750566
1761476315356165600,7.76316552734375,0.016087795969843863,-0.006066679627820849,-0.0010184563275426625
1761476315366198500,7.773198486328125,0.020137948143482208,-0.024472835542634127,0.0005336867515929042
1761476315376232700,7.783232666015625,0.02207797629535198,-0.025269904204458,-0.00070796560626477
1761476315386265600,7.793265625,0.029102760365605353,-0.018127046712487934,0.00012749883718788624
1761476315396298800,7.803298828125,0.018033084818720818,-0.010156067833304404,0.0061844059896655375
1761476315406332400,7.81333251953125,0.008611176478862762,0.004882803605496883,0.014076821473613381
1761476315416365600,7.823365478515625,0.0015834697991609571,0.013935659437254071,0.021560071634780614
1761476315426398500,7.8333984375,-0.014729951620101928,-0.002493935707584023,0.019821794866397974
1761476315436432600,7.8434326171875,-0.021931261301040648,-0.006343816068768501,0.03105645171664655
1761476315446465500,7.853465576171875,-0.009717676416039467,-0.01942614661231637,0.03667138725528493
1761476315456498700,7.863498779296875,0.011769348248839377,-0.028840163906663656,0.026303320639114825
1761476315466532600,7.87353271484375,0.02953472204208374,-0.027878698463365433,0.0036494441519491373
1761476315476565500,7.8835654296875,0.03025836014151573,-0.022420213861763474,-0.011552289698366075
1761476315486602000,7.89360205078125,0.033413609302043915,-0.01999963565133512,-0.023673812385741618
1761476315496635100,7.90363525390625,0.04735211828351021,-0.022045608395710587,-0.025604981377720833
1761476315506669000,7.9136689453125,0.03869827170670032,-0.0235923263810575,-0.03351562663810327
1761476315516702200,7.9237021484375,0.02570435009896755,-0.021026567546278237,-0.023170411174558102
1761476315526735000,7.933735107421875,0.02093523600101471,-0.008489157534390687,-0.003628529228083789
1761476315536769000,7.94376904296875,0.018581366351246832,0.006408113476634025,-0.0064708217156119645
1761476315546802000,7.953802001953125,0.007233458384871483,-0.001736322273313999,0.0025245317752473056
1761476315556835000,7.9638349609375,0.006790975314378738,0.0015776976455003022,0.01209596812101081
1761476315566869000,7.973868896484375,0.019676175850629807,0.0015561434008181095,0.007963325295690446
1761476315576902100,7.983902099609375,0.02162789444029331,0.007537994289398193,0.0011272504642605781
1761476315586935000,7.99393505859375,0.02929331450164318,0.0027758944541215894,0.0009375731110572815
1761476315596967000,8.003966796875,0.02736146965622902,0.002393690203502774,0.0061267392519861455
1761476315607001000,8.0140009765625,0.02121756007373333,-0.005251417722180485,0.007897420452628284
1761476315617034200,8.0240341796875,0.013430559459328651,-0.0030789690539240835,0.0039016653473488982
1761476315627067100,8.034067138671874,0.00443067592382431,0.0010584230117499827,-0.0034747817047871645
1761476315637101000,8.04410107421875,0.017294249150156975,0.010337634945288299,-0.011514478438626975
1761476315647134000,8.054134033203125,0.022245149555802344,0.014115765244513748,-0.018660715197771786
1761476315657167000,8.0641669921875,0.037380759367346764,0.01533829277679324,-0.011315686197206378
1761476315667201000,8.074200927734376,0.042185529300570485,-0.00011157061569392681,-0.006612714404333382
1761476315677234200,8.084234130859375,0.026347324177622793,-0.007879939594864846,0.00039992257039994
1761476315687267000,8.09426708984375,0.007957096484303474,-0.025400106455385683,0.004079049474559724
1761476315697301200,8.10430126953125,-0.0074526540935039515,-0.021347616194188592,0.008468662735633552
1761476315707334100,8.114334228515625,-0.010305120915174484,-0.028364728414639828,0.011454327482916414
1761476315717367300,8.1243671875,0.014222586619853973,-0.027883593834191558,0.006090097036026418
1761476315727401000,8.13440087890625,0.020648235753178597,-0.02756071855537593,0.01030327601796016
1761476315737434000,8.14443408203125,0.02333236027061939,-0.013554331969469785,0.006285875336453318
1761476315747467000,8.154467041015625,0.02123918738365173,-0.01565795318521559,0.009441508089471608
1761476315757501200,8.164501220703125,0.01870703855752945,-0.01979191118478775,0.003282382671535015
1761476315767534000,8.1745341796875,0.023366262540221214,-0.0077111588992178435,0.0064146528152748935
1761476315777567200,8.184567138671875,0.019183423897624015,-0.007813961686566472,0.011998188568651676
1761476315787600100,8.19460009765625,0.0202384859085083,-0.001426233410835266,0.01073492716718465
1761476315797634000,8.204634033203124,0.013043605968356131,-0.0004500087898224592,0.01679680275572464
1761476315807667000,8.2146669921875,0.012293664383888243,-0.000008694763109087944,0.015815317437704653
1761476315817700000,8.2247001953125,0.008547463592886924,-0.016493454161286353,0.008829367540497332
1761476315827734000,8.234734130859374,0.005551788908243179,-0.006158084238320588,0.00021629136549308894
1761476315837767200,8.24476708984375,0.03233925806879997,0.0023106150299310683,0.0003432056807912886
1761476315847800000,8.254800048828125,0.025294015732407568,0.0015606734454631805,-0.00422315238667652
1761476315857834000,8.264833984375,0.020500936236977577,-0.00470408603772521,0.0037227468501776456
1761476315867867000,8.274866943359376,0.026779870375990868,-0.009676102296635508,0.0008811302160844206
1761476315877900000,8.284900146484375,0.02498421913087368,-0.0009298281960189342,-0.003820033212192356
1761476315887934200,8.294934326171875,0.019142507365345954,-0.005841127243638038,-0.005329104334581643
1761476315897967000,8.304967041015624,0.010162497574090957,-0.010084902293235063,-0.008305690726265311
1761476315908000000,8.315,0.01509235519170761,-0.007227613165974617,-0.006762826932128518
1761476315918034200,8.3250341796875,0.01717500668466091,-0.008332505667954683,-0.0024572204263880845
1761476315928067300,8.3350673828125,0.022262100690603255,-0.016512451122701166,-0.00196430407660082
1761476315938100200,8.345100341796876,0.028100889846682547,-0.03079100571349263,-0.01228480522399768
1761476315948132900,8.3551328125,0.015246084448695182,-0.03103971977755427,-0.014857267794199287
1761476315958167000,8.3651669921875,0.020949264526367185,-0.03544767241291701,-0.0056932797381654375
1761476315968200200,8.3752001953125,0.01258183367550373,-0.028798662852495906,-0.001531155090034008
1761476315978233000,8.385233154296875,0.01617722781896591,-0.015281959479674695,0.004747048396617174
1761476315988267300,8.395267333984375,-0.002542085698246956,0.002024126238748431,0.010652436515502631
1761476315998300200,8.405300048828124,-0.005866261684894561,0.010071750550717115,0.005702960881963372
1761476316008333300,8.415333251953125,0.008011457020044327,-0.00028210487700998783,-0.0017787183766253291
1761476316018367000,8.425366943359375,0.03029109336733818,0.0026972031947225333,-0.0012103439041413367
1761476316028400000,8.435400146484374,0.05304945314228535,-0.0003437719363719225,-0.0019069478661753235
1761476316038433000,8.44543310546875,0.06533318065404892,-0.006383198231086134,-0.0071007719159126275
1761476316048467200,8.45546728515625,0.03512333582937717,0.008101254195347428,-0.00432927964227274
1761476316058500000,8.4655,-0.00796644883453846,0.019148864040896295,0.007813249300513416
1761476316068533200,8.475533203125,-0.03251286107003688,0.017093392815813423,0.022411610430199652
1761476316078566100,8.485566162109375,-0.042401217877864834,0.02128770270049572,0.02711156828207895
1761476316088600000,8.49560009765625,-0.02793430110812187,0.0012489040825515985,0.03207288048388436
1761476316098633000,8.505633056640624,0.0026671733826398847,-0.027828502646088597,0.02726266719056293
1761476316108666000,8.515666015625,0.023850246664881704,-0.02950637273043394,0.009679792091064154
1761476316118700000,8.525699951171875,0.04537292716503143,-0.026030294117704033,-0.009928707084525376
1761476316128733200,8.535733154296874,0.05584229873120784,-0.012171280113235115,-0.018368527318164705
1761476316138766000,8.54576611328125,0.035793197914958,-0.009112403999269008,-0.030195724967774003
1761476316148800300,8.55580029296875,0.02637187409698963,-0.00931581761687994,-0.031965949510689824
1761476316158833200,8.565833251953125,0.017557868522405623,-0.015295476548373698,-0.024092622319702058
1761476316168866000,8.575865966796876,0.027591186758875844,-0.019714462034404277,-0.026093641677498815
1761476316178902300,8.58590234375,0.02867021416723728,-0.018766732855513692,-0.02591866870308295
1761476316188935200,8.59593505859375,0.033809915143251414,-0.022212416329979896,-0.02560984021592885
1761476316198968000,8.605968017578125,0.03145429192781448,-0.013438085178658365,-0.01533120544888079
1761476316209002000,8.616001953125,0.021903204250335692,-0.00934964682124555,0.006402688382845372
1761476316219035100,8.62603515625,0.0009580313771963119,0.010113689996302128,0.021609975191112605
1761476316229068000,8.636068115234375,-0.010279401952028274,0.02081453223079443,0.039262134400848296
1761476316239102200,8.646102294921874,-0.014046061009168625,0.021870982481166718,0.03256588816521689
1761476316249135000,8.656135009765626,0.019904139387607572,0.013145385842397809,0.03357367696827277
1761476316259168300,8.666168212890625,0.04728314470052719,0.005353489857167005,0.01151573881395161
1761476316269201200,8.676201171875,0.05476619393229484,-0.012122253339737652,-0.0017958521745167673
1761476316279235000,8.686235107421876,0.05612988350093365,-0.01337364164032042,-0.011146284447051584
1761476316289268000,8.69626806640625,0.038189737662672994,-0.01737557075805962,-0.02023152644475922
1761476316299301000,8.706301025390625,0.013507131826877593,-0.026156331650167702,-0.006779394474439322
1761476316309335000,8.7163349609375,-0.006845920372009277,-0.0124877987165004,-0.0018520576074719428
1761476316319368200,8.7263681640625,-0.010157821398973465,-0.006993731344863772,0.015877861279901116
1761476316329401000,8.736401123046875,-0.011242694026231764,-0.006612111616134643,0.017442023590393364
1761476316339435000,8.74643505859375,-0.0038011458486318585,0.0021329934407025575,0.012220745278149843
1761476316349468000,8.756468017578126,0.02206979298889637,-0.008260682540759444,-0.0021960487395524977
1761476316359501000,8.7665009765625,0.03883504982888698,-0.01204392740651965,-0.01209563932744786
1761476316369534000,8.776533935546874,0.04857143094539642,-0.029505130621418355,-0.012798252905160188
1761476316379568000,8.786568115234376,0.039021512311697,-0.027411300147324798,-0.01063831665860489
1761476316389601000,8.79660107421875,0.014799509724974631,-0.03366583049744368,-0.009589611323270946
1761476316399634200,8.80663427734375,0.012420505633950233,-0.016418927620351315,-0.004051905739307403
1761476316409668000,8.816668212890624,0.0012070377022027968,-0.001536488852277398,0.015106292385514825
1761476316419701000,8.826700927734375,-0.010185293927788735,0.008412365971133113,0.01519260069578886
1761476316429734000,8.83673388671875,-0.0013917466193437576,0.010945099319145083,0.022396997382957487
1761476316439768000,8.84676806640625,0.002031213566660881,0.0025348522398620844,0.01575312065538019
1761476316449801200,8.85680126953125,0.018448095360398292,-0.0034125849224627015,0.014058536898251622
1761476316459834000,8.866834228515625,0.03682897070348263,-0.003658011050894856,0.004137775658164173
1761476316469867000,8.876866943359374,0.05553191760778427,0.0038738457586616273,0.0008100925401784479
1761476316479897900,8.88689794921875,0.041026422393321986,-0.0026969109337776896,-0.008084467457327991
1761476316489930800,8.8969306640625,0.018731003955006598,-0.006948650094121694,0.0012081702133640646
1761476316499963600,8.906963623046876,0.01137888762652874,-0.004789572364091873,0.004347673815488815
1761476316509997800,8.916997802734375,-0.008408347383141517,-0.001688391478359699,0.007969006117805839
1761476316520030700,8.92703076171875,-0.00649111558496952,-0.009044891721010207,0.005762582114711403
1761476316530064000,8.93706396484375,0.01607493648827076,-0.014042407747358083,-0.008334131369460374
1761476316540096800,8.9470966796875,0.022342764711380005,-0.006577697889879345,-0.019119857142120597
1761476316550131000,8.957130859375,0.03866729204654693,-0.002427592473104596,-0.010049721381999551
1761476316560163800,8.967163818359374,0.03568739945292473,-0.015279986718297004,-0.008079626885429025
1761476316570197000,8.977197021484375,0.026740707409381864,-0.013680004175752401,-0.016646251836512235
1761476316580230700,8.987230712890625,0.011646014130115508,-0.01037504434622824,-0.013341072811279445
1761476316590263800,8.997263916015624,0.0031207623690366745,-0.007298267249390483,-0.0006536598694510757
1761476316600296700,9.007296630859376,0.0031108254969120022,-0.003295096022635698,0.0018945815749466417
1761476316610331000,9.017330810546875,0.013875965139269829,-0.005391776040941477,0.01289250705987215
1761476316620363800,9.02736376953125,0.019091069439053535,0.0015505904428660868,0.013051460481248795
1761476316630397000,9.03739697265625,0.024163550397753714,-0.0025310528475791213,0.012203173088841139
1761476316640429800,9.047429931640625,0.021622049221396444,-0.004145940698310733,-0.00004336421769112348
1761476316650463700,9.057463623046875,0.02867021416723728,-0.00798413062170148,-0.006534004878625274
1761476316660496600,9.06749658203125,0.014160042777657507,-0.000720130968093872,-0.013482033918239175
1761476316670529800,9.07752978515625,0.008345803540945053,-0.0049032618716359135,-0.013807557811867445
1761476316680562700,9.087562744140625,0.019884850165247915,-0.00787862442061305,-0.005339497864432633
1761476316690596900,9.097596923828124,0.026634908947348594,0.001935790368169546,0.0025229060737416145
1761476316700629800,9.107629638671876,0.01542787075638771,0.0013321984518319368,0.007061974275484681
1761476316710663000,9.117662841796875,-0.0028238252490758895,0.0020647505100816485,0.01947510032057762
1761476316720696600,9.127696533203125,-0.011808511215448379,0.006643968059122562,0.032407519265729934
1761476316730729700,9.137729736328126,-0.024535890841484068,0.011966185995191335,0.030075167328026144
1761476316740762600,9.1477626953125,-0.02530921330153942,-0.007622749963402748,0.031017343548964706
1761476316750796800,9.157796875,0.006516250026226043,-0.018079919635131954,0.030905736400652674
1761476316760829700,9.16782958984375,0.02891688240468502,-0.026602979439124465,0.01343413965590298
1761476316770862800,9.17786279296875,0.05180734412670135,-0.019744857172667978,-0.009877798881195485
1761476316780895700,9.187895751953125,0.04854045128524303,-0.02221826154887676,-0.0107237847186625
1761476316790930000,9.197929931640624,0.03855798645317554,-0.017347805968299507,-0.025850352707225827
1761476316800962600,9.207962646484376,0.0255845231115818,-0.026554391057044265,-0.02831383847761899
1761476316810995700,9.21799560546875,0.0003314239114522934,-0.026087285001948474,-0.022359313987381755
1761476316821029600,9.228029541015625,0.014887188008427619,-0.0133195003002882,-0.007170768412202596
1761476316831062800,9.238062744140626,0.0107183778911829,0.003942527080699801,-0.007992660988029091
1761476316841095700,9.248095703125,0.009689619365334511,0.016122355826571583,0.0033172895881347355
1761476316851128800,9.25812890625,0.018092706051468847,0.015178060713782906,0.015437643231730908
1761476316861162800,9.268162841796874,0.024684359401464462,0.025342823310196397,0.022727106120157985
1761476316871196000,9.27819580078125,0.018409516915678978,0.020641879077628253,0.023082513695396482
1761476316881228800,9.288228759765625,0.004492050722241401,0.007645911643281578,0.0169852197336033
1761476316891262700,9.2982626953125,0.018241759133338926,-0.003098039080575108,0.012835004718974231
1761476316901295600,9.308295654296876,0.023774843341112135,-0.009502572360634804,0.013647745873965321
1761476316911328800,9.318328857421875,0.029018004691600797,-0.006852569308504462,-0.005123791020829231
1761476316921361700,9.328361572265624,0.02916998038291931,-0.002261515191197395,-0.015922084014117717
1761476316931395800,9.338395751953126,0.02633621826171875,0.0059451721400022505,-0.021247918679378926
1761476316941428700,9.3484287109375,0.020823592320084572,0.0008588087864220142,-0.0138042150773108
1761476316951462000,9.3584619140625,0.020098785176873205,-0.007216288054361939,-0.005552556093223393
1761476316961495800,9.368495849609374,0.012777648508548735,-0.02392616144530475,-0.0009510171145200729
1761476316971528700,9.37852880859375,0.008437573477625847,-0.020225845622643828,0.006558116406574845
1761476316981561600,9.3885615234375,-0.010271803167462349,-0.017241715245321393,0.011573898741975426
1761476316991594800,9.3985947265625,0.015156068077683448,-0.01829780016951263,0.0072357234071940175
1761476317001629000,9.40862890625,0.011415712505578993,-0.02506597913019359,0.0024914332232438027
1761476317011661800,9.418661865234375,0.02143967839181423,-0.025145985563844443,-0.0038471404148265717
1761476317021694700,9.42869482421875,0.012449731728434561,-0.03173486243486404,-0.0008223309672437608
1761476317031727900,9.438727783203126,0.012004326048493384,-0.038008608942106364,-0.0003758475750684738
1761476317041761800,9.44876171875,0.018445757272839546,-0.024336788072809576,0.0022943397485651073
1761476317051794700,9.458794677734375,0.021599837389588355,-0.01962576083764434,0.0038449849903583523
1761476317061827600,9.46882763671875,0.025199907708168028,0.0005819646064192057,0.011107395475078373
1761476317071861800,9.47886181640625,0.021917817297577857,0.00870331174172461,0.010219305795244871
1761476317081895000,9.48889501953125,0.019379823252558707,0.008395634032040834,-0.0001616751014254987
1761476317091927800,9.498927734375,0.01295826577246189,-0.00033631928227841854,0.009186364284623414
1761476317101960700,9.508960693359375,0.008932663518190383,0.00038549218624830245,0.014686459538247435
1761476317111994600,9.51899462890625,0.0059463411837816236,0.0037182898707687853,0.008911017941962926
1761476317122027800,9.52902783203125,0.014916414102911947,-0.001183802957087755,0.014175130748935044
1761476317132060700,9.539060791015626,0.005029226338863373,-0.009775617148354648,0.016954769796412437
1761476317142094800,9.5490947265625,0.0038128362864255903,-0.009616334933415054,0.01319919838886708
1761476317152127700,9.559127685546875,0.021155016231536865,-0.014339198736846446,-0.0046396607656963166
1761476317162161000,9.569160888671876,0.03895955299139023,-0.013234160104393959,-0.013210980158206074
1761476317172193800,9.57919384765625,0.04209902006089687,-0.010851137425377964,-0.021040011549741028
1761476317182228000,9.58922802734375,0.03388005777001381,0.0025268881291151046,-0.009614490036200731
1761476317192260900,9.5992607421875,0.021613865914940834,0.005023088859021663,-0.010086820255685598
1761476317202293800,9.609293701171875,0.007405307820439338,-0.007875336484983562,-0.011054149184189736
1761476317212326700,9.61932666015625,-0.005147884282469749,-0.0167098003257066,-0.002600318691506982
1761476317222360800,9.62936083984375,0.005934066224098205,-0.02251446801647544,-0.012572864917758851
1761476317232393700,9.639393798828126,0.030197569864988325,-0.019860665572062133,-0.00413613169034943
1761476317242427000,9.649427001953125,0.028111411240696906,-0.011703151144832372,0.0025532829456962644
1761476317252459800,9.659459716796874,0.027214754661917685,0.00563530247323215,0.006749985716864466
1761476317262494000,9.669493896484376,0.011348492488265038,0.005747238415107131,-0.0021311120108701287
1761476317272526800,9.67952685546875,-0.004202712386846542,-0.0029059505745768544,0.008140398895647376
1761476317282559700,9.689559814453125,0.006888005948066711,-0.007870806440338492,0.00737440122552216
1761476317292593700,9.69959375,0.02066284880042076,-0.021982480031624434,-0.000005370294861495495
1761476317302626800,9.709626708984375,0.03504910154938698,-0.01928673814162612,0.0047828138297423715
1761476317312659700,9.71965966796875,0.034306758749485015,-0.009527852932363749,0.01377491591759026
1761476317322692900,9.72969287109375,0.012612813335657119,-0.003465191892534494,0.018921886884607372
1761476317332726800,9.739726806640626,-0.007894552642107009,0.014460194768011568,0.018472353018820286
1761476317342760000,9.749760009765625,-0.02227788278162479,0.02986972615011036,0.031737200522422786
1761476317352792800,9.759792724609374,-0.03278057209551334,-0.005374824906140566,0.02693306991001591
1761476317362826800,9.76982666015625,-0.0036240357160568235,-0.03340798327885568,0.013385478208586573
1761476317372859600,9.779859619140625,0.04992927529513835,-0.0128233142811805,-0.0017139460447244345
1761476317382892800,9.789892822265625,0.04946282682716846,-0.013408786018937826,-0.011437266750261186
1761476317392925700,9.79992578125,0.03298983093202114,-0.03871602655909955,-0.009754921420197933
1761476317402960000,9.8099599609375,0.000090016371011734,-0.05151413333378732,-0.017495653473772108
1761476317412992800,9.81999267578125,0.007305354577302932,-0.024804551715031264,-0.01947117306413129
1761476317423026000,9.83002587890625,0.022722119417786596,-0.0114846130233258,-0.017630586698744444
1761476317433058800,9.840058837890625,0.010887889239192008,0.0026868279311805963,-0.009906604850571602
1761476317443092700,9.8500927734375,0.006390577819943428,0.004068637678399682,-0.0013871069768443703
1761476317453125600,9.860125732421874,0.0072784665703773494,0.00439786963276565,0.0023065599093213675
1761476317463158800,9.87015869140625,0.025087094983458517,0.002920125230401754,-0.005518617291003465
1761476317473191700,9.880191650390625,0.03423895421028137,0.014107508872821927,-0.012385964043531567
1761476317483229200,9.890229248046875,0.030813071414828298,0.0072149728801101445,-0.020665022491198032
1761476317493262000,9.900261962890625,0.032470190972089766,-0.0012836831349879502,-0.004586085681244731
1761476317503295200,9.910295166015626,0.026046295404434202,-0.0054131841551512475,0.0034021548599936064
1761476317513329200,9.9203291015625,0.024262919119000432,-0.01017784127369523,0.0016360950355418025
1761476317523362000,9.930362060546875,0.016029928302764892,0.003163505532220006,-0.0016836605043150483
1761476317533395000,9.94039501953125,0.008228899163007735,0.013737141190469265,0.00046113297203555703
1761476317543428000,9.950427978515625,0.010151391658186912,0.01631809759438038,-0.007999620451778173
1761476317553462000,9.9604619140625,0.029306173983216284,0.009103416975215077,-0.006704703536722809
1761476317563495200,9.9704951171875,0.03499824814498424,0.002197948435693979,-0.007018920585047453
1761476317573528000,9.980528076171876,0.030680384945869443,-0.0035430794343352316,-0.002368939354736358
1761476317583561200,9.990561279296875,0.024856793358922002,-0.015556246376410126,-0.0032691395974718033
1761476317593595100,10.00059521484375,0.017379004824161527,-0.02833469860255718,0.0017603607360273598
1761476317603628000,10.0106279296875,0.00720306324660778,-0.030747020441293713,0.0016952778768725692
1761476317613661000,10.020660888671875,0.0007598784565925597,-0.01799070698171854,0.008238269779551773
1761476317623694000,10.030694091796875,-0.005699088424444198,-0.02404050853997469,-0.0010333616357296705
1761476317633728000,10.04072802734375,-0.0018377368211746215,-0.029265622777119277,0.009690404816623777
1761476317643761200,10.05076123046875,0.020594459739327428,-0.03575155073031783,-0.0006591032295487821
1761476317653794000,10.0607939453125,0.031205870124697683,-0.02585946759544313,-0.006134922558441757
1761476317663827200,10.0708271484375,0.033742110604047776,-0.012734393888711929,-0.0015811499779112637
1761476317673861000,10.080861083984376,0.040186464437842365,-0.010387100110203027,-0.0007055544534698129
1761476317683894300,10.090894287109375,0.025835867524147033,-0.006385901644825935,-0.0035715931427665053
1761476317693927200,10.10092724609375,0.017030629777908323,-0.00659939826503396,0.006616623394470661
1761476317703961000,10.110961181640626,-0.0030120412975549694,-0.0030485008504241703,0.020141181280184536
1761476317713994000,10.120993896484375,0.0031090719312429427,-0.01406608088389039,0.020209332879260182
1761476317724027100,10.131027099609375,-0.0031879823863506314,-0.007864888156205415,0.024805592894647267
1761476317734060000,10.14106005859375,0.004557517173886299,-0.00014152736254036425,0.02837661978183314
1761476317744094200,10.15109423828125,0.007528641939163207,0.008107903131842613,0.01640707278577611
1761476317754127000,10.161127197265625,0.017977555239200593,0.011684008052945137,0.015116813779529184
1761476317764160300,10.17116015625,0.017795184409618376,0.0013945230983197687,0.005466795772220939
1761476317774193200,10.181193115234375,0.010887304717302322,-0.00898570887967944,-0.0030659999744966624
1761476317784227000,10.19122705078125,0.03273322582244873,-0.01222417934425175,-0.01311265261657536
1761476317794260000,10.201260009765624,0.037974049085378644,-0.009155074097216128,-0.021802392490673807
1761476317804293000,10.211293212890626,0.02510930681526661,-0.004002878965809941,-0.016990115104429424
1761476317814326000,10.221325927734375,0.020630700096487996,-0.004057458697259426,-0.015688092595152556
1761476317824360200,10.231360107421875,0.021235095730423925,-0.006256576176732778,-0.012259579451195894
1761476317834393000,10.24139306640625,0.007922609692811965,-0.010531477016955613,-0.013211071489751338
1761476317844426200,10.25142626953125,0.015844050341844558,-0.008860182803869247,-0.013478398922737687
1761476317854459100,10.261459228515625,0.020782675787806508,-0.011440043229237197,0.002938208876363933
1761476317864493000,10.2714931640625,0.024064766198396682,-0.00518346705250442,0.009511687248852103
1761476317874526000,10.28152587890625,0.01222936697602272,-0.0071431497529149054,0.008725852367095648
1761476317884559000,10.29155908203125,-0.0057446811318397515,-0.0017751199137419462,0.00711361313117668
1761476317894592000,10.301592041015626,0.0020154314756393433,-0.01371098383590579,0.007263269001245499
1761476317904626200,10.311626220703126,0.012476619735360146,-0.024430019314214586,-0.0049024581540375945
1761476317914659000,10.3216591796875,0.04211421763002872,-0.03644764323569834,-0.010563899715524166
1761476317924692200,10.331692138671874,0.05036006792783737,-0.00841119692735374,-0.007219119332265108
1761476317934725000,10.34172509765625,0.03601473171114921,0.003264920080080628,0.0028423472864553333
1761476317944759000,10.351759033203125,0.00012099603116512298,0.015471271506696938,0.01135775350695476
1761476317954792000,10.3617919921875,-0.01812134762406349,0.02096307385601103,0.031220063046831635
1761476317964825000,10.3718251953125,-0.04102992952466011,0.015463818852603435,0.03855827871412039
1761476317974859000,10.38185888671875,-0.035392215898633,-0.010103022471815347,0.037287546392250806
1761476317984892200,10.39189208984375,-0.005969722059369087,-0.03793780872821808,0.027631427437718955
1761476317994925000,10.401925048828126,0.026754735934734344,-0.04224792701229453,0.005963876840472221
1761476318004958200,10.411958251953125,0.04948854579031467,-0.04014072559997439,-0.005608597129397094
1761476318014992000,10.421991943359375,0.05640168617963791,-0.03696633334755897,-0.020756591498479245
1761476318025025000,10.43202490234375,0.04477145414054393,-0.022937807995080946,-0.02949354978147894
1761476318035058000,10.442057861328125,0.026557752057909965,-0.014533406134694813,-0.02785409374507144
1761476318045091000,10.452091064453125,0.02463993573784828,-0.002095145648345351,-0.012736585845798253
1761476318055125000,10.462125,0.015375848308205604,0.008972045680508018,0.0021724121356382965
1761476318065158100,10.472158203125,-0.0016840075641870497,0.014557225401699542,0.006321933030523359
1761476318075191000,10.48219091796875,0.0089449384778738,0.00920658508874476,0.00787193895149976
1761476318085224200,10.49222412109375,0.01629062506556511,-0.003926525793969631,-0.00021499445755034685
1761476318095257000,10.502257080078126,0.04862988313436508,-0.02234502973370254,-0.00920072160353884
1761476318105291000,10.512291015625,0.0510603251516819,-0.01951148680821061,-0.006653722268156707
1761476318115324000,10.522323974609375,0.028642157116532323,-0.009494023727998136,-0.0039425636133179065
1761476318125357000,10.532357177734376,0.01726911470890045,-0.00410042105615139,0.006280833835154771
1761476318135391000,10.542390869140625,-0.011032266145944594,0.0022247633773833514,0.018613569854106754
1761476318145424100,10.552424072265625,-0.004320785808563233,-0.006488996693119406,0.010785506576951593
1761476318155457000,10.56245703125,0.0026928923457860943,0.0012798106774687765,-0.0016351451874710619
1761476318165490200,10.572490234375,0.02977028436362743,0.004595876422896981,-0.01030300202332437
1761476318175524000,10.582524169921875,0.04684066163003445,0.008319792316853999,-0.004929218296799809
1761476318185557200,10.59255712890625,0.04626081591546535,-0.002693111541494727,-0.011024594296142458
1761476318195590100,10.602590087890626,0.03594517360627651,-0.01908383598066866,0.0068917140088044105
1761476318205623000,10.612623046875,0.013220131579041481,-0.03391067210398614,0.013710289716161787
1761476318215657000,10.622656982421875,-0.004126724541187286,-0.046747357323393225,0.01810041443388909
1761476318225690000,10.632690185546876,-0.014158289211988449,-0.03984086587056517,0.00943962665963918
1761476318235723000,10.642722900390625,-0.003850830209255218,-0.02869425262995064,0.013323317958880214
1761476318245756200,10.652756103515625,0.008688917890191078,-0.019638912580162284,0.0129292954063043
1761476318255790000,10.6627900390625,0.02393675590455532,-0.010654007418081163,0.0037996662775985892
1761476318265823200,10.6728232421875,0.027088497933745383,-0.018515680703893304,-0.0015436675117351114
1761476318275856100,10.682856201171875,0.050910103026032445,-0.019514701678603887,-0.004390471777599304
1761476318285889000,10.692888916015624,0.03821194949448108,-0.011747794004157186,-0.012309263811819255
1761476318295923000,10.7029228515625,0.02087327668070793,-0.016124182457476852,-0.004027775945048779
1761476318305956000,10.7129560546875,0.0057733227044343945,-0.005115224121883511,-0.0015624818100593984
1761476318315989000,10.722989013671874,0.01955751790702343,0.0014199498005211353,-0.010341032478772104
1761476318326022100,10.733022216796876,0.023771920731663704,0.013204349488019943,-0.004931026661396026
1761476318336055000,10.743054931640625,0.02874211035966873,0.00021320435926318166,-0.003876348243001848
1761476318346089200,10.753089111328125,0.03379705566167831,0.006867255420982837,-0.008231502112047746
1761476318356122000,10.7631220703125,0.17426351097226142,0.040916824539005754,-0.01766400491115637
1761476318366155300,10.7731552734375,0.17060557298660278,0.011715645300224422,-0.019696962910331784
1761476318376189000,10.78318896484375,-0.04206219518184662,-0.039933804851025344,0.002535473294369876
1761476318386222000,10.79322216796875,-0.11118132411539554,-0.04887896252460777,0.025257309584366155
1761476318396255000,10.8032548828125,-0.14668109204173088,-0.04461136820800602,0.019252470545843243
1761476318406288100,10.8132880859375,-0.0970446622133255,-0.0006453121662139892,0.028932189571671187
1761476318416321000,10.823321044921874,0.011105915904045104,0.03984707641564309,0.02753636043225415
1761476318426355200,10.833355224609376,0.028820436292886734,0.03221329360157251,-0.0001537840559147298
1761476318436388000,10.84338818359375,-0.057309448674321174,-0.0001483224295079708,-0.00593595678708516
1761476318446421200,10.853421142578124,-0.1704997745245695,-0.05522723557278514,0.0024640702922828495
1761476318456454100,10.8634541015625,-0.08399111937284469,-0.08815415733642876,0.002348517621215433
1761476318466488000,10.873488037109375,0.14365268413126467,0.015842004515230653,0.018066694827377796
