time,seconds_elapsed,z,y,x
1761475292456344800,0.0483447265625,-0.0009299649973399937,-0.0008188902866095304,0.00241659302264452
1761475292466321700,0.05832177734375,-0.0008155497489497066,0.0001553981564939022,-0.00008010030433069915
1761475292476298800,0.068298828125,0.0016721090069040656,0.00035992893390357494,-0.00026705418713390827
1761475292486276900,0.07827685546875,-0.00189880165271461,-0.0019734015222638845,0.0022283911239355803
1761475292496253700,0.088253662109375,-0.001634083455428481,-0.00014514150097966194,-0.00045580879668705165
1761475292506230800,0.098230712890625,0.000505515665281564,-0.0004915709141641855,-0.002470298670232296
1761475292516207600,0.10820751953125,-0.0004399064928293228,0.0009659770876169205,-0.001831672852858901
1761475292526184700,0.118184814453125,0.0011694268323481083,0.00041413726285099983,0.00011441708920756355
1761475292536161800,0.128161865234375,0.0018807570450007915,-0.00005591078661382198,-0.0021852224599570036
1761475292546139600,0.1381396484375,-0.0005299476906657219,-0.002985779894515872,-0.0012583420611917973
1761475292556116700,0.14811669921875,-0.0008521901909261942,-0.0015242371009662747,0.0020586249884217978
1761475292566093600,0.158093505859375,0.000814923900179565,0.000025581568479537964,-0.00005221848550718278
1761475292576071000,0.16807080078125,-0.0019435782451182604,-0.0010580585803836584,0.002241295762360096
1761475292586048000,0.178048095703125,0.000010149437002837658,-0.0018427057657390833,0.001714424230158329
1761475292596024800,0.18802490234375,-0.0016442062333226204,-0.0007572012254968286,-0.0012699139770120382
1761475292606002700,0.198002685546875,-0.00006379286060109735,-0.0009638984920457006,-0.00023113394854590297
1761475292615979800,0.207979736328125,-0.0020100309047847986,-0.0012070451630279422,-0.0032666048500686884
1761475292625956900,0.217956787109375,0.00010810024105012417,-0.00001689302735030651,-0.002477009315043688
1761475292635934000,0.227933837890625,-0.000060744176153093576,-0.0007295549148693681,-0.0008713896386325359
1761475292645910800,0.237910888671875,-0.0014137325342744589,0.0016163075342774391,-0.0009215748868882656
1761475292655888000,0.247887939453125,0.0007138669025152922,-0.001564838457852602,-0.0024241304490715265
1761475292665866000,0.257865966796875,-0.0015510579105466604,-0.0007103867828845978,0.001329353079199791
1761475292675842800,0.2678427734375,0.0020066590514034033,-0.0002339472994208336,0.0002731434069573879
1761475292685820000,0.27781982421875,-0.0004195643123239279,-0.000493916217237711,-0.00041169169708155096
1761475292695796700,0.287796630859375,0.0022089756093919277,-0.00042973412200808525,-0.0021544641349464655
1761475292705773800,0.29777392578125,-0.0012236606562510133,-0.0015700185904279351,0.000052500254241749644
1761475292715750700,0.307750732421875,0.0009406903991475701,-0.0011926486622542143,-0.003232508897781372
1761475292725727700,0.317727783203125,-0.0006218169583007693,0.00009929155930876732,-0.0004765705089084804
1761475292735706400,0.327706298828125,-0.0016125129768624902,0.0002769243437796831,-0.002818820532411337
1761475292745683500,0.337683349609375,-0.0026421903166919947,-0.0008471430046483874,-0.0011098202085122466
1761475292755660300,0.347660400390625,-0.0010120694059878588,0.0009081463795155287,0.00008460762910544872
1761475292765637400,0.357637451171875,0.00044651885400526226,-0.0015121923061087728,0.0002552299411036074
1761475292775614500,0.367614501953125,-0.0010829344391822815,0.0018577717710286379,0.00013698557449970394
1761475292785591300,0.37759130859375,-0.0017772468272596598,0.00016728276386857033,-0.0024265958927571774
1761475292795569400,0.3875693359375,0.0002741862554103136,-0.0006521720206364989,0.0025119700003415346
1761475292805546500,0.39754638671875,-0.0017405884573236108,-0.0033710524439811707,0.0012828954495489597
1761475292815523300,0.4075234375,0.00003440846921876073,-0.001925488468259573,0.0018301750533282757
1761475292825500400,0.41750048828125,0.002159331226721406,-0.001484556240029633,0.0040330649353563786
1761475292835477200,0.427477294921875,-0.0007435144507326186,-0.00014312192797660828,0.0003147596726194024
1761475292845454300,0.437454345703125,-0.000002258166205137968,-0.002932475646957755,0.00007013167487457395
1761475292855432400,0.447432373046875,0.001255819108337164,0.00025080074556171894,0.0009119568858295679
1761475292865409300,0.4574091796875,-0.0007615603972226381,0.001900148345157504,-0.0010855303844437003
1761475292875386400,0.467386474609375,0.0010371385142207146,-0.00270552234724164,0.001042601652443409
1761475292885363500,0.477363525390625,0.0018662993097677827,0.0007182701956480742,0.00047611218178644776
1761475292895340500,0.487340576171875,-0.0015577268786728382,-0.0016045388765633106,0.0015472355298697948
1761475292905317400,0.4973173828125,-0.000271843746304512,0.0016955318860709667,0.00007178008672781289
1761475292915295500,0.50729541015625,0.0002535979438107461,0.0011053753551095724,0.004270519595593214
1761475292925272600,0.5172724609375,-0.0011955604422837496,0.0007570968009531498,0.0007245081360451877
1761475292935249400,0.52724951171875,-0.0003241741796955466,-0.0016043281648308039,0.001731183030642569
1761475292945226500,0.5372265625,-0.000041028368286788464,-0.0006076524732634425,-0.0016045516822487116
1761475292955203300,0.547203369140625,0.0012767037842422724,-0.001471848227083683,-0.0009731161990202963
1761475292965180400,0.557180419921875,-0.002000772627070546,-0.002820520428940654,0.001655244966968894
1761475292975158500,0.567158447265625,0.0006661169463768601,-0.0010860036127269268,0.0032566036097705364
1761475292985135400,0.57713525390625,-0.00033159716986119747,0.0011711751576513052,0.0002637812285684049
1761475292995112400,0.587112548828125,0.0010817423462867737,-0.0008120808051899076,0.0028177525382488966
1761475293005089500,0.597089599609375,-0.00126768765039742,-0.00159543682821095,0.00010943407687591389
1761475293015066400,0.60706640625,-0.002585952403023839,-0.001703561283648014,0.00033154169796034694
1761475293025043500,0.61704345703125,-0.001725765410810709,0.0023312149569392204,-0.0011173720704391599
1761475293035021300,0.627021240234375,-0.0011321469210088253,0.0005977633409202099,0.0012190191773697734
1761475293044998400,0.636998291015625,0.001823175000026822,-0.0016257669776678085,-0.00006464964826591313
1761475293054975500,0.6469755859375,0.0013605840504169464,-0.002391958376392722,0.0019332538358867168
1761475293064952300,0.656952392578125,0.0003809742338489741,-0.000011170050129294395,-0.001061483402736485
1761475293074929400,0.666929443359375,-0.0011277064913883805,0.00020774174481630325,-0.00003323690907564014
1761475293084906200,0.67690625,-0.001475354190915823,-0.0003791698254644871,-0.00138344697188586
1761475293094884400,0.68688427734375,-0.0011445896234363317,0.0012112699914723635,-0.002738197101280093
1761475293104861400,0.696861328125,-0.0008070145267993212,-0.0005029995227232575,-0.00005857428186573088
1761475293114838300,0.70683837890625,-0.00045121624134480953,-0.0016660019755363464,0.0017880615778267384
1761475293124815400,0.7168154296875,-0.002126973820850253,-0.0001156022772192955,-0.0017651155358180404
1761475293134792400,0.72679248046875,-0.00021402520360425115,-0.0010714108357205987,-0.0023155908565968275
1761475293144769500,0.73676953125,-0.00009501288877800107,-0.0013921980280429125,0.003763061948120594
1761475293154747400,0.746747314453125,0.0014040805399417877,0.0010824112687259912,0.004173454828560352
1761475293164724200,0.75672412109375,-0.00048192660324275494,-0.001268851920031011,-0.0011900510871782899
1761475293174701600,0.76670166015625,0.0010778869036585093,-0.0006027953932061791,0.0039519802667200565
1761475293184678400,0.776678466796875,-0.0027111670933663845,-0.0023359451442956924,-0.00033183902269229293
1761475293194655500,0.786655517578125,-0.0008488184539601207,0.0024327109567821026,-0.002245852956548333
1761475293204632600,0.796632568359375,0.0006914272671565413,-0.0032736272551119328,0.0016429442912340164
1761475293214610400,0.8066103515625,-0.0016902376664802432,0.0010593358892947435,0.0002365288237342611
1761475293224587500,0.81658740234375,-0.0003030548105016351,-0.0027099987491965294,0.00244149100035429
1761475293234564400,0.826564453125,0.002059968188405037,-0.0017078513046726584,-0.00021101749734953046
1761475293244541400,0.83654150390625,-0.0026983546558767557,-0.0010776682756841183,0.0027770446613430977
1761475293254518500,0.8465185546875,0.0004529638681560755,-0.0007658121176064014,-0.000027263929951004684
1761475293264495400,0.856495361328125,0.0011674943380057812,-0.0011009935988113284,0.0015534618869423866
1761475293274473500,0.866473388671875,-0.0019526653923094273,0.0008795992471277714,0.0005369334248825908
1761475293284450300,0.8764501953125,-0.0002891627955250442,-0.0006205074023455381,-0.002088829642161727
1761475293294427400,0.886427490234375,0.0003497295256238431,-0.0014660611050203443,0.0004148079897277057
1761475293304404500,0.896404541015625,-0.0036809095181524754,-0.0015634912997484207,0.0012618380133062601
1761475293314381300,0.90638134765625,-0.00012878520647063851,-0.0006353796925395727,0.0003843264712486416
1761475293324358400,0.9163583984375,0.0005115776439197361,-0.0006412933580577374,0.0012086163042113185
1761475293334336500,0.92633642578125,0.0009592550341039896,-0.0026466536801308393,0.0014794598100706935
1761475293344313300,0.936313232421875,0.001150220981799066,0.0022271471098065376,-0.0001385181676596403
1761475293354290400,0.94629052734375,0.0017891132738441229,0.0008380422368645668,-0.0010586403077468276
1761475293364267300,0.956267333984375,0.0002196262066718191,-0.0017009091097861528,0.0035852023866027594
1761475293374244400,0.966244384765625,0.001098735723644495,0.001020841533318162,-0.001054556923918426
1761475293384221400,0.976221435546875,0.001514321193099022,-0.0009364946745336056,0.002495946828275919
1761475293394198500,0.986198486328125,-0.0014702833723276854,0.0017679454758763313,-0.001188270398415625
1761475293404176400,0.99617626953125,-0.001824160572141409,0.002198719186708331,-0.0004961560480296612
1761475293414153200,1.0061533203125,0.0014808222185820341,0.001975279999896884,0.0007203759159892797
1761475293424130600,1.016130615234375,0.0007772337994538248,0.00020493986085057259,0.0011830874718725681
1761475293434107400,1.026107421875,0.000709589512553066,-0.0007426128722727299,-0.00003903714241459966
1761475293444084500,1.03608447265625,-0.001244512852281332,0.0000010228250175714493,-0.000042142193706240505
1761475293454061600,1.0460615234375,0.0000761487171985209,-0.0010248268954455853,-0.00020273082191124558
1761475293464039400,1.056039306640625,-0.001596488174982369,-0.0003509451635181904,-0.001287653110921383
1761475293474016500,1.0660166015625,-0.000626298482529819,0.0005310936830937862,-0.0019646286964416504
1761475293483993300,1.075993408203125,-0.0019291471689939499,-0.0011962391436100006,-0.001251179608516395
1761475293493970400,1.085970458984375,-0.0008939763647504151,0.00010950863361358643,0.0023454194888472557
1761475293503947500,1.095947509765625,-0.0007412040140479803,-0.001606849953532219,-0.000006998358003329486
1761475293513924400,1.10592431640625,-0.0019886286463588476,0.00012473738752305508,0.0029025052208453417
1761475293523902500,1.11590234375,0.0010255908127874136,-0.0003678809152916074,-0.0021255984902381897
1761475293533879600,1.125879638671875,-0.001749423099681735,-0.0009154267609119415,0.0004416888114064932
1761475293543856400,1.1358564453125,0.0007574213086627424,0.00006485916674137115,0.00016615276399534196
1761475293553833500,1.14583349609375,0.00018324379925616086,0.0032768978271633387,0.0015568555099889636
1761475293563810300,1.155810302734375,-0.0010044490918517113,-0.00023772497661411762,-0.0024530987720936537
1761475293573787400,1.165787353515625,0.0004451095301192254,0.0021103841718286276,-0.002719148760661483
1761475293583765500,1.175765625,-0.0005299066542647779,-0.0008559705456718802,-0.0013044305378571153
1761475293593742300,1.185742431640625,-0.0016207373701035976,0.0016929411794990301,-0.0023883371613919735
1761475293603719400,1.195719482421875,0.0009745846036821604,-0.0004927320405840874,0.0026290714740753174
1761475293613696300,1.2056962890625,-0.000427836028393358,-0.0005137709667906165,-0.002221343806013465
1761475293623673300,1.21567333984375,-0.00117596797645092,0.001607547514140606,-0.001422554487362504
1761475293633650200,1.225650146484375,-0.0011621196754276752,0.0003382849972695112,0.0008808134007267654
1761475293643627500,1.23562744140625,0.00034743748256005347,0.0024653072468936443,0.0020574049558490515
1761475293653605400,1.24560546875,0.00021081732120364904,-0.002377385040745139,-0.0029376200400292873
1761475293663582200,1.255582275390625,-0.00037470198003575206,-0.0006352808559313416,-0.0015762547263875604
1761475293673559600,1.2655595703125,0.0006048086797818542,-0.0016012093983590603,0.001070128520950675
1761475293683536400,1.275536376953125,-0.00026045372942462564,-0.001792329829186201,-0.002139199757948518
1761475293693513500,1.285513427734375,-0.001576321548782289,0.0016577951610088348,-0.00456720357760787
1761475293703490600,1.295490478515625,-0.000019433849956840277,-0.0020613395608961582,0.003699509659782052
1761475293713468400,1.305468505859375,-0.0007161167450249195,-0.0013209807220846415,-0.0014539733529090881
1761475293723445500,1.315445556640625,0.000784067902714014,-0.0003211218863725662,-0.0008841161616146564
1761475293733422000,1.325422119140625,-0.00033525872277095914,0.002372399205341935,0.0017010143492370844
1761475293743399200,1.335399169921875,0.0004483818484004587,-0.00012670084834098816,-0.0011350256390869617
1761475293753376300,1.345376220703125,0.003119266126304865,-0.0019581567030400038,0.0016570324078202248
1761475293763353000,1.35535302734375,0.0005050614709034562,0.0013603277038782835,0.0024994155392050743
1761475293773331200,1.365331298828125,-0.0019066971726715565,0.0014133246149867773,-0.0012423256412148476
1761475293783308300,1.375308349609375,-0.0026021916419267654,0.00009438139386475086,0.0007545437547378242
1761475293793285000,1.38528515625,-0.001844255835749209,-0.00022466527298092842,-0.0005197788123041391
1761475293803262200,1.39526220703125,0.0004928187117911875,-0.002040053019300103,0.0034648363944143057
1761475293813239000,1.405239013671875,0.0008536770474165678,-0.0021066321060061455,0.002082123188301921
1761475293823216000,1.415216064453125,0.0008291250560432673,-0.0015018500853329897,0.0024579933378845453
1761475293833194200,1.4251943359375,-0.0008795590838417411,0.00023479736410081387,0.001074481289833784
1761475293843171000,1.435171142578125,-0.0003926652716472745,0.0005575371906161308,0.000049680173106025904
1761475293853148200,1.445148193359375,0.0005650074454024434,-0.00027043954469263554,0.0022009818349033594
1761475293863125000,1.455125,0.00108494539745152,0.0004080862272530794,0.0013607629807665944
1761475293873102000,1.46510205078125,-0.0012842025607824326,-0.00016156374476850033,-0.0005609740037471056
1761475293883079200,1.4750791015625,-0.0006762531702406704,-0.000472046434879303,0.0010732130613178015
1761475293893056300,1.48505615234375,-0.00030128011712804437,0.00030186818912625313,-0.002036826219409704
1761475293903034000,1.4950341796875,0.0008039857493713498,-0.00017941370606422424,-0.0007034512236714363
1761475293913011200,1.50501123046875,0.0017675174167379737,-0.0018982179462909698,0.001483802916482091
1761475293922988300,1.51498828125,0.000020330131519585848,0.000014045508578419685,0.0003477119607850909
1761475293932965000,1.524965087890625,-0.00039991666562855244,-0.0016917091561481357,-0.00021794346685055643
1761475293942942200,1.534942138671875,-0.002743139397352934,-0.0002488270401954651,-0.0031816561240702868
1761475293952919300,1.544919189453125,-0.0016515095485374331,-0.0013620284153148532,0.000007745758921373636
1761475293962897200,1.554897216796875,-0.001108026597648859,0.000012511387467384338,-0.0006388461333699524
1761475293972874200,1.564874267578125,-0.00215251836925745,0.0020745969377458096,-0.003919593989849091
1761475293982851300,1.574851318359375,-0.0017869854345917702,-0.0005047987215220928,-0.0007868747925385833
1761475293992828200,1.584828125,0.002289515221491456,-0.0006233094027265906,0.002197463531047106
1761475294002805200,1.59480517578125,-0.0007461202912963927,-0.0016898722387850285,0.0010648525785654783
1761475294012782000,1.604781982421875,0.00023392302682623267,-0.0027908231131732464,0.0035570387262851
1761475294022760200,1.61476025390625,-0.001955204177647829,0.00041601876728236675,-0.0030595504213124514
1761475294032737300,1.6247373046875,0.0008674803539179265,-0.0008311396231874824,0.0024944718461483717
1761475294042714000,1.634714111328125,-0.002691306872293353,0.0005981686990708113,-0.0018663933733478189
1761475294052691200,1.644691162109375,-0.0014870255254209042,-0.00007481221109628677,-0.00010311442019883543
1761475294062668000,1.65466796875,-0.0007125962874852121,-0.0004521891241893172,0.0016388591611757874
1761475294072645000,1.66464501953125,-0.000608466740231961,-0.0013206459116190672,0.0022612400352954865
1761475294082622000,1.6746220703125,-0.00009818078251555562,0.002239502966403961,-0.0018645899835973978
1761475294092600000,1.68460009765625,0.000027786765713244677,0.0013172500766813755,-0.0005532496143132448
1761475294102577200,1.6945771484375,0.0010990084847435355,-0.0013440237380564213,0.0037684347480535507
1761475294112554000,1.704553955078125,0.00020125694572925568,-0.0017134041991084814,-0.0011986269382759929
1761475294122531000,1.714531005859375,-0.000041648163460195065,0.0001609416212886572,0.0009745593415573239
1761475294132508200,1.724508056640625,0.0021962060127407312,0.00025282055139541626,-0.0011887262808158994
1761475294142485200,1.7344853515625,-0.0009313852642662823,0.0004595371428877115,-0.0006450904766097665
1761475294152463000,1.744463134765625,-0.000511138525325805,0.0004835056606680155,-0.0031516575254499912
1761475294162440000,1.75443994140625,-0.00120312359649688,0.00020156730897724628,0.0028887935914099216
1761475294172417300,1.764417236328125,0.0011907918378710747,-0.0002535667736083269,0.00034014845732599497
1761475294182394400,1.774394287109375,-0.0002295379526913166,0.0014186352491378784,0.0002150727086700499
1761475294192371200,1.78437109375,-0.00021142838522791862,0.0005397920031100512,0.0015743500553071499
1761475294202348300,1.794348388671875,-0.00011922919657081366,0.0005035137291997671,-0.0007903559599071741
1761475294212325000,1.8043251953125,-0.00018554192502051592,0.001336017856374383,-0.0021062237210571766
1761475294222303200,1.81430322265625,-0.0020424234680831432,-0.0014468187000602484,0.00004631008778233081
1761475294232280300,1.8242802734375,0.0006977029261179268,-0.00008913921192288399,0.000017281628970522434
1761475294242257200,1.834257080078125,0.000990654923953116,-0.0008838485227897763,0.00023667371715418994
1761475294252234200,1.844234130859375,-0.00005676632281392813,-0.001451634569093585,0.00047555926721543074
1761475294262211000,1.854211181640625,0.0009362846030853689,0.0002792084123939276,0.00017603725427761674
1761475294272188200,1.864188232421875,0.0008380139479413629,-0.0009298666846007109,-0.0028655589558184147
1761475294282166300,1.874166259765625,-0.0005201702006161213,-0.0002921377308666706,0.002354455180466175
1761475294292143000,1.88414306640625,0.000003939901944249868,0.0020871302112936974,0.0004747960192617029
1761475294302120200,1.8941201171875,-0.00122984335757792,0.001870050560683012,0.0010984045220538974
1761475294312097000,1.904096923828125,-0.00009427138138562441,0.00025218049995601177,-0.0012813962530344725
1761475294322074000,1.91407421875,0.0022121896035969257,0.0014395532198250294,-0.002846804680302739
1761475294332051200,1.92405126953125,0.0020894180051982403,0.00009252619929611683,0.0024129385128617287
1761475294342028000,1.934028076171875,0.0006000615539960563,0.0005773850716650486,0.0008505034493282437
1761475294352006100,1.944006103515625,-0.00047558924416080117,-0.0012729791924357414,0.000057414079492446035
1761475294361983000,1.95398291015625,0.00039207260124385357,0.0007142992690205574,-0.0010823251213878393
1761475294371960000,1.9639599609375,8.542556315660477e-7,-0.00014377129264175892,-0.0032277677673846483
1761475294381937200,1.973937255859375,-0.0016808684449642897,0.00020780018530786037,-0.0009181426139548421
1761475294391914200,1.983914306640625,0.0009993367129936814,-0.0010465487139299512,0.0012169135734438896
1761475294401891300,1.993891357421875,-0.00041054346365854144,-0.0005622841417789459,0.0018521436722949147
1761475294411869000,2.003868896484375,-0.0012134865391999483,-0.0020882755052298307,0.0008758288458921015
1761475294421846300,2.01384619140625,-0.00007182516856119037,-0.0008960120612755418,0.0023692077957093716
1761475294431823400,2.0238232421875,0.0009361813426949084,-0.0001535227056592703,0.0003412105143070221
1761475294441800200,2.03380029296875,-0.001441901084035635,0.0006204647943377495,-0.0015188077231869102
1761475294451777300,2.04377734375,-0.0008802404627203941,0.0010771970264613628,-0.00380885973572731
1761475294461754000,2.053754150390625,-0.0006519193411804736,-0.00032449059654027224,0.0046364860609173775
1761475294471731200,2.063731201171875,0.0007848560926504433,-0.0016584680415689945,0.0018683966482058167
1761475294481709300,2.073709228515625,0.0009529187227599323,-0.0013801655732095242,0.0011293863644823432
1761475294491686100,2.08368603515625,0.00003785657463595271,-0.0004049160052090883,0.00042178446892648935
1761475294501663200,2.093663330078125,-0.0006033285753801465,-0.0015739438822492957,-0.002066537272185087
1761475294511640000,2.10364013671875,0.0007452962454408407,-0.001214949763379991,-0.00005451908509712666
1761475294521617200,2.1136171875,0.00269710854627192,-0.0009599750628694892,0.0021516100969165564
1761475294531594200,2.12359423828125,-0.00011545571032911539,-0.0016920780763030052,0.0013342859456315637
1761475294541572000,2.133572021484375,-0.0003361350391060114,0.0029586716555058956,0.0017459850059822202
1761475294551549200,2.143549072265625,-0.00048074463848024607,0.0013333444949239492,0.0023955299984663725
1761475294561526000,2.153526123046875,0.0012253531021997333,0.0007060330826789141,-0.0024897479452192783
1761475294571503000,2.163503173828125,0.0002759361523203552,-0.0010234237415716052,-0.000784259638749063
1761475294581480200,2.173480224609375,-0.0003714541671797633,0.0009310741443186998,-0.0030993125401437283
1761475294591457000,2.18345703125,0.0016133998287841678,0.00007619941607117653,-0.0023214032407850027
1761475294601434000,2.19343408203125,0.00150939985178411,0.00034000189043581486,0.0013777794083580375
1761475294611412000,2.203411865234375,-0.0006709300214424729,0.0016236456576734781,0.001325847813859582
1761475294621389000,2.21338916015625,0.0019444538047537208,0.0026010952424257994,-0.0033680503256618977
1761475294631366100,2.2233662109375,-0.0010758371790871024,0.0010221072006970644,-0.0018652286380529404
1761475294641343200,2.23334326171875,0.001180608756840229,0.0014511346817016602,0.00019599446386564523
1761475294651320300,2.2433203125,0.0010341349989175797,0.0008932023774832487,-0.0014306643279269338
1761475294661297200,2.253297119140625,-0.0007228867616504431,-0.0018907920457422733,0.0010285332100465894
1761475294671275300,2.263275146484375,0.0014920643297955394,0.0022504234220832586,0.00027778808725997806
1761475294681252400,2.27325244140625,0.0008972007781267166,-0.0012703081592917442,-0.003878846997395158
1761475294691229200,2.283229248046875,0.00035631281207315624,0.0009997703600674868,0.0022360372822731733
1761475294701206300,2.293206298828125,0.0010886171367019415,0.00028298445977270603,0.00012005510507151484
1761475294711183000,2.30318310546875,-0.003578572766855359,-0.0013202386908233166,-0.0019100725185126066
1761475294721160200,2.31316015625,-0.0015471716178581119,-0.0015794787323102355,-0.0024206358939409256
1761475294731137500,2.323137451171875,-0.000297882710583508,-0.0011408560676500201,-0.0028259691316634417
1761475294741115400,2.333115478515625,-0.00009272841271013021,0.0009433364029973745,0.0007147025316953659
1761475294751092500,2.343092529296875,0.0016918558394536376,-0.0028386185877025127,0.0008768890402279794
1761475294761069600,2.353069580078125,-0.00009218754712492228,0.0020114146173000336,-0.0040629105642437935
1761475294771046400,2.36304638671875,-0.00030524044996127486,0.0014779833145439625,-0.0003509966190904379
1761475294781023500,2.3730234375,-0.0022979825735092163,-0.001215657452121377,-0.00023330922704190016
1761475294791000300,2.383000244140625,-0.0018127544317394495,0.00045281299389898777,0.0002750882413238287
1761475294800977400,2.392977294921875,0.0008662434993311763,0.0004314882680773735,0.0027544850017875433
1761475294810955500,2.40295556640625,0.0022524187806993723,-0.002980021061375737,-0.002078619785606861
1761475294820932400,2.412932373046875,-0.0015436778776347637,-0.0007181045366451144,0.00453345850110054
1761475294830909400,2.422909423828125,0.0011463810224086046,-0.0005356780020520091,0.002156853210180998
1761475294840886300,2.43288623046875,0.0004958094214089215,0.0006701359525322914,-0.0014127208851277828
1761475294850863400,2.44286328125,0.001130973338149488,-0.0004545169649645686,-0.0005724935326725245
1761475294860840400,2.45284033203125,-0.0017823525704443455,0.002331080846488476,0.0031663035042583942
1761475294870818300,2.462818359375,-0.000590854266192764,0.00020374800078570843,-0.00026091840118169785
1761475294880795400,2.47279541015625,-0.0035365931689739227,0.002065609209239483,-0.0019731828942894936
1761475294890772200,2.482772216796875,-0.00017808069242164493,-0.0016750667709857225,0.00045615265844389796
1761475294900749600,2.49274951171875,-0.002011768752709031,0.00033168005757033825,0.0011078868992626667
1761475294910726700,2.5027265625,-0.0018935245461761951,0.0007998635992407799,0.002516166539862752
1761475294920703500,2.512703369140625,-0.004160077776759863,-0.000437212991528213,0.00030189918470568955
1761475294930680600,2.5226806640625,-0.0006399113917723298,-0.0009687799029052258,0.0004960435908287764
1761475294940658700,2.53265869140625,-0.000345373700838536,0.0011903790291398764,-0.0013120434014126658
1761475294950635500,2.542635498046875,-0.0016021194169297814,0.00034455908462405205,-0.0002680843463167548
1761475294960612600,2.552612548828125,-0.001241041230969131,-0.0010174773633480072,-0.00020941428374499083
1761475294970589400,2.56258935546875,0.00044793557026423514,-0.0020707575604319572,-0.0014035757631063461
1761475294980566500,2.57256640625,0.0007453399593941867,-0.0011559883132576942,-0.0024359230883419514
1761475294990543400,2.58254345703125,0.00110912777017802,-0.0006571782287210226,0.00338734476827085
1761475295000520400,2.5925205078125,-0.002144094090908766,0.00012390827760100365,0.0015772896585986018
1761475295010498600,2.60249853515625,-0.0007299555581994355,-0.0016185981221497059,0.00005768996925326064
1761475295020475400,2.612475341796875,-0.0014070580946281552,0.0006409732159227133,-0.0006466194754466414
1761475295030452500,2.622452392578125,0.0006169442785903811,-0.0017686549108475447,0.0009323687409050763
1761475295040429300,2.63242919921875,0.00010629254393279552,-0.000133180757984519,0.00356923695653677
1761475295050406400,2.642406494140625,-0.0012764206621795893,0.001987760653719306,0.003271761815994978
1761475295060383500,2.652383544921875,0.000894810538738966,-0.0014800896169617772,0.00033708143746480346
1761475295070360300,2.6623603515625,0.0006612513097934425,-0.00008299527689814568,0.0025799956638365984
1761475295080338400,2.67233837890625,0.0008931415504775941,-0.0008858132641762495,0.0010618622181937099
1761475295090315300,2.682315185546875,-0.0016776078846305609,-0.001035749213770032,-0.00016771926311776042
1761475295100292400,2.692292236328125,-0.0013477772008627653,0.000283918809145689,0.0005651352112181485
1761475295110269400,2.70226953125,-0.0005829173605889082,-0.0011904072016477585,0.0019063032232224941
1761475295120246500,2.71224658203125,-0.0004712915397249162,0.0013811725657433271,-0.00081583799328655
1761475295130223600,2.7222236328125,0.0012352620251476765,0.001118584768846631,0.0012358613312244415
1761475295140201500,2.732201416015625,0.0021942160092294216,-0.00029393110889941454,-0.0021701038349419832
1761475295150178600,2.742178466796875,-0.00004257290856912732,0.0026672377716749907,-0.00007632648339495063
1761475295160155600,2.75215576171875,0.00213829823769629,-0.0016602497780695558,-0.0010489278938621283
1761475295170132500,2.762132568359375,0.000021884043235331774,-0.0023801021743565798,-0.0029842471703886986
1761475295180109600,2.772109619140625,-0.0019654203206300735,-0.0010765274055302143,-0.0015382549026980996
1761475295190086400,2.78208642578125,-0.001561951357871294,-0.00036839290987700224,0.003135060193017125
1761475295200063500,2.7920634765625,0.0021596448495984077,-0.0008746169041842222,-0.00006629744893871248
1761475295210041600,2.80204150390625,-0.0021810412872582674,0.003839178243651986,-0.0016639276873320341
1761475295220018400,2.812018310546875,0.0003313982451800257,0.0012809040490537882,-0.0015971697866916656
1761475295229995500,2.82199560546875,-0.0011282803025096655,-0.0003228515852242708,-0.000009126801160164177
1761475295239972400,2.831972412109375,0.0006351235206238925,-0.0013146488927304745,0.0003476482816040516
1761475295249949400,2.841949462890625,0.001347519108094275,-0.0010280926944687963,-0.0028329649940133095
1761475295259926500,2.851926513671875,0.0008554155938327312,0.0010472717694938183,-0.002043439308181405
1761475295269903400,2.8619033203125,0.00025700332480482757,0.0007487314287573099,-0.0018426369642838836
1761475295279881500,2.871881591796875,-0.002469000406563282,0.0009235434699803591,-0.0035894629545509815
1761475295289858300,2.8818583984375,0.0016703507862985134,-0.0009084451012313366,0.0026918689254671335
1761475295299835400,2.89183544921875,0.002132933121174574,-0.00034199526999145746,-0.002407398307695985
1761475295309812500,2.9018125,-0.0008178493590094149,-0.00025437725707888603,0.0006850643549114466
1761475295319789300,2.911789306640625,-0.0005788836861029267,-0.0009695000480860472,0.004742046818137169
1761475295329766400,2.921766357421875,-0.0017597292317077518,-0.0005242195911705494,-0.002117456868290901
1761475295339743500,2.931743408203125,0.0015514983097091317,-0.0008620732696726918,-0.003486149711534381
1761475295349721300,2.941721435546875,-0.0014386989641934633,0.0007182464469224215,-0.0019199448870494962
1761475295359698400,2.951698486328125,-0.0018935664556920528,-0.001517759868875146,-0.0007905851816758513
1761475295369675500,2.961675537109375,-0.0013561404775828123,0.0013712372165173292,0.0015532628167420626
1761475295379652600,2.971652587890625,0.0007313537644222379,0.00039210543036460876,-0.00029897637432441115
1761475295389629400,2.98162939453125,-0.0006268583820201457,0.0014480487443506718,0.0021902802400290966
1761475295399606500,2.9916064453125,0.0009462866000831127,0.0024329284206032753,-0.0009530439856462181
1761475295409584600,3.001584716796875,-0.000385560211725533,0.001988446805626154,0.0010890678968280554
1761475295419561500,3.0115615234375,0.0020546484738588333,-0.0033670994453132153,0.002576512983068824
1761475295429538600,3.02153857421875,-0.0010098509956151247,0.003056444926187396,-0.002665120642632246
1761475295439515400,3.031515380859375,0.001630569575354457,0.00023452052846550941,0.0013272688956931233
1761475295449492500,3.041492431640625,-0.0007793248514644802,-0.0008344723610207438,0.0024316818453371525
1761475295459469600,3.051469482421875,0.00006957881851121783,0.0015021543949842453,0.0003611457359511405
1761475295469446400,3.0614462890625,-0.0018058193381875753,-0.0001189117319881916,0.0019606403075158596
1761475295479424500,3.071424560546875,0.001291576656512916,-0.0026213121600449085,-0.0022776175756007433
1761475295489401300,3.0814013671875,-0.0006626509130001068,-0.00007106922566890717,0.00035544962156563997
1761475295499378400,3.09137841796875,-0.00015399890253320336,-0.001150795491412282,0.0016553187742829323
1761475295509355500,3.10135546875,0.0003701112000271678,-0.0009313509799540043,0.00252936827018857
1761475295519332400,3.111332275390625,0.00026697831344790757,-0.0007507575210183859,-0.000845860515255481
1761475295529309400,3.121309326171875,0.0007391567924059927,-0.00012917560525238514,-0.002320718951523304
1761475295539286300,3.131286376953125,0.002412632340565324,0.0006961121689528227,-0.00033172895200550556
1761475295549264400,3.141264404296875,-0.00024174037389457226,-0.0012495933333411813,0.000729008112102747
1761475295559241500,3.151241455078125,0.001985108247026801,-0.00012513156980276108,0.001218966906890273
1761475295569218300,3.16121826171875,-0.0002684586797840893,-0.00004417146556079388,0.0008876696811057627
1761475295579195400,3.1711953125,0.0004591219767462462,0.00008618761785328388,-0.00016174036136362702
1761475295589172500,3.18117236328125,0.0003914776898454875,0.0020377521868795156,-0.0001444298104615882
1761475295599149600,3.191149658203125,-0.00033370964229106903,0.0025276895612478256,0.0019173946930095553
1761475295609127400,3.20112744140625,-0.001214683405123651,-0.00034852419048547745,-0.00048451029579155147
1761475295619104500,3.2111044921875,0.0008783263037912548,-0.00010158470831811428,0.0022042838390916586
1761475295629081600,3.22108154296875,-0.0026865811087191105,0.001946386182680726,-0.002302850130945444
1761475295639058400,3.231058349609375,0.000765096687246114,0.0024091333616524935,-0.0006467995699495077
1761475295649035500,3.241035400390625,-0.0004730068612843752,-0.0005847924621775746,-0.00014692425611428916
1761475295659012600,3.2510126953125,-0.001817174255847931,0.0022328903432935476,-0.003394481260329485
1761475295668989400,3.260989501953125,-0.0017151751089841127,0.0019415405113250017,0.003109757089987397
1761475295678967600,3.270967529296875,0.0012364042922854424,-0.0017110815970227122,0.00015305507986340672
1761475295688944400,3.2809443359375,-0.00017800048226490617,0.0006034716498106718,-0.001919416943565011
1761475295698921500,3.29092138671875,0.00141556141898036,0.0016187552828341722,0.003986093681305647
1761475295708898600,3.300898681640625,-0.00010536983609199524,0.0003303179983049631,-0.0006810961058363318
1761475295718875400,3.31087548828125,-0.00021511223167181015,0.0009435194078832865,-0.0012590020196512341
1761475295728852500,3.3208525390625,-0.0023139494005590677,0.001206373330205679,0.0016145487315952778
1761475295738829300,3.330829345703125,0.0016852801200002432,0.0011325858067721128,0.0015670747961848974
1761475295748807400,3.340807373046875,0.0003302637778688222,-0.002013672608882189,-0.0013893003342673182
1761475295758784300,3.3507841796875,-0.0005019271047785878,-0.0005123231094330549,-0.0022590127773582935
1761475295768761300,3.36076123046875,-0.0021810501348227262,0.0019076911266893148,-0.001736766891553998
1761475295778738400,3.370738525390625,-0.002609705552458763,-0.00002462952397763729,-0.0027969980146735907
1761475295788715300,3.38071533203125,-0.0027745552361011505,-0.002552768448367715,0.00033487938344478607
1761475295798692400,3.3906923828125,-0.0004550421144813299,0.0021350772585719824,-0.001651341444812715
1761475295808669400,3.40066943359375,-0.0005698243621736765,-0.0005331439897418022,0.0004126084386371076
1761475295818647300,3.410647216796875,-0.0002875519567169249,-0.0007126128766685724,0.002129977336153388
1761475295828624400,3.420624267578125,0.00012150959810242057,0.0013678485993295908,-0.0011065623257309198
1761475295838601500,3.4306015625,-0.00046730833128094673,-0.0003332172054797411,0.000812668411526829
1761475295848578600,3.44057861328125,0.0024110362865030766,0.00004788115620613098,0.0011452971957623959
1761475295858555400,3.450555419921875,0.0011089509353041649,-0.00017173634842038155,-0.00141394033562392
1761475295868532500,3.460532470703125,-0.0006175764137879014,0.0012740937527269125,0.0022702766582369804
1761475295878509600,3.470509521484375,0.00008809857536107302,0.0002959619741886854,0.0009295627241954207
1761475295888487400,3.4804873046875,-0.0013348283246159554,-0.0002398660872131586,0.0013431515544652939
1761475295898464500,3.490464599609375,-0.0006879462162032723,0.00010486948303878307,-0.0005992804071865976
1761475295908441300,3.50044140625,-0.0005878113443031907,0.0003884960897266865,-0.0017375154420733452
1761475295918418400,3.51041845703125,-0.0006809859187342227,-0.0013203418347984552,0.0003857181000057608
1761475295928395500,3.5203955078125,-0.0005025540594942868,0.0012189822737127542,0.001241391757503152
1761475295938372400,3.530372314453125,-0.0015828930772840977,-0.0014512587804347277,0.0005873601185157895
1761475295948349400,3.540349365234375,0.0005039598909206688,-0.002207596553489566,-0.0013351759407669306
1761475295958327300,3.550327392578125,-0.0014432722236961126,0.00008445745334029198,0.0015040180878713727
1761475295968304400,3.560304443359375,-0.0007548450375907123,-0.0003368546022102237,-0.0007647288148291409
1761475295978281500,3.570281494140625,0.0002701351186260581,0.00009177997708320618,0.0014240164309740067
1761475295988258300,3.58025830078125,0.0014437902718782425,-0.0014999913983047009,0.0013766121119260788
1761475295998235400,3.5902353515625,-0.0011252491967752576,-0.0009442270966246724,-0.0005172446835786104
1761475296008212200,3.600212158203125,-0.0015412349021062255,0.0004012018907815218,0.0021919889841228724
1761475296018189300,3.610189208984375,-0.0006097060977481306,0.0004271785728633404,0.0004772126558236778
1761475296028167400,3.62016748046875,-0.001642479794099927,0.0017965761944651604,0.00032301564351655543
1761475296038144300,3.630144287109375,0.001313529908657074,-0.001452636206522584,0.000025052311684703454
1761475296048121300,3.640121337890625,0.0001899421913549304,-0.001333592925220728,0.0018874008674174547
1761475296058098400,3.650098388671875,0.0013363296166062355,-0.0014622758608311415,-0.00033414410427212715
1761475296068075500,3.660075439453125,-0.00214815023355186,0.002660297555848956,0.0006797212990932167
1761475296078052600,3.670052490234375,0.0001725897309370339,-0.002462484175339341,0.0034405263140797615
1761475296088030500,3.680030517578125,-0.00018746964633464813,0.000980716897174716,0.00259736948646605
1761475296098007600,3.690007568359375,-0.0013397922739386559,0.0011680452153086662,0.005097588989883661
1761475296107984400,3.699984375,-0.0005999662098474801,-0.0018160268664360046,0.0004618244129233062
1761475296117961500,3.70996142578125,-0.001457467209547758,-0.0015546686481684446,0.0035594224464148283
1761475296127938600,3.7199384765625,-0.0013874259311705828,-0.002356812823563814,-0.0017900692764669657
1761475296137915400,3.729915283203125,0.00011196895502507687,-0.0010923383524641395,0.0022627173457294703
1761475296147892500,3.739892578125,0.002929593436419964,0.002844878938049078,-0.0005655596614815295
1761475296157869300,3.749869384765625,0.0021573726553469896,0.00015780958347022533,0.0029851188883185387
1761475296167847400,3.759847412109375,0.00004308909410610795,0.0012451782822608948,0.0018125292845070362
1761475296177824500,3.769824462890625,0.0002929134061560035,-0.0014191924128681421,0.004287345334887505
1761475296187801300,3.77980126953125,0.0009445889154449105,0.0015201384667307138,-0.0008972965879365802
1761475296197778400,3.7897783203125,0.003144756890833378,0.00131871341727674,0.00005166331538930535
1761475296207755300,3.79975537109375,0.0011977199465036392,0.0009482677560299635,-0.0010644674766808748
1761475296217732400,3.809732421875,-0.0011906959116458893,0.000004470348358154297,-0.0005235970020294189
1761475296227710500,3.81971044921875,0.000684702186845243,0.0014244678895920515,-0.003060524119064212
1761475296237687300,3.829687255859375,-0.0012407067697495222,0.002772632986307144,-0.0007711414364166558
1761475296247664400,3.839664306640625,-0.0003887615166604519,0.002507382072508335,0.00014791543071623892
1761475296257641200,3.84964111328125,-0.00031939533073455095,0.000057312892749905586,0.001359602203592658
1761475296267618300,3.859618408203125,-0.0015652220463380218,-0.0004060771316289902,0.0014184580650180578
1761475296277595600,3.869595703125,0.0030972552485764027,-0.001616739435121417,0.0025394754484295845
1761475296287572500,3.879572509765625,0.001280180411413312,-0.0017160754650831223,-0.0013681808486580849
1761475296297549600,3.889549560546875,-0.0013252790085971355,-0.0007509755669161677,-0.000018657978216651827
1761475296307527400,3.89952734375,-0.00025069352705031633,-0.00021887593902647495,0.0015696513000875711
1761475296317504500,3.90950439453125,0.002131402026861906,0.000291323522105813,0.0018399737309664488
1761475296327481600,3.919481689453125,0.0003417576663196087,-0.00010815076529979706,-0.003564911661669612
1761475296337458400,3.92945849609375,0.0010282783769071102,-0.001836733310483396,0.000585854344535619
1761475296347435500,3.939435546875,-0.0001397840678691864,-0.001592521439306438,0.0020665719639509916
1761475296357412400,3.949412353515625,0.0026188313495367765,-0.0005720441695302725,0.002193041145801544
1761475296367389400,3.959389404296875,0.0010718010598793626,-0.0010607342701405287,-0.0005388294812291861
1761475296377366300,3.9693662109375,0.004139795899391174,-0.0022562516387552023,0.0013972986489534378
1761475296387344400,3.979344482421875,0.0006246895063668489,0.002547025680541992,-0.0007132564787752926
1761475296397321500,3.989321533203125,-0.0012080309679731727,0.00007019797340035439,0.0014924885472282767
1761475296407298300,3.99929833984375,0.0003067750367335975,-0.0025679294485598803,-0.0008329838165082037
1761475296417275400,4.009275390625,-0.0003056956920772791,0.002365954453125596,-0.0008549752528779209
1761475296427252200,4.019252197265625,-0.0026631259825080633,-0.0011936264345422387,0.0016444013454020023
1761475296437229300,4.029229248046875,0.0007815425051376224,-0.0030060834251344204,-0.0002378809149377048
1761475296447206400,4.039206298828125,-0.0007329971995204687,-0.0007197594968602061,0.000639364356175065
1761475296457183500,4.04918359375,-0.0035929763689637184,0.001564414706081152,-0.001033236738294363
1761475296467161300,4.059161376953125,0.0008971132338047028,-0.002450566738843918,-0.0015253889141604304
1761475296477138400,4.069138427734375,0.0018267505802214146,-0.0015597774181514978,0.004502194933593273
1761475296487115300,4.079115234375,0.0014459185767918825,0.00013239518739283085,-0.00004675085438066162
1761475296497092600,4.089092529296875,-0.0015209682751446962,0.0041177840903401375,-0.00029078192892484367
1761475296507069400,4.0990693359375,-0.00020376895554363728,-0.0005976086249575019,-0.0013291484210640192
1761475296517046500,4.109046630859375,-0.00028737878892570734,-0.00012372853234410286,0.000827403215225786
1761475296527024400,4.1190244140625,0.000495856860652566,-0.0007024335209280252,0.0025187768042087555
1761475296537001500,4.12900146484375,0.0013502954971045256,0.0014418873470276594,0.00022710835037287325
1761475296546978600,4.138978515625,0.00012417614925652742,-0.0012167464010417461,0.00023270098608918488
1761475296556955400,4.148955322265625,-0.0015633023576810956,-0.0016169357113540173,-0.0013873386196792126
1761475296566932500,4.158932373046875,-0.0005592906381934881,0.00023875501938164234,-0.00030476367101073265
1761475296576909300,4.168909423828125,0.0008435287745669484,-0.00025909405667334795,0.0015000582206994295
1761475296586886400,4.178886474609375,0.0025841707829385996,0.0005880575627088547,0.0014771550195291638
1761475296596863500,4.188863525390625,0.002225287724286318,0.000271535012871027,-0.0007903451914899051
1761475296606841300,4.19884130859375,0.0012159496545791626,-0.0026693937834352255,-0.0013474784791469574
1761475296616818400,4.208818359375,0.0006163569632917643,-0.0005636466667056084,0.0013975247275084257
1761475296626795300,4.218795166015625,-0.0013336095726117492,-0.0012520737946033478,-0.0020866889972239733
1761475296636772400,4.2287724609375,0.0022084589581936598,-0.00003902311436831951,-0.0012265376280993223
1761475296646749400,4.23874951171875,0.0007216160884127021,-0.0007884366204962134,-0.0009253341122530401
1761475296656726300,4.248726318359375,0.004030686337500811,-0.0006946616340428591,0.0028857486322522163
1761475296666704400,4.258704345703125,-0.001407755189575255,0.000903501408174634,-0.0008498674142174423
1761475296676681500,4.268681396484375,0.0010808908846229315,-0.0010011334670707583,0.008062784560024738
1761475296686658300,4.278658203125,0.0028875793796032667,0.0008148760534822941,-0.002422880381345749
1761475296696635400,4.288635498046875,0.0008772772271186113,0.00029983557760715485,-0.00043164362432435155
1761475296706612200,4.2986123046875,-0.0010678955586627126,-0.002641359344124794,-0.0013190088793635368
1761475296716590300,4.30859033203125,0.0014502430567517877,0.0017266313079744577,0.0035767361987382174
1761475296726567400,4.3185673828125,-0.000845668138936162,-0.00029683869797736406,-0.002833226229995489
1761475296736544300,4.328544189453125,0.002389117144048214,0.002189082093536854,-0.00029024051036685705
1761475296746521300,4.338521240234375,-0.00037258106749504805,0.001323554664850235,0.0008621092420071363
1761475296756498400,4.34849853515625,-0.002365250140428543,-0.00233497004956007,0.0009191636927425861
1761475296766475500,4.3584755859375,0.00019058567704632878,0.0009329949971288443,0.0033863161224871874
1761475296776452400,4.368452392578125,0.0007658165413886309,0.0014762033242732286,0.0017966128652915359
1761475296786430500,4.378430419921875,-0.0008962622960098088,-0.001033826032653451,0.00005703606439055875
1761475296796407300,4.3884072265625,-0.00015318638179451227,-0.0002718816976994276,-0.0031027719378471375
1761475296806384400,4.39838427734375,0.0008020894601941109,0.0006011025980114937,0.0015681460499763489
1761475296816361500,4.408361572265625,0.0010189376771450043,-0.00023361574858427048,-0.0011866051936522126
1761475296826338300,4.41833837890625,-0.00028201646637171507,0.00021033314988017082,0.0017652425449341536
1761475296836315400,4.4283154296875,-0.0007841551559977233,0.002460988936945796,-0.0005129212513566017
1761475296846292200,4.438292236328125,-0.0010661839041858912,0.0011323378421366215,-0.002260221168398857
1761475296856270300,4.448270263671875,0.0008214892586693168,-0.0003813439980149269,-0.0011829350842162967
1761475296866247400,4.458247314453125,-0.0025263705756515265,-0.0015352917835116386,-0.0040618120692670345
1761475296876224300,4.468224365234375,-0.00010887411190196872,0.0011052398476749659,-0.0007617702358402312
1761475296886201300,4.478201416015625,-0.0007629463798366487,0.0024394835345447063,0.001122149871662259
1761475296896178200,4.48817822265625,-0.0008937930688261986,-0.002647284185513854,0.0002827683638315648
1761475296906155300,4.4981552734375,-0.0011108408216387033,0.0006124249193817377,-0.0012336355866864324
1761475296916132000,4.508132080078125,0.0011901328107342124,0.0015898174606263638,-0.001703482586890459
1761475296926110200,4.518110107421875,-0.0004120249068364501,0.002046016976237297,-0.0038944652769714594
1761475296936087300,4.52808740234375,0.002340213395655155,-0.0003058776492252946,-0.0023012994788587093
1761475296946064100,4.538064208984375,-0.0006001827423460782,-0.0005543505540117621,0.0002071318303933367
1761475296956041200,4.548041259765625,0.0007010800181888044,0.0012549886014312506,0.0017616439145058393
1761475296966018600,4.5580185546875,-0.0013159981463104486,0.0006121015176177025,-0.0007142969989217818
1761475296975995400,4.567995361328125,0.0010729170171543956,0.001344658201560378,-0.00038990931352600455
1761475296985972500,4.577972412109375,-0.00010899384506046772,-0.00024072162341326475,-0.002322032582014799
1761475296995950300,4.587950439453125,0.0014641151065006852,0.0024349421728402376,0.0008951693889684975
1761475297005927400,4.597927490234375,0.0010404061758890748,-0.0005565867759287357,0.001274403533898294
1761475297015904500,4.607904541015625,-0.0022985825780779123,-0.00047297216951847076,-0.001233400427736342
1761475297025881300,4.61788134765625,0.0025323915760964155,-0.0035513201728463173,0.003109149867668748
1761475297035858400,4.6278583984375,-0.0014769529225304723,0.0025128049310296774,0.0005086216260679066
1761475297045835300,4.637835205078125,-0.0005919844843447208,0.0011234339326620102,-0.002036561258137226
1761475297055812400,4.647812255859375,-0.0005134983221068978,-0.0015201240312308073,-0.002757350681349635
1761475297065790500,4.65779052734375,0.0007989074802026153,0.0012407752219587564,-0.0006712964968755841
1761475297075767300,4.667767333984375,0.0006082790205255151,0.0005460768006742001,-0.0025668356101959944
1761475297085744400,4.677744384765625,-0.0006119813770055771,-0.0012483610771596432,-0.0002592066302895546
1761475297095721200,4.68772119140625,-0.0011742437491193414,-0.0009344563586637378,0.0008480807300657034
1761475297105698300,4.6976982421875,-0.0005553251830860972,0.0020472188480198383,-0.0016291916836053133
1761475297115675100,4.707675048828125,0.002027296693995595,-0.00026069278828799725,0.0007608766900375485
1761475297125652200,4.71765234375,-0.0014611780643463135,0.0013475902378559113,-0.00012355908984318376
1761475297135630300,4.72763037109375,0.00024315982591360807,0.00038924533873796463,-0.0013938703341409564
1761475297145607200,4.737607177734375,0.00032545154681429267,-0.003254757961258292,-0.0016439411556348205
1761475297155584300,4.747584228515625,-0.0014486879808828235,0.0000736163929104805,0.001987382536754012
1761475297165561300,4.757561279296875,-0.00014107581228017807,0.00020491029135882854,0.0006339640240184963
1761475297175538200,4.7675380859375,0.0005679724854417145,0.0022218995727598667,-0.001984893111512065
1761475297185515500,4.777515625,0.00021164154168218374,0.0011398573406040668,0.0003003652673214674
1761475297195492400,4.787492431640625,-0.002241329289972782,-0.0006198190385475755,-0.0006757735973224044
1761475297205470200,4.79747021484375,0.0011717778397724032,0.0002481052652001381,-0.0006304998532868922
1761475297215447600,4.807447509765625,-0.0007650922052562237,-0.0014309082180261612,0.0011996258981525898
1761475297225424400,4.81742431640625,0.0013273534132167697,-0.0023334533907473087,0.00027124793268740177
1761475297235401500,4.8274013671875,-0.000893782009370625,0.0020529397297650576,-0.0027919532731175423
1761475297245378300,4.83737841796875,0.0004875996382907033,0.0008870076853781939,0.0019942799117416143
1761475297255355400,4.84735546875,0.0010717781260609627,-0.0014153743395581841,0.0013747886987403035
1761475297265332200,4.857332275390625,0.0005988007760606706,0.0011662940960377455,0.0036360786762088537
1761475297275310300,4.867310302734375,0.0010178700322285295,-0.000256806961260736,-0.0009679196518845856
1761475297285287400,4.877287353515625,0.0005163968307897449,-0.0000059371814131736755,-0.0023746013175696135
1761475297295264300,4.88726416015625,-0.0016346867196261883,0.0024054162204265594,-0.0007120402879081666
1761475297305241300,4.897241455078125,0.001221553422510624,0.0017420228105038404,-0.0024106043856590986
1761475297315218200,4.90721826171875,0.0036197579465806484,-0.0024107694625854492,0.0008451436879113317
1761475297325195300,4.9171953125,0.001312395092099905,-0.0011883784318342805,-0.002221486298367381
1761475297335172400,4.92717236328125,0.0009458381682634354,-0.0003640558570623398,0.0007002543425187469
1761475297345149200,4.937149169921875,-0.0018590030958876014,-0.0009803114226087928,0.0021988151129335165
1761475297355127300,4.947127197265625,-0.000505677773617208,-0.001279807067476213,-0.0004692457150667906
1761475297365104400,4.9571044921875,0.0004413423012010753,0.00017987145110964775,-0.00026764447102323174
1761475297375081200,4.967081298828125,-0.00001787487417459488,-0.00028391205705702305,-0.00022818833531346172
1761475297385058300,4.977058349609375,0.0008889315067790449,0.0009621810168027878,-0.0006412446382455528
1761475297395035400,4.987035400390625,0.0010408008238300681,0.0014911547768861055,-0.001561388373374939
1761475297405012500,4.997012451171875,-0.0005456442013382912,0.0011241710744798183,-0.0005935956141911447
1761475297414989300,5.0069892578125,-0.0014464876148849726,0.00043326220475137234,-0.0007592696929350495
1761475297424967200,5.01696728515625,0.0010907059768214822,0.0007057036273181438,0.000569381401874125
1761475297434944500,5.026944580078125,-0.0015099099837243557,0.0018647678662091494,-0.001326825236901641
1761475297444921300,5.03692138671875,0.0014222303871065378,-0.00004924577660858631,-0.001157448161393404
1761475297454898400,5.0468984375,0.001352159772068262,-0.001066664350219071,0.0029822480864822865
1761475297464875300,5.056875244140625,0.0002248436794616282,0.0025861274916678667,0.0026967572048306465
1761475297474852400,5.066852294921875,-0.0009086277568712831,-0.0009091033134609461,0.0010532854357734323
1761475297484829400,5.076829345703125,0.0015212404541671276,-0.00022440461907535791,-0.0008748432155698538
1761475297494807300,5.086807373046875,-0.001215517520904541,0.0006905719637870789,0.0010567608987912536
1761475297504784400,5.096784423828125,0.0002114041126333177,-0.0002734924200922251,0.00002425334241706878
1761475297514761200,5.10676123046875,-0.0014466495485976338,0.0025720857083797455,-0.00009875939576886594
1761475297524738300,5.11673828125,-0.0006178737385198474,0.0008932289201766253,-0.0007320591248571873
1761475297534715400,5.12671533203125,0.0014713495038449764,-0.0011286319931969047,-0.0031951337587088346
1761475297544692200,5.136692138671875,0.002366171684116125,-0.0014482112601399422,0.00419487152248621
1761475297554669300,5.14666943359375,0.0006188696715980768,-0.0003581038909032941,-0.0022933415602892637
1761475297564647400,5.1566474609375,0.00018450809875503182,0.0023063886910676956,-0.0007915850728750229
1761475297574624300,5.166624267578125,-0.0011310670524835587,-0.0013063321821391582,-0.001688737072981894
1761475297584601300,5.176601318359375,-0.0007941772928461432,0.00014295987784862518,0.0016503342194482684
1761475297594578200,5.186578125,-0.0014676665887236595,-0.0018766341963782907,0.0006815470987930894
1761475297604555300,5.19655517578125,0.0008881657849997282,-0.0009698278736323118,-0.0006753334891982377
1761475297614532400,5.206532470703125,-0.0013480095658451319,0.0006674185860902071,0.002566130133345723
1761475297624509400,5.216509521484375,0.0019764143507927656,-0.0003187499241903424,0.0012041897280141711
1761475297634487300,5.2264873046875,0.0004548774450086057,0.000006612623110413551,-0.0009054468828253448
1761475297644464000,5.236464111328125,-0.00034034246345981956,0.000686784042045474,-0.0006298096850514412
1761475297654441500,5.24644140625,0.0014792245347052813,0.0003537754528224468,0.0003788855392485857
1761475297664418300,5.256418212890625,0.0009615059825591743,0.0009234254248440266,0.00136718456633389
1761475297674395400,5.2663955078125,0.0026670177467167377,0.0010971701703965664,0.00003772931813728064
1761475297684372500,5.27637255859375,0.00026324851205572486,0.000023117288947105408,0.0013775656698271632
1761475297694349300,5.286349365234375,0.0015472355298697948,0.0019175370689481497,-0.0006943140178918839
1761475297704327400,5.296327392578125,0.00238346797414124,-0.000516059692017734,0.00024977661087177694
1761475297714304300,5.30630419921875,0.0007258023251779377,-0.0009408318437635899,-0.002698498545214534
1761475297724281300,5.31628125,0.00047626413288526237,-0.0010734573006629944,0.00028610602021217346
1761475297734258400,5.326258544921875,0.00286425044760108,-0.00037720322143286467,0.0017043633852154016
1761475297744235300,5.3362353515625,-0.0016769719077274203,0.0012097745202481747,0.001526996842585504
1761475297754212400,5.34621240234375,-0.00039281987119466066,0.0007856385782361031,-0.0017141152638942003
1761475297764189200,5.356189208984375,0.0012807105667889118,0.00000772927887737751,0.0010332016972824931
1761475297774166300,5.366166259765625,0.00002371863229200244,-0.0015288526192307472,0.0016203571576625109
1761475297784144400,5.376144287109375,0.001771817565895617,0.0006488142535090446,0.001444854773581028
1761475297794121200,5.386121337890625,0.0010929463896900415,0.0013607714790850878,-0.0017369086854159832
1761475297804098300,5.396098388671875,-0.002750261453911662,0.0008401235099881887,0.0006159940967336297
1761475297814075100,5.4060751953125,0.001446558628231287,-0.0005255866562947631,-0.0012078435393050313
1761475297824052200,5.41605224609375,0.0011895635398104787,0.0008211738895624876,0.0013392036780714989
1761475297834029300,5.426029296875,-0.0004947285633534193,0.0011951490305364132,-0.0009160783374682069
1761475297844006400,5.43600634765625,0.0015066370833665133,0.0003011259250342846,-0.0013019703328609467
1761475297853984300,5.445984375,-0.0011519563850015402,0.0004944796673953533,-0.0022282192949205637
1761475297863961300,5.45596142578125,0.0019421041943132877,0.0003943447954952717,-0.0004574833146762103
1761475297873938400,5.4659384765625,0.0007500507053919137,-0.0001722928136587143,-0.0007695985259488225
1761475297883915500,5.47591552734375,-0.001027609221637249,0.0007230618502944708,-0.001526735257357359
1761475297893892400,5.485892333984375,-0.00031664432026445866,-0.00013319007121026516,0.00045178947038948536
1761475297903869400,5.495869384765625,0.0015885811299085617,0.00011288607493042946,0.0004997263895347714
1761475297913846300,5.50584619140625,-0.0019431449472904205,-0.0017401984659954906,0.0012738083023577929
1761475297923824400,5.515824462890625,-0.0001622893032617867,-0.0002741282805800438,-0.0013012021081522107
1761475297933801500,5.525801513671875,-0.0009523005574010313,0.0010130926966667175,-0.0013587474822998047
1761475297943778300,5.5357783203125,-0.0012234104797244072,0.002174497116357088,0.0001794943236745894
1761475297953755400,5.54575537109375,-0.0026509070303291082,0.0007763069588690996,-0.00024670077254995704
1761475297963732200,5.555732177734375,-0.0014799151103943586,-0.0005070703336969018,-0.0008602931047789752
1761475297973709300,5.565709228515625,0.00007264595478773117,-0.001579249743372202,0.0016885860823094845
1761475297983686100,5.57568603515625,0.0014055580832064152,0.001541442470625043,-0.0006624524248763919
1761475297993664300,5.585664306640625,0.00019840581808239222,0.0013318152632564306,0.00021340085368137807
1761475298003641300,5.595641357421875,0.0013536850456148386,0.0006620301865041256,-0.0020271167159080505
1761475298013618200,5.6056181640625,-0.00006549572572112083,0.0006869232747703791,-0.00158536690287292
1761475298023595300,5.61559521484375,-0.0005384731339290738,-0.000637466786429286,0.001559027354232967
1761475298033572400,5.625572265625,-0.002663751831278205,0.001200580270960927,-0.003681332338601351
1761475298043549200,5.635549072265625,-0.0015651979483664036,-0.0013699028640985489,-0.0008338804473169148
1761475298053526500,5.645526611328125,-0.0008384103421121836,-0.0008252739207819104,-0.00005998662527417764
1761475298063503400,5.65550341796875,0.0030921490397304296,0.001000056741759181,0.001185840112157166
1761475298073481200,5.665481201171875,0.0018351738108322024,-0.002188608516007662,0.00023096389486454427
1761475298083458300,5.675458251953125,0.0003912078100256622,-0.0017116363160312176,-0.0018436386017128825
1761475298093435400,5.685435302734375,-0.00044420670019462705,-0.0022059138864278793,0.0015516742132604122
1761475298103412500,5.69541259765625,0.000531575467903167,0.00037921639159321785,0.0013740414287894964
1761475298113389300,5.705389404296875,0.00025573710445314646,0.0008190090302377939,-0.00038140048854984343
1761475298123366400,5.715366455078125,0.000477312074508518,0.0001971609890460968,0.0003038308350369334
1761475298133343200,5.72534326171875,-0.002541192574426532,-0.0006864565657451749,-0.0009723982657305896
1761475298143321300,5.7353212890625,-0.001926268683746457,0.0005716206505894661,0.00046411078074015677
1761475298153298400,5.74529833984375,0.0007530014263466001,0.00018083886243402958,-0.00002631216193549335
1761475298163275300,5.755275146484375,-0.0012097483268007636,-0.0006950749084353447,-0.0012921126326546073
1761475298173252400,5.76525244140625,0.00017601967556402087,0.0002597409766167402,-0.002572676632553339
1761475298183229200,5.775229248046875,-0.0016064341180026531,0.0009657449554651976,0.00384367723017931
1761475298193206300,5.785206298828125,-0.0014276709407567978,0.0007698128465563059,-0.00220552203245461
1761475298203183400,5.795183349609375,0.0017883621621876955,-0.001678164815530181,0.00015457134577445686
1761475298213160200,5.80516015625,0.0006570896366611123,-0.0007802199106663465,0.0022601941600441933
1761475298223138300,5.81513818359375,-0.00045264960499480367,-0.00006622634828090668,-0.0024847600143402815
1761475298233115400,5.825115478515625,-0.00010335363913327456,-0.0007245457964017987,-0.0018438502447679639
1761475298243092200,5.83509228515625,0.00008013815386220813,-0.0006238783244043589,0.00022036595328245312
1761475298253069300,5.8450693359375,-0.0007613542838953435,0.0016789548099040985,0.003167323535308242
1761475298263046100,5.855046142578125,0.0011169732315465808,-0.0017986007733270526,0.0003494328120723367
1761475298273023500,5.8650234375,-0.0018904758617281914,0.00045684073120355606,0.001481350394897163
1761475298283000300,5.875000244140625,-0.0033557473216205835,-0.0006230712169781327,-0.001151184318587184
1761475298292978200,5.884978271484375,-0.00014987593749538064,0.0004535820335149765,0.0017834195168688893
1761475298302955300,5.894955322265625,-0.000495820539072156,-0.001699317479506135,-0.002408662112429738
1761475298312932400,5.904932373046875,-0.0015668771229684353,0.0006948059890419245,-0.003936140798032284
1761475298322909400,5.914909423828125,0.0005002684774808586,0.002225590869784355,-0.0005163759924471378
1761475298332886300,5.92488623046875,-0.0016990152653306723,-0.0006012371741235256,-0.0013651798944920301
1761475298342863400,5.93486328125,-0.0003615758032537997,0.0003881270531564951,-0.002518594963476062
1761475298352840400,5.94484033203125,0.001627222285605967,0.0004929665010422468,-0.0036508641205728054
1761475298362818300,5.954818359375,-0.0011211599921807647,0.0012871210929006338,-0.0004739791911561042
1761475298372795400,5.96479541015625,-0.0012419909471645951,0.001030557556077838,-0.0006727841682732105
1761475298382772200,5.974772216796875,0.0012296888744458556,-0.0015652254223823547,-0.0022973124869167805
1761475298392749300,5.984749267578125,-0.0014333848375827074,0.0008800039067864418,-0.001374314189888537
1761475298402726400,5.994726318359375,-0.001390774268656969,0.0023268992081284523,-0.0020206633489578962
1761475298412703200,6.004703125,-0.00024065212346613407,-0.0015243648085743189,0.00016535106988158077
1761475298422680300,6.014680419921875,0.0009625640814192593,-0.0004899931373074651,0.001864181598648429
1761475298432657200,6.0246572265625,0.0011789973359555006,-0.0018659275956451893,0.0002902244741562754
1761475298442635300,6.03463525390625,-0.0026522260159254074,0.001966627547517419,0.00019195384811609983
1761475298452612400,6.0446123046875,0.0012331390753388405,-0.0017184482421725988,-0.0015807372983545065
1761475298462589200,6.054589111328125,-0.001549864187836647,0.0017657652497291565,-0.0003487590583972633
1761475298472566300,6.064566162109375,0.000769303529523313,-0.00011276756413280964,0.0012661961372941732
1761475298482543000,6.074543212890625,0.0009373489883728325,-0.0006038544233888388,-0.0013042869977653027
1761475298492520400,6.0845205078125,-0.0027078031562268734,-0.0013793593971058726,0.0014874642947688699
1761475298502497500,6.09449755859375,-0.0005495774676091969,0.0009093612898141146,0.00007226047455333173
1761475298512475100,6.10447509765625,0.0014994163066148758,-0.00166409183293581,0.0005521029816009104
1761475298522452500,6.114452392578125,-0.0004963566898368299,-0.00010294676758348942,-0.001133145298808813
1761475298532429300,6.12442919921875,-0.000002735643647611141,-0.001762135187163949,-0.0006618704064749181
1761475298542406400,6.134406494140625,0.0008018052903935313,0.0006640045903623104,0.0010452157584950328
1761475298552383500,6.144383544921875,-0.0010481455828994513,0.0004992207977920771,-0.00043783741421066225
1761475298562360300,6.1543603515625,0.0016680124681442976,-0.0009487399365752935,0.0005264931824058294
1761475298572337400,6.16433740234375,-0.0004324197652749717,0.0006374793592840433,0.0024117978755384684
1761475298582314200,6.174314208984375,-0.0016577402129769325,0.0022215277422219515,-0.003571525914594531
1761475298592292400,6.184292236328125,0.0020750437397509813,-0.0008544211741536856,0.0015585776418447495
1761475298602269400,6.19426953125,-0.0008131544454954565,-0.0020941225811839104,-0.00017806966206990182
1761475298612246300,6.204246337890625,0.0011466431897133589,-0.0001031986903399229,0.0026536674704402685
1761475298622223400,6.214223388671875,-0.0007109116995707154,-0.00018229451961815357,0.0012901290319859982
1761475298632200200,6.2242001953125,-0.00041015056194737554,-0.001491782022640109,-0.0006661203224211931
1761475298642177300,6.23417724609375,0.002007200848311186,-0.0017559676198288798,-0.0012179273180663586
1761475298652154000,6.244154052734375,-0.0006201271316967905,-0.0007967656711116433,-0.00004254702071193606
1761475298662132200,6.25413232421875,-0.00012531178072094917,0.000646667554974556,-0.0016068879049271345
1761475298672109300,6.264109375,0.000034758239053189754,0.000059942714869976044,-0.0012645911192521453
1761475298682086100,6.274086181640625,0.0002627248177304864,0.00010654795914888382,0.0008728619432076812
1761475298692063200,6.284063232421875,-0.0013687534956261516,-0.0007164317648857832,0.0001297548587899655
1761475298702040300,6.294040283203125,-0.00008457718649879098,-0.00037874304689466953,0.001224846695549786
1761475298712017400,6.304017333984375,-0.0006344504654407501,-0.00007674144580960274,0.00010403309715911746
1761475298721994500,6.313994384765625,0.0009139114408753812,0.0005190076772123575,-0.0015676331240683794
1761475298731971300,6.323971435546875,-0.00031311443308368325,0.0023010261356830597,0.0028065559454262257
1761475298741949200,6.33394921875,-0.00011444254778325558,-0.0008031545439735055,0.004073155578225851
1761475298751926000,6.343926025390625,0.00020169198978692293,-0.00036230403929948807,-0.0013717205729335546
1761475298761903000,6.353903076171875,-0.00008752732537686825,0.0013825991190969944,-0.00041910778963938355
1761475298771880200,6.363880126953125,-0.0006717111682519317,0.0007398626767098904,0.003420533612370491
1761475298781857000,6.37385693359375,0.0005738493055105209,0.001682355534285307,-0.003029642626643181
1761475298791834000,6.383834228515625,0.0001206340966746211,-0.0006693375762552023,-0.0016994671896100044
1761475298801811000,6.39381103515625,0.0015648663975298405,-0.001052566454745829,0.0001154770070570521
1761475298811789000,6.4037890625,0.00015410245396196842,0.002311146119609475,-0.0017484292620792985
1761475298821766100,6.41376611328125,-0.0006546995718963444,0.0014610651414841413,0.00009687506826594472
1761475298831743000,6.423742919921875,0.00010267260950058699,-0.002820070832967758,-0.0018701946828514338
1761475298841720000,6.433719970703125,-0.0004454059526324272,0.000991711625829339,-0.0011458147782832384
1761475298851697000,6.44369677734375,-0.0004497168119996786,-0.0005581685109063983,0.002781336661428213
1761475298861674000,6.453674072265625,-0.0019908880349248648,0.0009076353162527084,0.0028356651309877634
1761475298871650800,6.46365087890625,0.0015727101126685739,-0.00051224569324404,-0.0005748837720602751
1761475298881628200,6.473628173828125,-0.00015461619477719069,-0.0005543236620724201,0.0012810732005164027
1761475298891606000,6.48360595703125,-0.0009238175116479397,0.00032337941229343414,-0.0002717651368584484
1761475298901582800,6.493582763671875,0.0007635612855665386,-0.0006830291822552681,-0.0009615238523110747
1761475298911560000,6.503559814453125,0.0006244161631911993,0.0008868144359439611,0.00010011285485234112
1761475298921537000,6.513537109375,0.002081165323033929,0.000009302748367190361,-0.0007345218327827752
1761475298931514000,6.52351416015625,0.0015351944603025913,0.0006409343332052231,-0.0028508538380265236
1761475298941491200,6.5334912109375,0.001049167476594448,-0.0003399078268557787,0.0005364206153899431
1761475298951468000,6.543468017578125,-0.0024173595011234283,0.0010830108076334,-0.0017398286145180464
1761475298961445000,6.553445068359375,0.004424567800015211,-0.0014738901518285275,-0.0012194470036774874
1761475298971423200,6.56342333984375,-0.0006969575770199299,0.0024432127829641104,0.0010134356562048197
1761475298981400000,6.573400146484375,0.0022639448288828135,-0.0010164997074753046,-0.00024410898913629353
1761475298991377200,6.583377197265625,0.0013877041637897491,0.0010544850956648588,0.0013146675191819668
1761475299001354000,6.59335400390625,0.0005778368795290589,0.0009479585569351912,0.0038428062107414007
1761475299011331000,6.6033310546875,0.0023357984609901905,0.0007517179474234581,0.00036727875703945756
1761475299021308000,6.613307861328125,-0.0006189786363393068,-0.0003116822335869074,0.0006857928237877786
1761475299031285000,6.623284912109375,0.0010827543446794152,-0.0013310345821082592,0.0023630554787814617
1761475299041263000,6.63326318359375,-0.00017638830468058586,0.0001917609479278326,0.0025004749186336994
1761475299051240000,6.643239990234375,0.0023956873919814825,0.0008049597963690758,0.0016168201109394431
1761475299061217000,6.653217041015625,0.0023088683374226093,-0.00012474972754716873,0.0004109408182557672
1761475299071193900,6.66319384765625,-0.0019031701376661658,0.00004484853707253933,-0.00030841256375424564
1761475299081171000,6.6731708984375,0.0012982158223167062,-0.001026807469315827,0.00026390072889626026
1761475299091148000,6.68314794921875,0.0015366887673735619,-0.0005551950307562947,-0.0019551326986402273
1761475299101125000,6.693125,-0.001136858481913805,-0.0009259070502594113,-0.001888553611934185
1761475299111102200,6.703102294921875,-0.00004976493073627353,0.0001411230769008398,0.0019543669186532497
1761475299121079800,6.713079833984375,0.0009630352724343538,-0.000917483470402658,-0.0013657959643751383
1761475299131057200,6.72305712890625,0.0008526358287781477,-0.0003229132853448391,-0.0009812263306230307
1761475299141034200,6.7330341796875,0.00021400983678177,-0.0003306365106254816,-0.0011852245079353452
1761475299151011000,6.743010986328125,0.000025878718588501215,-0.0010999164078384638,0.0017215608386322856
1761475299160988200,6.75298828125,0.0005649024969898164,0.00040104123763740063,-0.0004816723521798849
1761475299170965000,6.762965087890625,-0.0023487636353820562,-0.0008872193284332752,-0.0028334399685263634
1761475299180942000,6.772942138671875,-0.0000549828982912004,0.0013972402084618807,-0.0003859949065372348
1761475299190920200,6.782920166015625,0.0011789621785283089,-0.00013832375407218933,-0.00031997699989005923
1761475299200897000,6.79289697265625,0.0023182625882327557,0.0003908465150743723,-0.0008174554677680135
1761475299210874000,6.8028740234375,0.0014554206281900406,-0.0017381702782586217,0.002903024200350046
1761475299220851000,6.812850830078125,0.00113211281131953,-0.0004707719199359417,-0.001047242432832718
1761475299230828000,6.822828125,-0.0006059751030988991,-0.00017851265147328377,-0.001759196980856359
1761475299240805000,6.83280517578125,-0.0003236800548620522,-0.0004418992903083563,-0.003561890684068203
1761475299250782000,6.842781982421875,0.0017919163219630718,0.0011742252390831709,0.0004839751636609435
1761475299260759000,6.852759033203125,-0.0021144081838428974,0.000615494092926383,0.00252049439586699
1761475299270737000,6.86273681640625,-0.001028156140819192,0.002161411102861166,-0.00004152300243731588
1761475299280714000,6.8727138671875,0.0009881231235340238,0.00031690578907728195,0.0033819705713540316
1761475299290691000,6.882691162109375,-0.0006567260134033859,0.00018378137610852718,-0.0004803234478458762
1761475299300668000,6.89266796875,0.00009614962618798018,0.001967832911759615,0.0011380795622244477
1761475299310645000,6.90264501953125,-0.0015798339154571295,0.0009396751411259174,0.0017124201403930783
1761475299320622000,6.9126220703125,0.0004550875455606729,-0.0015671583823859692,0.0011084151919931173
1761475299330599200,6.92259912109375,-0.0005032869521528482,0.00036568124778568745,-0.0003123436763416976
1761475299340576000,6.932575927734375,-0.0019019790925085545,0.0009443862363696098,-0.0017376674804836512
1761475299350554000,6.94255419921875,0.0007329846266657114,-0.0009347208542749286,-0.00034110629349015653
1761475299360531200,6.95253125,0.0018270111177116632,-0.0004950328730046749,-0.0007621520198881626
1761475299370508000,6.962508056640625,0.0014166204491630197,0.0017242163885384798,-0.00015358356176875532
1761475299380485000,6.972485107421875,-0.0008859485969878733,-0.0007501267828047276,-0.0005517261452041566
1761475299390462000,6.9824619140625,-0.0022533724550157785,0.001150412019342184,-0.0003522281185723841
1761475299400439000,6.99243896484375,0.0034167638514190912,-0.0000120578333735466,-0.0025259002577513456
1761475299410416000,7.002416015625,-0.000026450434233993292,0.0018864742014557123,-0.002774591790512204
1761475299420394000,7.01239404296875,0.0006374755757860839,-0.0003721525426954031,-0.0007266209577210248
1761475299430371000,7.02237109375,-0.0013530724681913853,0.0001433934085071087,0.0025082959327846766
1761475299440348200,7.03234814453125,0.002139929449185729,-0.0019301436841487885,0.0008877624059095979
1761475299450325000,7.042324951171875,0.0007373114349320531,0.001023832242935896,0.0012843981385231018
1761475299460302000,7.052302001953125,0.0011074908543378115,0.0006744253914803267,0.0007911807624623179
1761475299470279000,7.06227880859375,0.0017078369855880737,-0.0023480330128222704,0.0033356850035488605
1761475299480256000,7.072256103515625,-0.0013010024558752775,-0.0008638533763587475,-0.0015813094796612859
1761475299490232800,7.08223291015625,-0.0009891499066725373,0.0011202450841665268,-0.0007995634223334491
1761475299500211000,7.0922109375,0.0017429869621992111,-0.0010973690077662468,-0.0001843732170527801
1761475299510188000,7.10218798828125,0.001690167118795216,-0.0003641946241259575,-0.0013132671592757106
1761475299520164900,7.112164794921875,-0.0002968173357658088,-0.0014209370128810406,-0.0021004974842071533
1761475299530142000,7.122141845703125,0.0004428870743140578,0.0009480398148298264,0.0025876949075609446
1761475299540119000,7.132119140625,0.0022572986781597137,0.00010967673733830452,0.0005106956232339144
1761475299550096100,7.14209619140625,0.0008289586985483766,-0.0014743562787771225,0.0015213085571303964
1761475299560073200,7.1520732421875,-0.00021872890647500753,-0.00018458720296621323,-0.001978883985430002
1761475299570050000,7.162050048828125,-0.0018846152815967798,0.002189120277762413,0.0018576661823317409
1761475299580028200,7.172028076171875,-0.0011056405492126942,0.0021273349411785603,-0.001670489669777453
1761475299590005000,7.1820048828125,0.00022635591449216008,0.001027584308758378,0.00010025147639680654
1761475299599982000,7.191982177734375,-0.0005640703020617366,-0.0014158659614622593,-0.002277951454743743
1761475299609959200,7.201959228515625,0.0004761833406519145,-0.002043441403657198,0.0010907974792644382
1761475299619936000,7.21193603515625,0.0003848368942271918,0.00037444266490638256,0.0011360712815076113
1761475299629913000,7.2219130859375,0.0018614958971738815,0.0003567994572222233,0.000058873782109003514
1761475299639890000,7.231889892578125,-0.00042429519817233086,-0.0010938245104625821,-0.0018210515845566988
1761475299649867000,7.241866943359375,-0.000781974580604583,-0.0003529083915054798,0.0007853504503145814
1761475299659845000,7.25184521484375,-0.000025903224013745785,-0.0006085718050599098,0.0015624609077349305
1761475299669822000,7.261822021484375,-0.0013056052848696709,-0.00024192174896597862,-0.00037103481008671224
1761475299679799000,7.271799072265625,0.0016379867447540164,0.000518410699442029,0.0011086175218224525
1761475299689775900,7.28177587890625,-0.0015581296756863594,0.0032720633316785097,0.0004645996377803385
1761475299699753000,7.2917529296875,-0.00032748293597251177,-0.0010398607701063156,-0.0003354139334987849
1761475299709730000,7.30172998046875,0.0010821428149938583,-0.0001640885602682829,-0.00009168277028948069
1761475299719707100,7.31170703125,0.0018483343301340938,-0.0010378716979175806,-0.00009834067896008492
1761475299729684200,7.321684326171875,0.0019350979709997773,0.0007355730049312115,0.0012544665951281786
1761475299739662600,7.33166259765625,-0.00065109774004668,0.0003012116067111492,0.001353802508674562
1761475299749639400,7.341639404296875,0.0033623934723436832,-0.0010737369302660227,-0.0025074384175240993
1761475299759616500,7.351616455078125,0.0005122784641571343,-0.0002750549465417862,-0.0018259354401379824
1761475299769593600,7.361593505859375,0.002047294517979026,-0.0017002978129312396,-0.002362857572734356
1761475299779570700,7.37157080078125,0.0004470010753720999,0.000007321126759052277,-0.0018624495714902878
1761475299789547500,7.381547607421875,0.0022672568447887897,0.0035768942907452583,-0.0007745998445898294
1761475299799524600,7.391524658203125,-0.001611370942555368,0.002672485075891018,-0.0020896687638014555
1761475299809501700,7.401501708984375,-0.001091508660465479,0.0009606359526515007,-0.004932972136884928
1761475299819479600,7.4114794921875,-0.00020946963923051953,0.002064516069367528,0.0001688456250121817
1761475299829456600,7.42145654296875,-0.00017264869529753923,-0.0002104882150888443,-0.00014416471822187304
1761475299839433500,7.43143359375,0.00004466524114832282,0.0010814112611114979,0.003021002048626542
1761475299849410600,7.44141064453125,0.0005714120925404131,-0.000997911673039198,-0.000002111875801347196
1761475299859387600,7.4513876953125,0.0008832683088257909,-0.0009174842853099108,0.0005331834545359015
1761475299869364500,7.461364501953125,0.00043647389975376427,0.0005835858173668385,-0.000690796528942883
1761475299879341600,7.471341552734375,-0.0003547512460500002,0.00316418893635273,0.0002282603963976726
1761475299889319400,7.4813193359375,0.0018201114144176245,0.0003986761439591646,-0.0020568904001265764
1761475299899296500,7.491296630859375,-0.00039776915218681097,-0.0011222552275285125,0.001547165447846055
1761475299909273600,7.501273681640625,0.0006163435755297542,0.0002986735198646784,0.000585500500164926
1761475299919250400,7.51125048828125,-0.002234037732705474,0.0010092048905789852,0.0004648593021556735
1761475299929227500,7.5212275390625,0.0007528786081820726,0.0017375170718878508,0.0028383524622768164
1761475299939204400,7.531204345703125,0.00037870448431931436,0.0011327133979648352,-0.0016296330140903592
1761475299949181400,7.541181396484375,-0.00017317960737273097,-0.00171084760222584,0.002765441546216607
1761475299959158500,7.551158447265625,0.0007735741673968732,0.0000036954879760742188,-0.0015819026157259941
1761475299969136400,7.561136474609375,0.002074276562780142,0.00017787516117095947,0.0021473246160894632
1761475299979113500,7.571113525390625,-0.0019958324264734983,-0.0003797909012064338,0.0005518248653970659
1761475299989090600,7.581090576171875,0.002797484863549471,0.0033413453493267298,-0.000923228682950139
1761475299999067600,7.591067626953125,-0.0005746098468080163,0.0006097408477216959,0.0043913754634559155
1761475300009044700,7.601044677734375,-0.0011194946710020304,0.0028983454685658216,-0.00021361839026212692
1761475300019021600,7.611021484375,-0.0004363938933238387,-0.0004955867771059275,-0.0007814043201506138
1761475300028998700,7.62099853515625,-0.0008079237304627895,-0.0014625387266278267,-0.0012325234711170197
1761475300038975500,7.6309755859375,-0.0029224734753370285,-0.0027062350418418646,0.0025816557463258505
1761475300048953600,7.64095361328125,0.0004383189952932298,0.000052943360060453415,0.0011064017890021205
1761475300058930700,7.6509306640625,-0.0018227046821266413,0.0007166028954088688,0.0006890845252200961
1761475300068907500,7.660907470703125,-0.00010680221021175385,-0.002345947315916419,0.001200214959681034
1761475300078884600,7.670884521484375,-0.0024186924565583467,-0.00009557604789733887,-0.0003481467720121145
1761475300088861400,7.680861328125,-0.0008256591390818357,0.0005842428654432297,-0.00041353117558173835
1761475300098838500,7.690838623046875,-0.0014038315275684,0.00044043222442269325,-0.000943233841098845
1761475300108815400,7.7008154296875,0.0008574366802349687,0.0007802692707628012,0.0019960941281169653
1761475300118792400,7.71079248046875,-0.00151890201959759,-0.0016583872493356466,0.002847240539267659
1761475300128770600,7.7207705078125,0.0005642562173306942,-0.0006606902461498976,0.0016605355776846409
1761475300138747400,7.730747314453125,-0.00013722042785957456,0.0012663730885833502,0.0020695971325039864
1761475300148724500,7.740724365234375,-0.00022684282157570124,0.000762176001444459,-0.001992014003917575
1761475300158701300,7.750701416015625,0.0006714413757435977,0.001839691074565053,-0.0024394250940531492
1761475300168678400,7.760678466796875,-0.0019016647711396217,-0.0019552677404135466,0.0012792586348950863
1761475300178655700,7.77065576171875,0.00011301663471385837,0.0005121510475873947,0.0005793798482045531
1761475300188632600,7.780632568359375,-0.00014095113147050142,0.0009673861786723137,-0.0011922770645469427
1761475300198609700,7.790609619140625,-0.0007638644892722368,0.0014680605381727219,-0.0014905511634424329
1761475300208587500,7.80058740234375,0.0022089153062552214,-0.0008825135882943869,0.0010905510280281305
1761475300218564600,7.810564697265625,0.00372798228636384,-0.00287908548489213,0.000964050879701972
1761475300228541700,7.820541748046875,0.001754799741320312,-0.0005643822951242328,0.0006571965641342103
1761475300238518500,7.8305185546875,0.0007188300951384008,0.0020092963241040707,0.0011669255327433348
1761475300248495600,7.84049560546875,0.0008447760483250022,-0.002089848043397069,0.0015342519618570805
1761475300258472400,7.850472412109375,-0.0004647002788260579,-0.00019287830218672752,0.0010261208517476916
1761475300268449500,7.860449462890625,-0.0010132476454600692,0.0010780668817460537,0.0017481669783592224
1761475300278426600,7.870426513671875,0.00024136749561876059,-0.0008239627350121737,0.0002509378537070006
1761475300288404500,7.880404541015625,-0.0004650257178582251,-0.002355393022298813,-0.00002837400825228542
1761475300298381600,7.890381591796875,-0.00022480858024209738,0.0006710232701152563,0.0012480791192501783
1761475300308358400,7.9003583984375,0.0017631445080041885,-0.0004975540796294808,-0.00038747990038245916
1761475300318335500,7.91033544921875,0.00019507523393258452,-0.0005934278015047312,0.0007544835680164397
1761475300328312600,7.9203125,-0.0007525468245148659,0.0008345067035406828,0.0005031368928030133
1761475300338289400,7.930289306640625,-0.0010409671813249588,-0.0017535531660541892,0.0015564170898869634
1761475300348266500,7.9402666015625,-0.0004337654681876302,0.0002066316083073616,-0.000392081739846617
1761475300358243600,7.95024365234375,-0.00033496227115392685,0.0005432551261037588,0.0013163360999897122
1761475300368220700,7.960220703125,-0.0004425199585966766,0.0007650344632565975,0.0016158358193933964
1761475300378197500,7.970197509765625,0.0002219387679360807,0.002137894043698907,0.0020621817093342543
1761475300388174600,7.980174560546875,0.0016155457124114037,0.0011151640210300684,0.0002233384584542364
1761475300398152700,7.990152587890625,-0.00047583470586687326,-0.0015448012854903936,0.001229214365594089
1761475300408129500,8.000129638671876,0.0007684488082304597,0.00020273076370358467,-0.0002071440394502133
1761475300418106600,8.010106689453124,0.0005444769631139934,-0.0018207390094175935,0.0017188540659844875
1761475300428083500,8.02008349609375,0.00020146643510088325,0.0007993530016392469,0.0026417525950819254
1761475300438060500,8.030060546875,0.0009839031845331192,-0.0012835052330046892,-0.0017085210420191288
1761475300448037600,8.04003759765625,0.0025591386947780848,-0.000829027034342289,0.0005790992872789502
1761475300458014500,8.050014404296874,-0.0003783279680646956,0.0005291851703077555,0.002538919448852539
1761475300467991600,8.059991455078125,0.0009430607897229493,0.0011066296137869358,0.0006215355242602527
1761475300477969700,8.0699697265625,-0.0006353948265314102,0.000054680975154042244,0.0006034260150045156
1761475300487946500,8.079946533203126,0.0015262211672961712,-0.001080418354831636,0.004625620786100626
1761475300497923600,8.089923583984374,-0.001889815554022789,0.0002703368663787842,0.0010500603821128607
1761475300507900400,8.099900390625,-0.0007427448872476816,0.00028614653274416924,-0.0015363497659564018
1761475300517877500,8.10987744140625,-0.001097744214348495,0.00012449268251657486,0.002269307617098093
1761475300527854300,8.119854248046876,-0.0008216967107728124,-0.0006939017912372947,0.00016332062659785151
1761475300537831400,8.12983154296875,-0.001380694331601262,-0.0012981730978935957,-0.0019248640164732933
1761475300547808800,8.139808837890625,0.00013590313028544188,-0.0005695169093087316,0.0015789697645232081
1761475300557786400,8.149786376953125,0.0010664116125553846,-0.001570865511894226,0.0014753728173673153
1761475300567763500,8.159763427734376,0.00005660619353875518,0.001426065107807517,-0.002295688260346651
1761475300577740500,8.169740478515624,0.002873964374884963,-0.0005745014641433954,-0.0013265640009194613
1761475300587717600,8.179717529296875,0.0005261563346721232,0.0018584339413791895,-0.00024068463244475424
1761475300597694700,8.18969482421875,0.001024966361001134,-0.0026042251847684383,0.0019087527180090547
1761475300607671600,8.199671630859376,0.0016005486249923706,0.0005889390595257282,-0.0010369857773184776
1761475300617648600,8.209648681640624,-0.0004239864647388458,0.0008888109587132931,-0.0022114396560937166
1761475300627625500,8.21962548828125,-0.001856580376625061,-0.0011845903936773539,-0.0008582875016145408
1761475300637602600,8.2296025390625,0.0009748923475854099,0.003161421976983547,-0.0013387217186391354
1761475300647580700,8.23958056640625,-0.001864141784608364,0.001947326585650444,0.000223269104026258
1761475300657557500,8.2495576171875,-0.0001298911520279944,0.0001931025180965662,0.0037972312420606613
1761475300667534600,8.25953466796875,0.00019635568605735898,-0.0014475731877610087,-0.0012504473561421037
1761475300677511400,8.269511474609375,0.0018967839423567057,-0.0010563548421487212,-0.000629930873401463
1761475300687489500,8.279489501953124,0.0010879391338676214,0.0022996054030954838,-0.003367404220625758
1761475300697466600,8.289466552734375,0.00015556637663394213,0.0034634065814316273,0.00024117899010889232
1761475300707443500,8.299443359375,-0.0011506821028888226,-0.0003469749353826046,-0.0006681553204543889
1761475300717420500,8.309420654296876,-0.0029773444402962923,-0.00232144258916378,-0.0005682867486029863
1761475300727397400,8.3193974609375,0.0009374701185151935,0.0013993193861097097,0.0001408641692250967
1761475300737374700,8.329374755859375,-0.00020902074174955487,0.0001372473780065775,-0.00247968640178442
1761475300747351600,8.3393515625,-0.0001389754470437765,-0.00030968221835792065,0.0010592872276902199
1761475300757328600,8.34932861328125,0.000891667848918587,-0.00262263766489923,-0.0003971955447923392
1761475300767305700,8.3593056640625,-0.0036463162396103144,0.0007603545673191547,0.0016883171629160643
1761475300777283600,8.36928369140625,-0.00024732371093705297,-0.001458591315895319,-0.0007173162885010242
1761475300787260700,8.3792607421875,0.0004937828052788973,-0.00014227908104658127,0.0016330950893461704
1761475300797237800,8.38923779296875,-0.00041914876783266664,-0.00004107900895178318,0.0010879460023716092
1761475300807214800,8.39921484375,-0.00135810486972332,-0.00011591590009629726,-0.004756046924740076
1761475300817191700,8.409191650390625,0.001298664603382349,-0.0003872921224683523,0.0022323541343212128
1761475300827168800,8.419168701171875,-0.0005174617399461567,-0.0023680247832089663,0.0001905533717945218
1761475300837145900,8.429145751953126,-0.0007614073692820966,0.0013670586049556732,-0.00004220690607326105
1761475300847123700,8.439123779296875,0.0005554723320528865,0.0009107568766921759,-0.0006587069947272539
1761475300857100800,8.449100830078125,0.0005147259798832238,0.002313443925231695,0.002205522730946541
1761475300867077600,8.45907763671875,0.002803233452141285,0.0013156160712242126,-0.0010025619994848967
1761475300877054700,8.4690546875,0.0033451863564550877,-0.0001520519144833088,-0.001134654856286943
1761475300887031800,8.47903173828125,-0.0004808955709449947,0.0002811560407280922,-0.00023121398407965899
1761475300897008600,8.489008544921875,-0.00016264780424535275,-0.0005646637873724103,0.00009395797678735107
1761475300906985700,8.49898583984375,-0.0003884953912347555,-0.001027542632073164,-0.0000644679312244989
1761475300916962600,8.508962646484376,0.0001846168888732791,-0.0027751089073717594,0.00008679962047608569
1761475300926939600,8.518939697265624,-0.0021104689221829176,-0.000420835567638278,-0.002061755396425724
1761475300936917800,8.528917724609375,-0.001148002571426332,-0.0011486774310469627,0.0014861079398542643
1761475300946894600,8.53889453125,0.001249614404514432,0.0003002465236932039,0.002151562599465251
1761475300956871700,8.54887158203125,0.0006402831058949232,0.0017029335722327232,-0.0006088039372116327
1761475300966848500,8.5588486328125,0.0008758663316257298,-0.0006320897955447435,0.0008378268103115261
1761475300976825600,8.56882568359375,-0.0017990127671509981,0.0010129448492079973,-0.0001286343322135508
1761475300986803000,8.578802978515625,0.0030484336894005537,0.00028231111355125904,0.00016123190289363265
1761475300996779800,8.58877978515625,-0.00044643267756327987,-0.0009360850090160966,-0.0010672842618077993
1761475301006756900,8.5987568359375,-0.0015132121043279767,0.0015604498330503702,0.001438576029613614
1761475301016734700,8.608734619140625,0.0003193090087734163,0.0012834812514483929,0.00024894194211810827
1761475301026711800,8.6187119140625,0.0008348500123247504,0.0013143112882971764,-0.0019883608911186457
1761475301036689000,8.62868896484375,0.0017698858864605427,0.001812855014577508,-0.0019007427617907524
1761475301046665700,8.638665771484375,0.0019771757069975138,0.0015490902587771416,0.0008539629634469748
1761475301056642800,8.648642822265625,0.00024319154908880591,0.0012359025422483683,0.00240418897010386
1761475301066619600,8.65861962890625,-0.00045336777111515403,0.001936648041009903,-0.0010168206645175815
1761475301076596700,8.6685966796875,0.002326439833268523,0.002201099880039692,-0.003383571980521083
1761475301086573600,8.678573486328125,0.0006422427832148969,0.0006732007022947073,0.00042118821875192225
1761475301096551700,8.6885517578125,-0.0020392942242324352,0.002344866981729865,0.0019727458711713552
1761475301106528800,8.69852880859375,-0.0012268045684322715,-0.0007553594186902046,0.000641257967799902
1761475301116505600,8.708505615234374,0.001889626495540142,-0.0023790886625647545,0.000706771737895906
1761475301126482700,8.718482666015625,-0.0013810615055263042,-0.0004479736089706421,0.0010823188349604607
1761475301136459500,8.72845947265625,-0.001320607727393508,0.00058799609541893,0.0004724549362435937
1761475301146436600,8.7384365234375,0.0003485353954602033,-0.0007416018052026629,0.0000577355021960102
1761475301156413700,8.74841357421875,0.0021179395262151957,0.0006738682277500629,-0.0022011578548699617
1761475301166390800,8.758390869140625,0.0002637636789586395,0.0004954130854457617,-0.0006845174357295036
1761475301176368600,8.76836865234375,0.000027541304007172585,0.0005065982695668936,0.002263069385662675
1761475301186345700,8.778345703125,-0.0007469774573110044,-0.00013704784214496613,-0.00022749672643840313
1761475301196322600,8.788322509765624,-0.0005214077536948025,-0.0004465071251615882,-0.00016198297089431435
1761475301206300000,8.7982998046875,-0.001197929261252284,0.00026138569228351116,-0.0013265442103147507
1761475301216276700,8.80827685546875,0.0011957199312746525,0.0006565989460796118,0.00040530943078920245
1761475301226253800,8.81825390625,0.001138594001531601,0.0011265985667705536,-0.00027601246256381273
1761475301236230700,8.828230712890624,0.0006909166113473475,-0.002861485118046403,0.0004438399919308722
1761475301246207700,8.838207763671875,0.0007697956170886755,-0.002035715151578188,0.0008237893343903124
1761475301256185900,8.848185791015625,-0.0011849645525217056,-0.0017150705680251122,0.0008267188095487654
1761475301266162700,8.85816259765625,-0.0005515055381692946,-0.0010876916348934174,-0.00040088657988235354
1761475301276139800,8.868139892578125,-0.001810648012906313,0.0006146009545773268,-0.0020587043836712837
1761475301286116600,8.87811669921875,-0.0012926640920341015,0.00010925973765552044,-0.002091379836201668
1761475301296093700,8.88809375,-0.00009104580385610461,-0.0016404371708631516,-0.0014666022034361959
1761475301306070800,8.89807080078125,-0.0024257050827145576,-0.0017138308612629771,0.0003452784148976207
1761475301316047600,8.908047607421874,0.000026799854822456837,-0.000416605151258409,-0.00009574103751219809
1761475301326024700,8.918024658203125,-0.001423030043952167,0.0015365136787295341,0.0016162509564310312
1761475301336001500,8.92800146484375,-0.00043473090045154095,-0.0011689916718751192,-0.0014788748230785131
1761475301345979600,8.937979736328124,-0.0011714017018675804,0.001347436336800456,0.0014787011314183474
1761475301355956700,8.947956787109375,-0.00033783219987526536,-0.0006187756080180407,-0.001983141992241144
1761475301365933600,8.95793359375,0.0008822647505439818,0.0020632841624319553,0.00015731886378489435
1761475301375910700,8.96791064453125,-0.0009209616691805422,-0.001548494677990675,0.0037094431463629007
1761475301385887700,8.9778876953125,-0.0004633371136151254,0.0014348207041621208,-0.0015660490607842803
1761475301395864800,8.98786474609375,-0.000018056656699627638,0.0013503986410796642,0.00022785627515986562
1761475301405841700,8.997841552734375,-0.001347265439108014,0.0004452744033187628,0.00046759514953009784
1761475301415818800,9.00781884765625,0.0012288102880120277,-0.00021012965589761734,0.0001080684014596045
1761475301425796900,9.017796875,0.0019619823433458805,0.00018455390818417072,0.0026475535705685616
1761475301435773700,9.027773681640625,-0.002160058356821537,-0.0002386225387454033,-0.002435622038319707
1761475301445750800,9.037750732421875,0.0012036000844091177,0.0005146465264260769,-0.00011046804866055027
1761475301455727900,9.047727783203126,-0.00037112704012542963,0.002321335021406412,-0.0028359470888972282
1761475301465704700,9.05770458984375,-0.002539532957598567,-0.00009662634693086147,0.0016027971869334579
1761475301475681800,9.067681884765625,0.000194734544493258,0.00006715790368616581,-0.0006835265667177737
1761475301485658600,9.07765869140625,0.0011684857308864594,-0.0005076476372778416,-0.0008415349875576794
1761475301495635700,9.0876357421875,0.0010803351178765297,-0.0025835817214101553,0.0034160607028752565
1761475301505613800,9.09761376953125,0.0013813424156978726,-0.0014813171001151204,0.0015946244820952415
1761475301515590700,9.107590576171875,0.00033285588142462075,0.0015235275495797396,-0.0020078334491699934
1761475301525567700,9.117567626953125,0.0001525407424196601,0.002168000442907214,-0.001563422498293221
1761475301535544600,9.127544677734376,0.001104620867408812,-0.0004461584612727165,0.0004187682643532753
1761475301545521700,9.137521728515624,-0.00010162871330976486,-0.0001988220028579235,-0.0013273331569507718
1761475301555498500,9.14749853515625,-0.00020895409397780895,-0.0029541284311562777,0.002292169025167823
1761475301565475600,9.1574755859375,0.0006725144921801984,-0.00178784120362252,0.0003323170531075448
1761475301575453000,9.167452880859376,-0.00186627684161067,0.0021187495440244675,0.0009259356302209198
1761475301585430500,9.177430419921874,0.0008285886142402887,0.0012535022106021643,-0.0033068822231143713
1761475301595407600,9.18740771484375,0.0003918302245438099,-0.0009020603029057384,0.00015895545948296785
1761475301605384700,9.197384765625,-0.0003148486721329391,-0.0010633493075147271,0.0023383055813610554
1761475301615361800,9.20736181640625,0.0006878314889036119,-0.0004652033094316721,-0.0017925235442817211
1761475301625339000,9.2173388671875,0.0010240154806524515,-0.001337292604148388,0.0035547888837754726
1761475301635315700,9.227315673828125,0.0001909786369651556,-0.0008576572872698307,-0.0013326442567631602
1761475301645292800,9.237292724609375,0.001744053908623755,-0.0005542004946619272,0.002547726035118103
1761475301655269600,9.24726953125,-0.0002780843060463667,-0.0016327807679772377,0.0013080245116725564
1761475301665246700,9.257246826171874,-0.0010393508709967136,0.00031222240068018436,-0.0009440549183636904
1761475301675224800,9.267224853515625,-0.002583984285593033,-0.0019245664589107037,-0.0005254060379229486
1761475301685201700,9.27720166015625,-0.001933008898049593,-0.0015536844730377197,-0.0006290921010077
1761475301695178800,9.2871787109375,0.0015003383159637451,0.0003241105005145073,-0.000560915214009583
1761475301705155600,9.297155517578124,0.0008535048691555858,-0.0016048102406784892,0.0006436848198063672
1761475301715132700,9.307132568359375,-0.00037367973709478974,0.0010980318766087294,0.002234923653304577
1761475301725109800,9.31710986328125,-0.0017073600320145488,-0.00005293963477015495,0.0006542851915583014
1761475301735086600,9.327086669921876,-0.0005922946147620678,-0.00023856200277805328,-0.0004456002789083868
1761475301745062700,9.337062744140624,-0.0025320430286228657,0.001242655562236905,-0.0024000073317438364
1761475301755040800,9.347040771484375,0.0012182205682620406,-0.0011651082895696163,-0.001378418761305511
1761475301765017600,9.357017578125,-0.0015531493118032813,-0.0019466271623969078,-0.0015014223754405975
1761475301774994700,9.36699462890625,-0.0037428000941872597,-0.00016790186055004597,-0.00018848400213755667
1761475301784971500,9.376971435546874,-0.00004020938649773598,0.0009503636974841356,0.002703628037124872
1761475301794948600,9.386948486328125,0.0016165431588888168,0.0012835250236093998,-0.0006466287304647267
1761475301804925700,9.39692578125,0.00044750439701601863,0.003298188094049692,-0.0017605888424441218
1761475301814902500,9.406902587890626,0.0010341987945139408,-0.0007042767247185111,-0.002413063542917371
1761475301824879600,9.416879638671874,-0.0005321968346834183,-0.0004463006043806672,-0.00020321983902249485
1761475301834856400,9.4268564453125,-0.00043632311280816793,0.0003491856623440981,-0.002963586477562785
1761475301844834600,9.43683447265625,0.00012621987843886018,0.002322116633877158,-0.0016359155997633934
1761475301854811600,9.446811767578126,0.00053341721650213,0.0005521799903362989,0.00343207991681993
1761475301864788500,9.45678857421875,-0.0001844210783019662,-0.0011803603265434504,-0.001084851217456162
1761475301874765600,9.466765625,0.0005769766867160797,-0.0014059300301596522,-0.00014448905130848289
1761475301884742400,9.476742431640625,-0.00006523914635181427,-0.001074860105291009,0.002303872723132372
1761475301894719500,9.486719482421876,-0.0008474095957353711,-0.0033670428674668074,0.0013161062961444259
1761475301904696600,9.496696533203124,0.0022147877607494593,0.00011786911636590958,-0.0007768856594339013
1761475301914673700,9.506673583984375,-0.001856120303273201,0.0010877924505621195,-0.0023406939581036568
1761475301924651500,9.516651611328125,0.0007552436436526477,0.00112833920866251,-0.0011948063038289547
1761475301934628600,9.526628662109376,-0.0012498503783717752,-0.0012530594831332564,0.0016526455292478204
1761475301944605700,9.536605712890625,-0.0005415615742094815,-0.000010306015610694885,-0.00030700978823006153
1761475301954582800,9.546582763671875,0.0010904234368354082,-0.0001474588643759489,0.00001736321792122908
1761475301964559600,9.5565595703125,-0.0007239446858875453,-0.0014098112005740404,0.0011495500802993774
1761475301974536700,9.56653662109375,0.0014209651853889227,-0.0015560188330709934,-0.002355436095967889
1761475301984513500,9.576513427734374,0.0033932544756680727,0.0009607889223843813,0.0017868471331894398
1761475301994490600,9.58649072265625,-0.000723992649000138,-0.00025068316608667374,-0.0004957482451573014
1761475302004468700,9.59646875,-0.00004019093466922641,0.0015324456617236137,0.00016890637925826013
1761475302014445600,9.606445556640624,0.00012039771536365151,-0.0006359000690281391,-0.00028383100288920105
1761475302024422700,9.616422607421875,0.000033326155971735716,-0.0009482433088123798,0.0015833352226763964
1761475302034399500,9.6263994140625,0.0011630391236394644,0.00021902029402554035,-0.00007767836359562352
1761475302044376600,9.63637646484375,-0.001566283404827118,0.0007896933238953352,-0.0010328502394258976
1761475302054353400,9.646353515625,0.000741878233384341,-0.0013371070381253958,0.0025123499799519777
1761475302064330500,9.65633056640625,-0.00040636613266542554,-0.0022818581201136112,0.0016280626878142357
1761475302074307600,9.6663076171875,-0.0002452448825351894,0.0002281712368130684,-0.00024147628573700786
1761475302084284400,9.676284423828125,-0.0018792117480188608,-0.0005693696439266205,-0.004480949603021145
1761475302094262500,9.686262451171874,-0.0015431207139045,0.0006120086181908846,-0.00034905498614534736
1761475302104239400,9.6962392578125,0.0005759048508480191,-0.00039996521081775427,-0.003776680678129196
1761475302114216400,9.706216552734375,-0.000005196896381676197,0.003209150629118085,-0.0014211147790774703
1761475302124193800,9.71619384765625,-0.002037279075011611,0.0007813661359250546,-0.0009845964377745986
1761475302134170600,9.726170654296874,-0.00019676832016557455,0.0003011981025338173,0.00032274931436404586
1761475302144147700,9.736147705078125,-0.0014784211525693536,0.001694132573902607,-0.003391092177480459
1761475302154124500,9.74612451171875,-0.001643803552724421,0.00025203078985214233,0.00022095319582149386
1761475302164101600,9.7561015625,0.0001701836590655148,-0.00025337631814181805,-0.002015044679865241
1761475302174079700,9.766079833984374,-0.0008146533509716392,-0.00004138867370784283,-0.0030496828258037567
1761475302184056600,9.776056640625,0.0012698855716735125,0.0003050016239285469,0.0007266767206601799
1761475302194033700,9.78603369140625,0.0008680145256221294,-0.000572243588976562,-0.0034811177756637335
1761475302204010500,9.796010498046876,0.0009683608659543097,-0.001165864639915526,0.002086496213451028
1761475302213987600,9.805987548828124,-0.002674577059224248,0.0014600122813135386,-0.0043532936833798885
1761475302223964700,9.815964599609375,0.0010212149936705828,-0.0004445349331945181,-0.0033901457209140062
1761475302233941500,9.82594140625,-0.00243183970451355,-0.0003715642960742116,-0.002815169282257557
1761475302243918600,9.835918701171876,0.001784731401130557,0.001354398438706994,-0.0005569050554186106
1761475302253895400,9.8458955078125,0.0010747326305136085,-0.0027412772178649902,-0.000039985490730032325
1761475302263873500,9.85587353515625,-0.0017836084589362144,-0.0014304916840046644,-0.0012345148716121912
1761475302273850600,9.8658505859375,-0.00005654862616211176,-0.003158084349706769,-0.001370336045511067
1761475302283827500,9.875827392578126,-0.000050235423259437084,0.0013282953295856714,-0.0004964691470377147
1761475302293804500,9.885804443359374,-0.0011557135730981827,-0.000015003141015768051,-0.0034975854214280844
1761475302303781600,9.89578173828125,-0.002353811636567116,0.00016980781219899654,0.0009964704513549805
1761475302313758700,9.9057587890625,0.0008398512145504355,0.00009044562466442585,-0.002313039731234312
1761475302323735600,9.915735595703126,-0.0003437476698309183,0.000869514187797904,0.0006428155465982854
1761475302333712600,9.925712646484374,-0.0008745156228542328,-0.0009030858054757118,0.0008324325899593532
1761475302343690800,9.935690673828125,0.00014183064922690392,0.00029159383848309517,0.00017660600133240223
1761475302353667600,9.94566748046875,-0.0013612573966383934,0.0012138464953750372,0.002101538935676217
1761475302363644700,9.955644775390626,-0.001026754267513752,-0.002363035222515464,-0.002047793474048376
1761475302373621500,9.96562158203125,0.0011708862148225307,0.0020415668841451406,0.0009661057847552001
1761475302383598600,9.9755986328125,0.0022451167460530996,0.00065829255618155,0.00035602867137640715
1761475302393575700,9.98557568359375,0.0021340628154575825,-0.001311647822149098,0.002637558849528432
1761475302403552500,9.995552490234376,0.00021467433543875813,-0.0003898285795003176,0.00010152784670935944
1761475302413529600,10.005529541015624,-0.0002593683893792331,0.000129754189401865,-0.0002582652377896011
1761475302423506400,10.01550634765625,-0.0002614425611682236,-0.001600784482434392,0.0014870528830215335
1761475302433484500,10.025484619140625,-0.0030186132062226534,0.0032088845036923885,-0.00046291365288197994
1761475302443461600,10.035461669921874,-0.00047836615703999996,0.00044233142398297787,0.0012984334025532007
1761475302453438500,10.0454384765625,-0.00013561727246269584,0.00006522773765027523,-0.00047310127411037683
1761475302463415600,10.05541552734375,0.000273216690402478,-0.001035383902490139,-0.0001862989884102717
1761475302473392400,10.065392333984375,-0.0008791330619715154,0.0033484455198049545,-0.0014739373000338674
1761475302483369500,10.075369384765626,-0.00012209458509460092,0.001682189991697669,0.002147100633010268
1761475302493346800,10.085346923828125,-0.0018733893521130085,0.00018149870447814465,-0.0005930258193984628
1761475302503323600,10.09532373046875,-0.002545387949794531,0.0021815760992467403,-0.00141676957719028
1761475302513300700,10.10530078125,-0.00010912813013419509,0.00041723158210515976,-0.0008154278039000928
1761475302523278600,10.115278564453124,0.0033549361396580935,-0.0005569023778662086,0.001250589033588767
1761475302533255700,10.125255615234375,-0.0018299720250070095,0.0019661765545606613,-0.0007009754190221429
1761475302543232800,10.135232666015625,0.0007300111465156078,0.0013907239772379398,-0.002252591773867607
1761475302553209600,10.145209716796876,-0.0036402361001819372,-0.00034192868042737246,0.002332838950678706
1761475302563186700,10.155186767578124,-0.0012062429450452328,-0.00003230571746826172,-0.0018193461000919342
1761475302573163500,10.16516357421875,-0.0034685982391238213,0.0011109893675893545,-0.0009258555946871638
1761475302583140600,10.175140625,-0.00006979145109653473,0.0008345162495970726,0.0011055810609832406
1761475302593117400,10.185117431640625,-0.00021520000882446766,-0.0007335529662668705,0.0004914561868645251
1761475302603095600,10.195095458984374,-0.001473494921810925,0.0012237993068993092,-0.0009515179554000497
1761475302613072600,10.20507275390625,-0.0027960208244621754,-0.0026961076073348522,0.00032440252834931016
1761475302623049500,10.215049560546875,-0.0001473196316510439,0.0000953043345361948,0.00047972664469853044
1761475302633026600,10.225026611328126,-0.0005704959039576352,-0.00030576763674616814,-0.0008404022664763033
1761475302643003400,10.23500341796875,0.001820351928472519,-0.001250688685104251,0.00038832068094052374
1761475302652980500,10.24498046875,-0.0000017828424461185932,0.00034667528234422207,0.0010879330802708864
1761475302662957600,10.25495751953125,-0.0007371761021204293,-0.000044489745050668716,0.0017349025001749396
1761475302672934700,10.2649345703125,-0.0019158911891281605,0.0013118581846356392,-0.00048936961684376
1761475302682911700,10.274911865234374,-0.0005881930701434612,0.0011306607630103827,0.002736690454185009
1761475302692889600,10.2848896484375,-0.0009900641161948442,-0.001487226691097021,-0.0023704534396529198
1761475302702866400,10.294866455078125,0.00047232265933416784,-0.0009675843175500631,-0.0005776385078206658
1761475302712843800,10.30484375,-0.0005071880295872688,-0.0008328284602612257,-0.002842124318704009
1761475302722820600,10.314820556640624,0.0011703732889145613,0.00033826776780188084,0.0016105675604194403
1761475302732797700,10.324797607421875,0.0013418809976428747,0.0013558617793023586,0.00016740054707042873
1761475302742775600,10.334775634765625,-0.00017377367476001382,-0.0025189132429659367,0.0005842025857418776
1761475302752752400,10.34475244140625,-0.0022683499846607447,0.0023866293486207724,0.0009826114401221275
1761475302762729500,10.3547294921875,-0.0009152357815764844,0.0014943163841962814,0.0005426828283816576
1761475302772706600,10.36470654296875,0.00008158542914316058,0.0015262742526829243,-0.0019199420930817723
1761475302782684400,10.374684326171876,-0.0014586709439754486,-0.001207539695315063,-0.001775721088051796
1761475302792661500,10.38466162109375,0.000003936991561204195,0.00143138668499887,-0.002477730391547084
1761475302802638300,10.394638427734375,-0.00004310533404350281,0.0008387465495616198,-0.00027848550234921277
1761475302812615400,10.404615478515625,-0.0006396534736268222,-0.0008803238160908222,-0.002525927033275366
1761475302822592500,10.414592529296876,0.0004431160632520914,-0.0008045070571824908,0.0009840414859354496
1761475302832569300,10.4245693359375,0.0031638015061616898,-0.0015949332155287266,0.0017771308775991201
1761475302842546400,10.43454638671875,0.0003194360760971904,0.00004281173460185528,0.000365466286893934
1761475302852523300,10.444523193359375,-0.0005895007634535432,0.0018401790875941515,-0.004409581422805786
1761475302862500400,10.454500244140625,0.00028100027702748775,0.00044007645919919014,-0.002848090371116996
1761475302872478500,10.464478515625,0.0007289439672604203,-0.0015000364510342479,-0.000030732175218872726
1761475302882455300,10.474455322265625,-0.0004637299571186304,0.00011199410073459148,-0.0011134138330817223
1761475302892432400,10.484432373046875,0.0000518580200150609,0.00012903823517262936,-0.0030157100409269333
1761475302902409200,10.4944091796875,0.00011040933895856142,-0.0020441615488380194,-0.00029126968001946807
1761475302912386300,10.50438623046875,0.00022119685309007764,-0.0006502630421891809,-0.0014920891262590885
1761475302922363400,10.51436328125,0.0008345015230588615,0.0013082132209092379,0.0019848390948027372
1761475302932340500,10.524340576171875,-0.00023475760826840997,-0.0001666455063968897,0.0013637900119647384
1761475302942317600,10.534317626953126,-0.0014151734067127109,0.00025999313220381737,0.0003380057751201093
1761475302952295400,10.54429541015625,0.0017398735508322716,0.00008395826444029808,-0.00031074025901034474
1761475302962272500,10.5542724609375,0.00045900698751211166,0.00011522346176207066,-0.00007516253390349448
1761475302972249600,10.56424951171875,0.0002728520194068551,0.0018806331790983677,-0.0009119276655837893
1761475302982226400,10.574226318359376,-0.000467437959741801,-0.0007600410608574748,0.002231983235105872
1761475302992203500,10.58420361328125,0.00009182584472000599,0.000703632365912199,0.0010087934788316488
1761475303002180400,10.594180419921875,0.0022807300556451082,-0.0005895036738365889,-0.000019139726646244526
1761475303012157400,10.604157470703125,-0.002061554230749607,-0.00007817684672772884,-0.0015901384176686406
1761475303022134300,10.61413427734375,-0.0011221661698073149,0.0005845241248607635,-0.0016320275608450174
1761475303032111400,10.624111328125,0.000020329898688942194,-0.0026706578209996223,0.0007722741574980319
1761475303042089500,10.63408935546875,-0.0010025415103882551,0.001239244593307376,0.0003131949342787266
1761475303052066300,10.64406640625,-0.0009301035315729678,-0.0009749074233695865,0.0009177324827760458
1761475303062043400,10.65404345703125,0.001399367698468268,0.000742810545489192,-0.0005580257857218385
1761475303072020200,10.664020263671874,-0.0008637866121716797,-0.0005275174044072628,-0.0012549750972539186
1761475303081997300,10.673997314453125,0.001963948830962181,0.0012583318166434765,0.00392787205055356
1761475303091974400,10.683974365234375,0.000797217944636941,0.0011515391524881124,-0.0024679754860699177
1761475303101951500,10.693951416015626,0.00013698532711714506,-0.002105596475303173,0.0003922018804587424
1761475303111928600,10.703928466796874,-0.0024124588817358017,0.0002829926088452339,0.0006350821349769831
1761475303121905400,10.713905517578125,-0.002480566268786788,0.0021090672817081213,0.0008588416967540979
1761475303131883300,10.72388330078125,0.000007891503628343344,-0.001418289728462696,-0.002437885385006666
1761475303141860600,10.733860595703124,0.00013189669698476791,0.0012227469123899937,0.00026629032799974084
1761475303151837400,10.74383740234375,0.001428856048732996,0.0004107491113245487,0.001257518888451159
1761475303161814500,10.753814453125,-0.0013333336682990193,0.0021743103861808777,-0.0001920869981404394
1761475303171791400,10.763791259765625,0.001003057579509914,0.00003925408236682415,0.002288647461682558
1761475303181768400,10.7737685546875,0.00018374569481238723,-0.0004857166204601526,0.0006163989892229438
1761475303191745500,10.78374560546875,-0.002433609217405319,0.0025185951963067055,0.0029208322521299124
1761475303201722400,10.793722412109375,-0.0019931108690798283,-0.0005378825590014458,0.0012162989005446434
1761475303211700500,10.803700439453126,-0.0016519598430022597,0.0001012762077152729,0.00027087677153758705
1761475303221677300,10.81367724609375,-0.0008830138249322772,-0.00005686422809958458,0.0031175531912595034
1761475303231654400,10.823654296875,0.0007657491369172931,0.0002805583644658327,0.0002868793089874089
1761475303241631500,10.833631591796875,-0.000393588503357023,-0.0011690077371895313,-0.0023304300848394632
1761475303251608300,10.8436083984375,0.0006770022446289659,-0.0002717887982726097,-0.0015637060860171914
1761475303261585400,10.85358544921875,-0.0011712433770298958,-0.0016217045485973358,0.0002953374641947448
1761475303271562200,10.863562255859375,0.000292163691483438,0.000171934487298131,0.00047004083171486855
1761475303281539300,10.873539306640625,0.0023390892893075943,0.0004962731618434191,-0.002168008591979742
1761475303291516400,10.883516357421875,-0.00009317579679191113,-0.00010080751962959766,-0.0009562703198753297
1761475303301494300,10.893494384765624,0.0011135968379676342,-0.001943877199664712,-0.0035531199537217617
1761475303311471400,10.903471435546875,0.00223079277202487,-0.0009033802198246121,0.0004991458263248205
1761475303321448400,10.913448486328125,-0.00043704581912606955,-0.00026174611411988735,0.0008775840396992862
1761475303331425500,10.923425537109376,-0.00021174235735088587,-0.0003078187583014369,-0.0001980667293537408
1761475303341402400,10.93340234375,-0.0010713455267250538,-0.001880297320894897,-0.0007158824009820819
1761475303351379500,10.94337939453125,-0.0009179473854601383,0.0009977808222174644,0.0026373036671429873
1761475303361356500,10.9533564453125,-0.00038646277971565723,0.00025081727653741837,0.0002300956257386133
1761475303371333400,10.96333349609375,-0.000843993853777647,-0.00016809790395200253,0.0014793844893574715
1761475303381310500,10.973310546875,0.0011413113679736853,-0.0008404896361753345,-0.003142981557175517
1761475303391288600,10.98328857421875,-0.0003431346267461777,0.0003009412903338671,0.0008895769715309143
1761475303401265400,10.993265380859375,0.0002804571995511651,-0.0008227615617215633,0.0020842384546995163
1761475303411242500,11.003242431640626,-0.000808775657787919,0.0013437201268970966,0.002814743435010314
1761475303421219300,11.01321923828125,0.001483518397435546,0.0005520412232726812,0.0009691809536889195
1761475303431196400,11.023196533203125,-0.003456379286944866,0.00009717349894344807,0.0002456000947859138
1761475303441173200,11.03317333984375,-0.000278087449260056,0.0022887401282787323,-0.0008691441616974771
1761475303451150300,11.043150390625,0.0006668020505458117,-0.0007264907471835613,0.0013330236542969942
1761475303461127400,11.05312744140625,-0.001184295630082488,0.00043493788689374924,0.002253066748380661
1761475303471104300,11.063104248046875,-0.0006178412586450577,-0.0017451257444918156,0.0005055003566667438
1761475303481082400,11.073082275390625,0.0011732320999726653,0.0007775754202157259,0.000691839144565165
1761475303491059200,11.08305908203125,-0.0000603440566919744,0.0013687971513718367,0.0006369780167005956
1761475303501036300,11.093036376953124,0.00046056724386289716,-0.002702046651393175,0.0025179265066981316
1761475303511013600,11.103013671875,0.0003290071035735309,-0.0013901734491810203,0.009042404592037201
1761475303520990500,11.112990478515625,-0.002868024632334709,-0.0024289076682180166,0.006806899327784777
1761475303530967600,11.122967529296876,0.0013272531796246767,0.0016878065653145313,-0.002356505487114191
1761475303540944400,11.1329443359375,0.0011840971419587731,-0.0003329573664814234,-0.0029323487542569637
1761475303550921500,11.14292138671875,-0.00043483846820890903,0.002520086942240596,-0.0033355513587594032
1761475303560898300,11.152898193359375,-0.002524057636037469,0.0017583223525434732,-0.0031331218779087067
1761475303570876400,11.16287646484375,-0.001539486926048994,-0.0006121571641415358,-0.0020526773296296597
1761475303580853500,11.172853515625,0.00025864335475489497,-0.00034296850208193064,0.0004014256992377341
1761475303590830300,11.182830322265625,-0.0013078281190246344,0.0005776863545179367,-0.0013325584586709738
