time,seconds_elapsed,z,y,x
1761476331951886300,0.12288623046875,0.00919160671532154,0.0014090630803257225,0.016325075324438512
1761476331961919500,0.13291943359375,0.01839022769331932,0.003965396499633789,0.002620082837902009
1761476331971952400,0.142952392578125,0.05741232452690601,-0.005251052395999431,-0.006687788934540003
1761476331981986600,0.152986572265625,0.07465104409754277,-0.0005677899505943059,-0.019536054993886498
1761476331992019500,0.16301953125,0.1031353803038597,-0.004204465952515602,-0.025067951891571284
1761476332002052600,0.173052490234375,0.08461714231669902,0.014592954302206635,-0.016972159322630614
1761476332012085500,0.18308544921875,0.020726561686396597,-0.008763006039708853,-0.005130951413977891
1761476332022119400,0.193119384765625,-0.021941782695055007,-0.02789528427198529,0.008654211902990937
1761476332032152300,0.20315234375,-0.025746435675024985,-0.05290178829990327,0.020548867031931876
1761476332042185500,0.213185546875,-0.012644377517700195,-0.05512801298201084,0.02435118192434311
1761476332052218400,0.22321826171875,0.010616086560487747,-0.04880136724375188,0.01465199101306498
1761476332062252500,0.23325244140625,0.030705519387125967,-0.014019611393660305,0.009768036630097777
1761476332072285400,0.243285400390625,0.05618892021179199,0.031442016968131065,-0.006590940963942557
1761476332082318600,0.253318603515625,0.0902735606431961,0.017676745661720634,-0.04932139079617336
1761476332092351500,0.2633515625,0.1213303776860237,0.021897359031438825,-0.07572808047821745
1761476332102385400,0.273385498046875,0.13570610904097558,0.017911504265666008,-0.06541693168105557
1761476332112418300,0.283418212890625,0.10069792402386665,0.009434329430013894,-0.04439648334830999
1761476332122451500,0.293451416015625,0.018473814323544502,-0.0032128245666623112,-0.012622293550055473
1761476332132484400,0.303484375,-0.036731940069794654,-0.026508798349648713,0.007406677793618291
1761476332142518500,0.3135185546875,-0.05784545524716377,-0.038286914426833386,0.02828095912132412
1761476332152551400,0.323551513671875,-0.013717559707164763,-0.02813493824675679,0.02079111482258886
1761476332162584600,0.33358447265625,0.05063128608465194,-0.02057831232212484,0.015478121372591703
1761476332172618800,0.34361865234375,0.08071253609359264,-0.02490976565517485,0.013336067842599005
1761476332182651400,0.3536513671875,0.07922726597189902,-0.010315057787299155,0.00748957030409947
1761476332192684300,0.363684326171875,0.056496963247656816,0.00013750877454876898,0.0020491510821506378
1761476332202717400,0.373717529296875,0.01792962444424629,0.011195640014111994,0.00495751280952245
1761476332212751600,0.383751708984375,0.004966097974777222,0.015467106788232921,0.0130720831441693
1761476332222784500,0.393784423828125,0.01651625051498413,0.0035001170754432676,0.022948512052185833
1761476332232817400,0.4038173828125,0.04660042313337326,-0.008005977127328515,0.027090945619158445
1761476332242850600,0.4138505859375,0.06710954267680645,-0.013558204426988959,0.02993135667685419
1761476332252884700,0.423884765625,0.04451952520608902,-0.021714330614730715,0.0316467822926119
1761476332262917600,0.433917724609375,0.01457914497256279,-0.05355608749017119,0.023601423002965746
1761476332272950500,0.443950439453125,-0.009251227948069572,-0.06223528770394623,0.021863383696600795
1761476332282984400,0.453984375,-0.007228197687864303,-0.05460735010877251,0.003590918897744268
1761476332293017600,0.464017578125,0.03416121279895305,-0.030741102157160638,-0.02026265223538503
1761476332303050500,0.474050537109375,0.08172434348464011,0.008453574764356016,-0.023554624719172714
1761476332313083400,0.48408349609375,0.12231705063581466,0.02107742095068097,-0.03294827507892623
1761476332323117600,0.49411767578125,0.1258715282469988,0.006330445130541921,-0.04251965662576258
1761476332333150700,0.504150634765625,0.09936930576860904,-0.012579203327000141,-0.03756959647033364
1761476332343183600,0.51418359375,0.05430149902999401,-0.013941066264733671,-0.018466544332541523
1761476332353216500,0.524216552734375,0.02204875020086765,-0.018475056432560085,0.01197871668320149
1761476332363250400,0.53425048828125,-0.006836568021774292,-0.006088818394392729,0.041159273259062316
1761476332373283600,0.54428369140625,-0.032329905718564984,-0.0035308044746518133,0.0462662044766359
1761476332383316500,0.55431640625,-0.0047118309527635575,-0.014901727990433572,0.042973300411086525
1761476332393350700,0.5643505859375,0.019772037440538404,-0.016563815983757377,0.015685480512958018
1761476332403383600,0.574383544921875,0.06507774458825588,-0.006390650885179638,-0.01957030432336032
1761476332413416700,0.584416748046875,0.09783902746140956,-0.0001695844132453203,-0.04190625570146367
1761476332423449600,0.59444970703125,0.0945692120105028,0.017486995243281126,-0.045699145178403705
1761476332433483500,0.6044833984375,0.08129296633005141,0.01717858688123524,-0.04468121857382357
1761476332443516400,0.614516357421875,0.05080664265155792,0.013810060296207665,-0.022619298364128917
1761476332453549600,0.624549560546875,0.03215162654221058,-0.0013716536793857812,-0.01330444886162877
1761476332463583500,0.63458349609375,0.03969020535349846,-0.01807707009091973,-0.020353362726140765
1761476332473616600,0.64461669921875,0.04258241966366768,-0.021481106380745768,-0.011164861283358186
1761476332483649500,0.6546494140625,0.024324293917417524,-0.0345962432153523,-0.005022924462240189
1761476332493683500,0.664683349609375,0.011714403191208839,-0.048477030660212035,0.009512052575033158
1761476332503721200,0.67472119140625,-0.004047814086079597,-0.0674035571873188,0.013777180939912795
1761476332513754400,0.68475439453125,0.016262568014860153,-0.060634866769984364,0.002629289057664573
1761476332523787300,0.694787353515625,0.048261049821972844,-0.04163695550709963,-0.0004839841246604919
1761476332533821400,0.704821533203125,0.08253390630185603,-0.03783464061468839,-0.008360380055569112
1761476332543854300,0.714854248046875,0.07972294053435325,-0.035093817473948,-0.012278795608319341
1761476332553887500,0.724887451171875,0.05551555099487304,-0.04502411372736096,0.009129117672052234
1761476332563921200,0.734921142578125,0.03804302266836166,-0.035835794947668906,0.01371591573935002
1761476332573954300,0.744954345703125,0.006169628545641899,-0.03274199365079403,0.029418310854490846
1761476332583987200,0.7549873046875,-0.007176175239682197,-0.02019479289725423,0.03323375922311097
1761476332594021400,0.765021484375,-0.0006406359910964965,0.0007910042472183704,0.03635812005503103
1761476332604054300,0.77505419921875,0.01846037032008171,0.0016940905667841434,0.02971457212101668
1761476332614087400,0.78508740234375,0.037570144459605215,-0.015551131809875367,0.011926621169783174
1761476332624120300,0.795120361328125,0.06597498568892479,-0.008925649255514144,0.0034489166111685335
1761476332634154200,0.805154296875,0.06879997998178004,-0.00594159194342792,-0.021615290687046942
1761476332644187100,0.815187255859375,0.07552315075695515,-0.009735650464147328,-0.029946919572167097
1761476332654220300,0.82522021484375,0.07088438504040241,-0.005084609787911177,-0.03234473796151578
1761476332664254200,0.835254150390625,0.04652852694094181,-0.006323576998338103,-0.020905772444512694
1761476332674287400,0.845287353515625,0.04237140726149082,-0.007695961330085993,-0.019406601661629972
1761476332684320300,0.8553203125,0.03415127592682838,-0.009611731823533773,-0.01807434841087088
1761476332694354200,0.865354248046875,0.0244213245511055,0.003363192822784185,-0.01504314575511962
1761476332704387000,0.875386962890625,0.032192543074488635,-0.0018149404674768447,-0.011121734527684748
1761476332714420200,0.885420166015625,0.03233049024045467,0.00502813036032021,-0.010158899111207573
1761476332724454400,0.895454345703125,0.035170682102441786,0.013999153127521275,-0.01749161661947146
1761476332734487300,0.9054873046875,0.03592296177446842,0.007148410449922084,-0.01925656219907105
1761476332744520200,0.915520263671875,0.04657178156077862,-0.004006239966675639,-0.020354239508975296
1761476332754554400,0.925554443359375,0.040459436160326004,0.00023081308118999002,-0.013362407860253006
1761476332764587500,0.93558740234375,0.0392874697715044,-0.003979571155458689,-0.009030899728275836
1761476332774620400,0.945620361328125,0.03510755373835563,0.0034410803645849226,-0.004875296152476221
1761476332784653300,0.9556533203125,0.03212649210095406,0.0012114946816116571,-0.0005181786552071571
1761476332794687200,0.965687255859375,0.01941197195649147,-0.014889599161222577,0.003337017201911658
1761476332804720400,0.975720458984375,0.03392974213063717,-0.029352497342973946,-0.0003279898453503847
1761476332814753300,0.985753173828125,0.03364332640469074,-0.03991699984669685,0.006044686991721391
1761476332824787500,0.995787353515625,0.05327215598225593,-0.044982904934138056,0.0038389023094438013
1761476332834820400,1.0058203125,0.038330022916197776,-0.03595847147926688,0.010210976358316838
1761476332844853500,1.015853515625,0.02577157011628151,-0.018336451679468155,0.020602277719601988
1761476332854887200,1.02588720703125,0.017239304092526435,-0.011640461172163486,0.024043029290623963
1761476332864920300,1.03592041015625,-0.0026654198169708252,-0.009049275635182857,0.04173215950988233
1761476332874953200,1.045953125,-0.01645955189168453,-0.01788943856433034,0.0496987179422751
1761476332884987400,1.0559873046875,0.004280453798174858,-0.02749598275609314,0.05309274429474026
1761476332895020300,1.066020263671875,0.020081249520182608,-0.03115406687222421,0.041689069286826995
1761476332905053400,1.076053466796875,0.031254969963431356,-0.032674992829188704,0.019719028611667452
1761476332915087000,1.086087158203125,0.054418987929821014,-0.030076793029531836,0.00036720761088654397
1761476332925120300,1.096120361328125,0.04827449382543564,-0.03727247668728232,-0.012471706098224967
1761476332935153200,1.106153076171875,0.05681260506808757,-0.03765840726494789,-0.016603764401655643
1761476332945187300,1.116187255859375,0.053390229403972624,-0.0321659473285079,-0.019667809881083666
1761476332955220200,1.12622021484375,0.0406990901350975,-0.02060417741574347,-0.011334920620638877
1761476332965253400,1.13625341796875,0.03772445823848247,-0.008905410185083746,-0.016012118651438503
1761476332975287300,1.146287353515625,0.03204875068962574,-0.009495631163194775,-0.003856072639953345
1761476332985320400,1.156320556640625,0.02336976967155933,-0.013099135547876357,0.0036941052775830026
1761476332995353300,1.166353271484375,0.02306757185459137,-0.009673325817659497,-0.0020131847196258605
1761476333005386200,1.17638623046875,0.03593056055903435,-0.004750336332246661,-0.0010027473017573357
1761476333015420200,1.186420166015625,0.0374228449434042,0.001057107837498188,0.00523342540776357
1761476333025453300,1.196453369140625,0.05044540812373161,-0.0031098756488412618,0.0012081336807459593
1761476333035486200,1.206486328125,0.043563831916451454,-0.01629888143725693,0.004296363753359764
1761476333045520400,1.216520263671875,0.028592472755908965,-0.015959128088876604,0.004297477998211979
1761476333055553300,1.22655322265625,0.023620529562234878,-0.015176964735239743,-0.0024045586573891342
1761476333065586400,1.23658642578125,0.03228489753305912,-0.015071531599387525,-0.012233915286976843
1761476333075620400,1.246620361328125,0.03062836249768734,-0.01956014825552702,-0.017792955919913946
1761476333085653200,1.2566533203125,0.036463060000538824,-0.018659765349701044,-0.019227811028622088
1761476333095686100,1.26668603515625,0.026883915272355077,-0.019848317547142506,-0.012614968760125338
1761476333105720300,1.27672021484375,0.026427988198399543,-0.01273541680201888,-0.011306059852335602
1761476333115753500,1.28675341796875,0.04200725012421608,-0.023752923770248888,-0.012761921216454357
1761476333125786400,1.296786376953125,0.04410860631763935,-0.018314459043368696,-0.0042429347993806
1761476333135820300,1.3068203125,0.03110416331589222,-0.026037381445616483,-0.005057356454804539
1761476333145853200,1.316853271484375,0.018826281023025512,-0.035023601781949396,-0.006470365057885646
1761476333155886300,1.32688623046875,0.009251227948069572,-0.03936396907381713,-0.0023341237696819007
1761476333165920300,1.336920166015625,0.012979893082380295,-0.037822219524532553,-0.005630973357986659
1761476333175953400,1.346953369140625,0.022850714233517644,-0.031885230690985915,-0.01581562796495855
1761476333185986300,1.356986328125,0.02028992383480072,-0.03673683544062078,-0.0025398024096153675
1761476333196020500,1.3670205078125,0.03658756316304207,-0.025158625849708915,-0.00863209140272811
1761476333206053400,1.377053466796875,0.03882686652243137,-0.01689969687461853,-0.0030001864629797636
1761476333216086300,1.387086181640625,0.03599953414201736,-0.017853344337642192,-0.013080576977878807
1761476333226120200,1.3971201171875,0.04544248526990413,-0.018399799239262937,-0.010175868512317538
1761476333236153300,1.4071533203125,0.04592822296023369,-0.01977415633238852,-0.01803966068997979
1761476333246186200,1.417186279296875,0.038028994143009184,-0.013546221728250384,-0.009112056939397007
1761476333256220400,1.427220458984375,0.03685644323229789,-0.0013339520175009965,0.0008285597786307334
1761476333266253300,1.43725341796875,0.01141454346179962,0.006598594547435641,0.016737784311175345
1761476333276286500,1.447286376953125,-0.00012917933762073515,0.015474559442326426,0.019493713689502326
1761476333286320000,1.457320068359375,0.016160276684165,0.014548092247173188,0.017739399101771414
1761476333296353300,1.467353271484375,0.03231061649620533,0.005644800953939557,0.012680563075933605
1761476333306386200,1.47738623046875,0.05311433507204055,-0.020151830538362264,-0.007809303777758032
1761476333316420400,1.48742041015625,0.06106617085933685,-0.021935206823796034,-0.006709105717204511
1761476333326453200,1.497453369140625,0.04762216739654541,-0.014489786188676952,-0.00411709819631651
1761476333336486400,1.507486328125,0.02624211023747921,-0.028764979778602717,0.0011938494270667434
1761476333346520000,1.51752001953125,-0.0005418517917394638,-0.019827274759113788,0.010242741469759493
1761476333356553200,1.52755322265625,-0.004305588239431381,-0.011120382820814846,0.011757986604608594
1761476333366586000,1.537586181640625,0.007650222492218017,-0.019419570741057393,0.02308587469626218
1761476333376620300,1.547620361328125,0.012872341054677962,-0.027890096640214322,0.020591409265715628
1761476333386653200,1.557653076171875,0.03726677759885788,-0.021828896905109287,0.0035035511415451763
1761476333396686300,1.567686279296875,0.04519523251056671,-0.026969693859666584,0.00671875032838434
1761476333406720500,1.577720458984375,0.03650923722982406,-0.03371456500999629,0.01033155226437375
1761476333416753400,1.58775341796875,0.031421558701992036,-0.02674582197591662,0.004086958786379546
1761476333426786300,1.597786376953125,0.02903787843585014,-0.03534421203844249,0.0014258132857270537
1761476333436820200,1.6078203125,0.03383095793128013,-0.022604484387487172,0.006469068149942904
1761476333446853400,1.617853271484375,0.03248246593177318,-0.01732866287641227,0.011774444549065082
1761476333456886300,1.62788623046875,0.03158756291866302,-0.013211948272585868,0.004881579762790352
1761476333466920400,1.63792041015625,0.017525135296583175,-0.004623202821239829,0.002333100856374949
1761476333476953300,1.647953369140625,0.019342413851618764,-0.013155688040703535,0.008749525503627955
1761476333486986500,1.657986572265625,0.03237900555729866,-0.020524536308273673,-0.005301997131947428
1761476333497020200,1.668020263671875,0.02835340330302715,-0.026885449642315505,-0.006743336780369281
1761476333507048700,1.678048583984375,0.03239244956076145,-0.032271964986249804,-0.00792898463467136
1761476333517081600,1.68808154296875,0.03358019804060459,-0.024310703783482313,0.0005797178504057228
1761476333527115500,1.698115478515625,0.03447393200993538,-0.01676832557991147,0.006395126130897552
1761476333537148400,1.7081484375,0.01846037032008171,-0.01524140827357769,0.004508727862406522
1761476333547181600,1.718181640625,0.013814590340852737,-0.011249635223671794,-0.001410652249213308
1761476333557215500,1.728215576171875,0.007241057169437408,-0.00879040550328791,-0.0034415004896931347
1761476333567248600,1.73824853515625,0.008443418696522712,-0.016792217912152407,0.0031005598312243816
1761476333577281500,1.748281494140625,0.023987024787068364,-0.02844290821738541,0.0007066138993948698
1761476333587315500,1.7583154296875,0.037412908071279526,-0.029307927548885344,-0.001908975426480174
1761476333597348400,1.768348388671875,0.03902385039925575,-0.01589154274538159,-0.00732734721340239
1761476333607381500,1.778381591796875,0.028384382963180542,-0.009155366358160971,-0.009434786087740211
1761476333617415400,1.78841552734375,0.026601006677746772,0.00010915946289896965,-0.014161997272726148
1761476333627448600,1.798448486328125,0.033627544313669204,-0.011064414849877358,-0.01630549384113401
1761476333637481500,1.8084814453125,0.035119828698039056,-0.017209931867569684,-0.01391377639900893
1761476333647515600,1.818515625,0.026740707409381864,-0.02271612806841731,-0.008314294157829135
1761476333657548500,1.828548583984375,0.026155600997805593,-0.025181129942461848,-0.019210896426439285
1761476333667581400,1.83858154296875,0.03501695284545421,-0.01792567892149091,-0.013872056149132549
1761476333677615400,1.848615478515625,0.05106500132679939,-0.010238485419750212,-0.011036723125353455
1761476333687648500,1.8586484375,0.05229191277325153,-0.005411430589482188,0.004054572620429098
1761476333697681400,1.868681396484375,0.02520809101462364,-0.005429550768062472,0.008831102839857339
1761476333707715600,1.878715576171875,0.007077391040325165,0.002958703675121069,0.024579912646301088
1761476333717748500,1.88874853515625,-0.0035930560559034345,0.0062966159261763095,0.022698647210653868
1761476333727781600,1.89878173828125,0.020016952112317084,0.005393456541374325,0.01198059811303392
1761476333737815600,1.908815673828125,0.04019523226618767,-0.009924304904043673,0.004678549737669528
1761476333747848400,1.918848388671875,0.06818447843194007,-0.013871069768443703,-0.01028376759989187
1761476333757881300,1.92888134765625,0.06910042423307895,-0.023586554227396844,-0.02222101976154372
1761476333767915500,1.93891552734375,0.06358195307254791,-0.023451748866587876,-0.016789112639613447
1761476333777948700,1.94894873046875,0.031131635844707486,-0.023678981751203535,-0.004156900483742356
1761476333787981600,1.958981689453125,0.0009165303230285644,-0.027261662543565032,0.007028638261463493
1761476333798015500,1.969015380859375,-0.00971533832848072,-0.031604514053463935,0.011641191824525594
1761476333808048400,1.97904833984375,-0.009446458259224891,-0.030743513309955596,0.017121194138191638
1761476333818081500,1.98908154296875,0.017613982623815534,-0.02568834881223738,0.015402444054186342
1761476333828115500,1.999115478515625,0.03868482770323753,-0.03121186147406697,0.0037317886731587347
1761476333838148600,2.009148681640625,0.0522977579921484,-0.021614961893483994,-0.0019312420572154222
1761476333848181500,2.019181396484375,0.05482990681827068,-0.021910729969665407,0.0027330964920111
1761476333858215700,2.029215576171875,0.03478489765524864,-0.02641819745674729,0.003525507245026529
1761476333868248600,2.03924853515625,0.021762334474921225,-0.030875030735135076,0.01252539078053087
1761476333878281500,2.049281494140625,0.013801730859279632,-0.024970848192647097,0.012470664918608963
1761476333888315400,2.0593154296875,0.014534721308946608,-0.03122062930241227,0.00884124064138159
1761476333898348500,2.0693486328125,0.02453063014447689,-0.02263809439614415,0.009364113738015293
1761476333908381400,2.07938134765625,0.04306698831021785,-0.01525580212511122,0.006419128060992807
1761476333918415600,2.08941552734375,0.04844400517344474,0.0017195903342217206,0.007835972588974982
1761476333928448500,2.099448486328125,0.03764320969581604,-0.0018423399310559033,0.013135248040873557
1761476333938481700,2.109481689453125,0.032249241697788235,-0.002053790724650025,0.017743180227745323
1761476333948515300,2.119515380859375,0.02505260819196701,-0.0036678748577833173,0.014872593227494508
1761476333958548500,2.129548583984375,0.019058336213231084,-0.012009586745500563,0.008905117924138903
1761476333968581400,2.139581298828125,0.02203530619740486,-0.006590703501924872,0.006644753510411828
1761476333978615600,2.149615478515625,0.025149054303765295,-0.01401902687177062,-0.004595109237916767
1761476333988648400,2.1596484375,0.04323533061444759,-0.023128435196354984,-0.006238364666607231
1761476333998681600,2.169681640625,0.03497662083506584,-0.011434490271285175,-0.007885273357108235
1761476334008715500,2.179715576171875,0.024478023174405096,-0.0006366904683411121,-0.008719112099055201
1761476334018748400,2.18974853515625,0.0178682496458292,0.0009628536827862262,-0.00464568864768371
1761476334028781300,2.19978125,0.01395604463815689,-0.008450652154907584,-0.001928776105493307
1761476334038815500,2.2098154296875,0.022784078738093374,-0.01097067215181887,-0.006592931991629302
1761476334048848600,2.2198486328125,0.032817396974563595,-0.02469670742638409,-0.00878938258998096
1761476334058881500,2.229881591796875,0.042245735055208206,-0.0287837575443089,-0.014155896325502544
1761476334068915700,2.239915771484375,0.03880465469062328,-0.02689465586207807,-0.0009509075166657567
1761476334078948600,2.249948486328125,0.033410102170705794,-0.02342800266481936,0.0071894365800544615
1761476334088981500,2.2599814453125,0.013483166429400444,-0.02723630890659988,0.004849577189330012
1761476334099015400,2.270015380859375,-0.0015057283878326415,-0.020658757147192952,0.005331442422140389
1761476334109048600,2.280048583984375,0.00984042601287365,-0.020834332909807563,0.002494392365310341
1761476334119081500,2.29008154296875,0.03167290311455726,-0.024499796614795923,0.004639934760332107
1761476334129115600,2.30011572265625,0.05441255818903446,-0.010762947685271501,0.004512472455762326
1761476334139148500,2.3101484375,0.053658524951338764,-0.003251403011381626,0.0036213505686260757
1761476334149181700,2.320181640625,0.03150339176654816,-0.00728029320128262,0.00008884732723236084
1761476334159215400,2.33021533203125,0.02192073990702629,-0.0077519293010234825,0.004210585166048259
1761476334169248500,2.34024853515625,0.02460778703391552,-0.013750292932987213,0.0001780782469548285
1761476334179281400,2.350281494140625,0.023855507361888885,-0.022885201025009155,-0.010386625186167656
1761476334189315600,2.360315673828125,0.019513094243407247,-0.03660444123260677,-0.01364705175422132
1761476334199348500,2.370348388671875,0.05064882174134254,-0.027868980786949396,-0.013908278239984065
1761476334209381600,2.380381591796875,0.06743453684747219,-0.027113632375001907,-0.008480462771281599
1761476334219415600,2.39041552734375,0.048883565634489055,-0.018675693571195005,-0.004356149382889271
1761476334229448400,2.400448486328125,0.021060323685407636,-0.009852189515903591,0.008567666130699217
1761476334239481300,2.4104814453125,-0.024290391647815702,0.005090601137280464,0.021092381057795137
1761476334249515500,2.420515625,-0.03074994305074215,0.017105960036441683,0.0315613872977905
1761476334259548400,2.43054833984375,-0.02347323004603386,0.013598609502613544,0.03530609025144949
1761476334269581600,2.44058154296875,0.006991466322541237,-0.007435556828230619,0.02845014167577028
1761476334279615500,2.450615478515625,0.05407821166813373,-0.02110861980654299,0.008134973801858722
1761476334289648600,2.460648681640625,0.07456395033597946,-0.02539959499873221,-0.018598006958793847
1761476334299681500,2.470681640625,0.06665536916851997,-0.04489157338887453,-0.03325529520148411
1761476334309715500,2.480715576171875,0.05594400554001331,-0.053723479946330185,-0.036362997159548105
1761476334319748400,2.490748291015625,0.026668811216950417,-0.05240910941213369,-0.031155034986604005
1761476334329782500,2.500782470703125,0.020109891092777252,-0.03647467737309634,-0.021337240930646657
1761476334339815700,2.510815673828125,0.004846270987391471,-0.014132277987897394,-0.010191047815140335
1761476334349848600,2.5208486328125,0.0009434183299541472,0.0010639029044657944,-0.00021252850582823156
1761476334359882500,2.530882568359375,0.025638299125432966,0.01734985179491341,0.0015382606842555104
1761476334369915400,2.540915283203125,0.040322073516249654,0.01742868918478489,0.0071007901822216805
1761476334379948500,2.550948486328125,0.05665419963598251,0.013306348557770251,0.010046104652807116
1761476334389982500,2.560982421875,0.060581017690896986,0.011219824607297778,0.010793379356153309
1761476334400015600,2.571015625,0.04370703977942467,-0.0015741905141621827,0.00809263249747455
1761476334410048500,2.581048583984375,0.02023322521150112,-0.021664719319343564,0.014052728211972862
1761476334420082700,2.591082763671875,0.007056348252296447,-0.031954277339205146,0.003324029856175184
1761476334430115600,2.601115478515625,0.02201309436559677,-0.031550153517723084,0.0008212715213187039
1761476334440148500,2.6111484375,0.02964695024490356,-0.011805515540763735,-0.008600253226049244
1761476334450182400,2.621182373046875,0.041618543067574496,-0.002764130951091647,-0.009606452860217541
1761476334460215600,2.631215576171875,0.043594227054715155,0.001811944792792201,-0.0067355918653309345
1761476334470248400,2.64124853515625,0.03644318625628948,0.0033749563258141276,-0.014805227079708128
1761476334480282600,2.65128271484375,0.024793664994835853,0.0015594313364475964,0.0018385222724638878
1761476334490315500,2.6613154296875,0.014482114338874816,-0.006708776923641562,0.0057043125888332725
1761476334500349000,2.671348876953125,0.0053606502503156656,-0.02425546646490693,0.006711608201544731
1761476334510383000,2.681383056640625,0.014197452178597449,-0.02542648300565779,0.0033817148601636288
1761476334520416000,2.691416015625,0.02556406484544277,-0.0212241359449923,-0.00608335676798597
1761476334530449000,2.701448974609375,0.02839315079152584,-0.028824308750405907,-0.002658661282621324
1761476334540483000,2.711483154296875,0.040515550261735915,-0.028429902605339882,-0.004769716886151582
1761476334550516200,2.72151611328125,0.04039689231812954,-0.03075359631255269,-0.006074680271185934
1761476334560549000,2.731549072265625,0.030545360389351843,-0.027690555480122565,0.0003112213736400008
1761476334570583000,2.7415830078125,0.016194763475656508,-0.02216594683974981,0.005532408354338258
1761476334580616000,2.751615966796875,0.016508651730418204,-0.0198293936509639,0.011968158756569027
1761476334590649000,2.761649169921875,0.01591243940293789,-0.006036649815738201,0.013573182800412177
1761476334600683000,2.77168310546875,0.02534019296169281,-0.006038841772824525,0.016081439294293523
1761476334610716200,2.781716064453125,0.023994039049744606,-0.01042385192401707,0.016449103562906384
1761476334620749000,2.7917490234375,0.03553308567404747,-0.017769465446472166,0.012775840143952518
1761476334630783000,2.801782958984375,0.02657937936782837,-0.018770897573977707,0.009470131395757198
1761476334640815900,2.81181591796875,0.021507482931017875,-0.013249722999706864,0.010032751980889588
1761476334650849000,2.82184912109375,0.012673019090294836,-0.009249401317164301,0.014842417284939437
1761476334660883000,2.831883056640625,0.011305822390317917,-0.0039704380009323356,0.008989837065525353
1761476334670916000,2.841916015625,0.019662147325277327,-0.010234539896994828,0.006936174205038696
1761476334680949000,2.851948974609375,0.029082886621356007,-0.023520137927681206,-0.002109539499878883
1761476334690983200,2.861983154296875,0.04344575849473476,-0.027143004599958657,-0.013474398601055145
1761476334701016000,2.87201611328125,0.05602466956079006,-0.022957389478385447,-0.01672653226479888
1761476334711049000,2.882049072265625,0.052010173222422594,-0.011926073180511592,-0.022585359561908987
1761476334721083000,2.892082763671875,0.05024491711556911,-0.02451039107404649,-0.020768756860308348
1761476334731116000,2.902115966796875,0.019000468546152113,-0.022997283097356557,-0.014479392658825963
1761476334741149000,2.91214892578125,0.01484276434481144,-0.029179040472209452,-0.009016487610433251
1761476334751183000,2.92218310546875,0.015006430473923683,-0.027250337431952355,-0.003730217770580202
1761476334761216000,2.932216064453125,0.015004676908254622,-0.009444266302138566,0.012701715461816638
1761476334771249200,2.942249267578125,0.01783376285433769,-0.005467983082309365,0.012960932653583586
1761476334781282800,2.95228271484375,0.014967267507314681,-0.006327668651565909,0.014749587902333586
1761476334791316000,2.96231591796875,0.023042437413334844,-0.010114420648664236,0.0023519334210082886
1761476334801348900,2.972348876953125,0.0350263051956892,-0.03412614148557186,-0.00010857494100928306
1761476334811383000,2.982383056640625,0.05241875402331352,-0.03447824285887181,-0.012692125649563967
1761476334821416000,2.992416015625,0.04811433482766151,-0.03585603401809931,-0.013447455795202403
1761476334831450000,3.0024501953125,0.04036240552663803,-0.02883965245001018,-0.0038313217911869284
1761476334841483000,3.01248291015625,0.03126724492311477,-0.009382672308012843,-0.006780216458346694
1761476334851516000,3.022515869140625,0.016777531799674034,-0.0007678425673395395,0.0006252922914922238
1761476334861550000,3.032550048828125,0.002555529701709747,-0.0061805152658373115,0.009651716774050146
1761476334871583000,3.0425830078125,-0.00492518144249916,-0.01583009488172829,0.018891510012652723
1761476334881616100,3.0526162109375,0.0052700493574142455,-0.00947210415713489,0.020045831146929413
1761476334891650000,3.062650146484375,0.0054214405268430705,-0.016860387777537105,0.02314029003093019
1761476334901683200,3.07268310546875,0.01722819817662239,-0.0331873993307352,0.02413463483052328
1761476334911716000,3.082716064453125,0.032170331242680546,-0.02946012243591249,0.017425638711173086
1761476334921750000,3.09275,0.03483516653776168,-0.016433979059010742,0.006052523238305002
1761476334931783000,3.102782958984375,0.021800328397750854,-0.01508694836422801,-0.0019542576066218314
1761476334941816000,3.112816162109375,0.029728783309459685,-0.0185338739477098,-0.013325838709529489
1761476334951850000,3.12285009765625,0.03289396934211254,-0.02421579204164445,-0.022205529931467027
1761476334961883100,3.132883056640625,0.04204056787192821,-0.018319865870848297,-0.02168041007881984
1761476334971916000,3.142916015625,0.0508902292817831,-0.009762027014419436,-0.02353935408480465
1761476334981950000,3.152949951171875,0.0404465766787529,-0.005004530289024115,-0.010162881166581064
1761476334991982800,3.16298291015625,0.03106090869605541,-0.009666749946400523,-0.005893697681091725
1761476335002016000,3.17301611328125,0.023918635725975034,-0.015951163978129623,-0.00249762550201267
1761476335012050000,3.1830498046875,0.023930326163768768,-0.003641571372747421,0.011643109786976129
1761476335022083000,3.1930830078125,0.021388824987411497,0.00341331557482481,0.01414283591452986
1761476335032116000,3.203115966796875,0.01717676025032997,0.00293305777721107,0.025910631527099756
1761476335042150100,3.213150146484375,0.013857844960689545,-0.0008020370978862047,0.029423699415661392
1761476335052183000,3.22318310546875,0.030139117676019667,-0.009474003853276371,0.02336065478334203
1761476335062216000,3.2332158203125,0.03909340850412845,-0.009532163781300186,0.000816540547274053
1761476335072250000,3.24325,0.05900222406685352,-0.026128274599462747,-0.015111005093250423
1761476335082283000,3.253282958984375,0.0632341625481844,-0.029009529124200344,-0.026942458792869
1761476335092316000,3.26331591796875,0.06102817693650722,-0.017982377544790505,-0.027431484418828037
1761476335102350000,3.27335009765625,0.035925884383916855,-0.017683832989633084,-0.009976016824971883
1761476335112383200,3.28338330078125,0.0009288052827119827,-0.01462532220184803,0.012084168085362761
1761476335122416000,3.293416015625,-0.020182956328988075,-0.014161431017145513,0.02708046075776219
1761476335132450000,3.303449951171875,-0.011380056670308112,-0.01083908166140318,0.024394856669288128
1761476335142483000,3.31348291015625,-0.01171089605987072,-0.011819471000880002,0.01994206024520099
1761476335152516000,3.32351611328125,0.019381576818227768,-0.014165084278956054,0.00478529804777354
1761476335162550000,3.333550048828125,0.04989771111309528,-0.03459200543165207,-0.005207742977235466
1761476335172583200,3.343583251953125,0.0606762947589159,-0.030040333476662635,-0.011971976415161043
1761476335182616000,3.353615966796875,0.060246671169996255,-0.04699461008273065,-0.015811773773748428
1761476335192650000,3.36364990234375,0.033786534267663954,-0.03442432071454823,-0.013514858475606888
1761476335202683000,3.373682861328125,0.011804419562220572,-0.025955986772477624,-0.013414119781181216
1761476335212716000,3.383716064453125,0.0037333413094282147,-0.016104089517518877,-0.003094787677563727
1761476335222750000,3.39375,0.005061959564685821,-0.011766352574154733,0.004956252434197813
1761476335232783000,3.403783203125,0.004589665877819061,-0.01016015948653221,0.004021364470571279
1761476335242817000,3.413817138671875,0.02823883701264858,-0.007679960043355822,-0.006023297143820673
1761476335252850200,3.42385009765625,0.0534042579293251,-0.0005966507188975811,-0.0007236380994319916
1761476335262883000,3.433883056640625,0.06135317110717296,-0.012174275787919759,-0.0004002148313447833
1761476335272917000,3.4439169921875,0.029493805509805678,-0.0009816314484924077,0.009738006818015128
1761476335282950000,3.453949951171875,0.012435118681192398,-0.007888707423210144,0.010219415393099188
1761476335292983000,3.463983154296875,-0.0178203188508749,-0.015589271863177418,0.020730689872242507
1761476335303017000,3.474016845703125,-0.017260931402444838,-0.012750979697331785,0.009656721742730587
1761476335313050000,3.484050048828125,0.004250058659911155,-0.004779343231022358,0.00373513140771538
1761476335323083000,3.4940830078125,0.027415245670080184,-0.005010156312212348,-0.00687300930833444
1761476335333117000,3.504116943359375,0.05687865604162216,-0.0030389293044805524,-0.015383885484188795
1761476335343149800,3.51414990234375,0.05583879159986972,-0.010829217854514718,-0.017796042926143854
1761476335353183000,3.524182861328125,0.05213409186303615,-0.02315115848481655,-0.015125892135128377
1761476335363217200,3.534217041015625,0.03899637787044048,-0.018948153837025163,-0.009314849502500146
1761476335373250000,3.54425,0.020906594428420064,-0.01785772825181484,-0.005473919632751494
1761476335383283000,3.554282958984375,0.00894201586842537,-0.023796324520558118,0.01349509432921186
1761476335393316900,3.56431689453125,-0.008583119428157806,-0.026768033807724714,0.014441617931704967
1761476335403350000,3.57435009765625,0.008146481576561927,-0.027450170852988957,0.022819606709200888
1761476335413383000,3.5843828125,0.021430910563468932,-0.020258505783230064,0.02505025183809921
1761476335423417000,3.5944169921875,0.03531272092163563,-0.007372939920797943,0.024333865463361144
1761476335433450000,3.604449951171875,0.024968437039852142,-0.010024038951471448,0.023371614568773656
1761476335443483100,3.614483154296875,0.027512860825657844,-0.014550138073787092,0.0069136518459767095
1761476335453517000,3.62451708984375,0.036790392258763314,-0.018147358848154545,0.005972699467744678
1761476335463550200,3.63455029296875,0.04279343206584453,-0.03286445098668336,-0.0027014409784227606
1761476335473583000,3.6445830078125,0.04820376667678356,-0.025333324829488992,0.0028900223530828953
1761476335483617000,3.654616943359375,0.03415945923328399,-0.013660057366266846,0.013265048433002084
1761476335493650000,3.66464990234375,0.021750644037127495,-0.00310972951836884,0.01407877596868202
1761476335503686700,3.674686767578125,-0.003394318613409996,0.0032449732705950736,0.01634281191052869
1761476335513720800,3.684720947265625,-0.014629998376965521,-0.007227174774557352,0.021059282505791633
1761476335523753700,3.694753662109375,-0.02049041484296322,-0.01673098924420774,0.025381036428734658
1761476335533786600,3.70478662109375,0.005651742151379585,-0.036903643374890084,0.02689593450371176
1761476335543820500,3.714820556640625,0.036570027506351466,-0.04222228111438453,0.015242851311992853
1761476335553853700,3.724853759765625,0.048646249747276306,-0.02853781995922327,-0.0020544665780849753
1761476335563886600,3.734886474609375,0.04355155695676803,-0.024214842193573713,-0.01519988895310089
1761476335573920800,3.744920654296875,0.031138650107383727,-0.027506650280579924,-0.024094357619062066
1761476335583953700,3.75495361328125,0.025618425381183623,-0.033324396648630496,-0.023446542968507855
1761476335593986800,3.76498681640625,0.027128829944133757,-0.021588512277975678,-0.03352616629842668
1761476335604020500,3.7750205078125,0.022200725892186163,-0.019586305610090494,-0.028782314505893736
1761476335614053600,3.7850537109375,0.02428746903836727,-0.006139964059740304,-0.016888207366224376
1761476335624086500,3.79508642578125,0.028643910682201384,0.0021644845575094222,-0.017372246289812026
1761476335634120700,3.80512060546875,0.02042845552265644,0.0032600977744907137,-0.009746719847433269
1761476335644153600,3.815153564453125,0.03032324207127094,0.002725771702080965,-0.003020717794355005
1761476335654187800,3.825187744140625,0.04711012622117996,0.007918737235292793,-0.002629106394574046
1761476335664220700,3.835220703125,0.04144903171956539,0.003181552645564079,0.0026254348664544523
1761476335674253800,3.84525390625,0.04282032007277012,-0.0058976797364652155,0.011184552364517002
1761476335684287500,3.85528759765625,0.026218729361891745,-0.004641688326001167,0.005264240671135485
1761476335694320600,3.865320556640625,0.02112812822461128,-0.01326177876368165,0.0038547757320106027
1761476335704353500,3.875353515625,0.017819149807095525,-0.01492540112696588,0.0026394816581159827
1761476335714387700,3.8853876953125,0.01870177786052227,-0.012863938552513717,-0.002494447164237499
1761476335724420600,3.895420654296875,0.03035772886276245,-0.005761559201404452,-0.0018207674200646578
1761476335734453800,3.905453857421875,0.03709492816329002,-0.014201763027533888,-0.005568301651626825
1761476335744487400,3.9154873046875,0.03321720994710922,-0.0155398797634989,0.00031792510906234383
1761476335754520600,3.9255205078125,0.02424947511553764,-0.01693513351418078,-0.00408306806255132
1761476335764553500,3.935553466796875,0.025147300738096234,-0.026074352455139158,0.0052672911447472865
1761476335774587600,3.945587646484375,0.028445173239707945,-0.0369658218909055,-0.0004690605501644313
1761476335784620500,3.95562060546875,0.018866028511524198,-0.03891870952434837,0.0008420768473297358
1761476335794653700,3.96565380859375,0.01452419991493225,-0.04766081890650093,0.004175641716830433
1761476335804687600,3.9756875,0.01660334427654743,-0.030193478211760518,0.01031745067378506
1761476335814720500,3.985720458984375,0.015547113221883773,-0.028822116793319582,0.016609335625916717
1761476335824753400,3.99575341796875,0.030353637209534642,-0.024640374129265546,0.015193422679696231
1761476335834787600,4.00578759765625,0.022715105155110358,-0.020903452623263,0.02008563343435526
1761476335844817700,4.015817626953125,0.028855507606267927,-0.034467575334385034,0.016988891261722892
1761476335854850600,4.0258505859375,0.03575228138267994,-0.02601137022152543,0.017601397136878222
1761476335864883700,4.0358837890625,0.037115386429429055,-0.022832082598283884,0.016217377166263758
1761476335874917600,4.045917724609375,0.036702129453420634,-0.02204875020086765,0.00477240203358233
1761476335884950500,4.055950439453125,0.03253507290184498,-0.02837824548333883,0.0043026838962920005
1761476335894983400,4.0659833984375,0.03960895681083202,-0.0268023744687438,0.001676299181766808
1761476335905017600,4.076017578125,0.01688742191493511,-0.01506926657706499,0.00985900284918025
1761476335915050800,4.08605078125,0.0054985974162817,-0.017621946734562514,0.01308572807703167
1761476335925083600,4.096083740234375,-0.004256488400697708,-0.020698869961872694,0.012584299627225846
1761476335935117800,4.106117919921875,0.0013917466193437576,-0.015431670148670673,0.007813906887639313
1761476335945150700,4.116150634765625,0.018114333361387253,-0.01811506401374936,-0.0040049795913510025
1761476335955183900,4.126183837890625,0.04220364947915077,-0.027107567960396407,-0.019931027394533157
1761476335965217500,4.136217529296875,0.06647299833893776,-0.02354074232429266,-0.034951139333937314
1761476335975250700,4.146250732421875,0.08028232798278331,-0.0229658650457859,-0.03826380754588172
1761476335985283600,4.15628369140625,0.04322071756720543,-0.017416048898920417,-0.03208559383498505
1761476335995317800,4.16631787109375,0.02232639809846878,-0.020423852412775157,-0.018728136144485322
1761476336005350700,4.1763505859375,-0.008175707671046256,-0.014479410925135015,-0.009849796629417687
1761476336015383800,4.1863837890625,-0.01700900246798992,-0.017997282852977515,0.0064154930654913185
1761476336025417500,4.19641748046875,0.0034738135904073715,-0.006568710865825414,0.003006287410203367
1761476336035450600,4.20645068359375,0.003156418204307556,-0.008596855692565441,-0.002670059459470212
1761476336045483500,4.2164833984375,0.0320201091170311,-0.0043536651648581025,-0.005399064298253506
1761476336055517700,4.226517578125,0.04697510166466236,0.007324205408245325,-0.006864570273552089
1761476336065550600,4.236550537109375,0.056257893794775006,0.01549172977283597,-0.012849727364070713
1761476336075583700,4.246583740234375,0.042059272572398186,0.0024565263066440818,-0.01573437942229211
1761476336085617700,4.25661767578125,0.034622985091805454,0.0064107438251376145,-0.016924356391839684
1761476336095650600,4.266650634765625,0.029738720181584355,0.0006279957052320242,-0.016778408582508564
1761476336105683500,4.276683349609375,0.03186871794760227,-0.010062325135245919,-0.013125767826475203
1761476336115717600,4.286717529296875,0.02696048763990402,-0.012720146167650818,0.006056322630587965
1761476336125750500,4.29675048828125,0.016192425388097762,-0.01625263114273548,0.01438546729767695
1761476336135783700,4.30678369140625,0.013346388307213783,-0.00969488006234169,0.01614886024100706
1761476336145817600,4.316817626953125,0.0071878656774759285,0.0037756460811942815,0.031251097505912186
1761476336155850800,4.326850830078125,-0.006751812347769737,0.008905556315556168,0.0401529640270397
1761476336165883600,4.336883544921875,-0.018310148194432257,0.004952434775605798,0.04168919715099036
1761476336175917600,4.34691748046875,-0.012063947281241416,-0.007201309680938721,0.03919895123783499
1761476336185950500,4.356950439453125,0.013182137656211852,-0.037286505212634796,0.03355025956006721
1761476336195983600,4.366983642578125,0.04546177449226379,-0.05167575363628566,0.023197646241355684
1761476336206017800,4.377017822265625,0.04932546418309212,-0.06486607459895312,0.008187562505621462
1761476336216050700,4.38705078125,0.03495791613459587,-0.0647950551893562,0.008480809831153601
1761476336226083600,4.39708349609375,0.023283260431885718,-0.04571545699238777,0.00016246055271476506
1761476336236117500,4.407117431640625,0.015337854385375976,-0.02380706511028111,0.00018425225941464304
1761476336246150700,4.417150634765625,0.005888473516702652,-0.014148863796517253,0.0017547164465300737
1761476336256183600,4.42718359375,0.020242577561736107,-0.01564808937832713,-0.0009595840134657919
1761476336266217700,4.4372177734375,0.036712650847435,-0.025059987780824303,-0.0011703772199340163
1761476336276250600,4.447250732421875,0.052750177934765816,-0.026428864981234073,-0.01308505222359672
1761476336286284800,4.457284912109375,0.06266191561818123,-0.02401771218627691,-0.015708222067728636
1761476336296317700,4.467317626953125,0.052525721529126164,-0.02101180836856365,-0.009994666726514697
1761476336306350600,4.4773505859375,0.032495325413346286,-0.016645502917841077,0.0027507234802469607
1761476336316384500,4.487384521484375,0.004673252508044242,-0.0007095365088433026,0.01412798540527001
1761476336326417700,4.497417724609375,-0.015543021568655967,-0.0028201719872653483,0.0239774715074338
1761476336336450600,4.507450439453125,-0.000018704700469970702,0.001080561778321862,0.018473668193072078
1761476336346484700,4.517484619140625,0.01849485711157322,0.002537701784074306,0.004988620333839207
1761476336356517600,4.527517578125,0.0516787493109703,0.0076652739308774465,-0.0031372568461112676
1761476336366550800,4.53755078125,0.07171499064564704,0.00847264479100704,-0.023177717698179185
1761476336376584400,4.54758447265625,0.06138941146433353,0.0050645168479532,-0.03493307395428419
1761476336386617600,4.55761767578125,0.05033551800847053,-0.003688260058686137,-0.03116299909735098
1761476336396650500,4.567650390625,0.02881225298643112,-0.02098250920884311,-0.04031778093362227
1761476336406684700,4.5776845703125,0.009518938973546028,-0.0182942199729383,-0.024168336170725523
1761476336416717600,4.587717529296875,0.0054740474969148635,-0.0252206582352519,-0.016751063917856662
1761476336426750700,4.597750732421875,-0.0030786767929792402,-0.02497194417119026,-0.0033630466923117637
1761476336436785700,4.60778564453125,0.0006248539000749588,-0.026885449642315505,0.0007267981708981096
1761476336446818600,4.617818603515625,0.01675122831463814,-0.015711436938121912,0.0038278877250850197
1761476336456851700,4.627851806640625,0.027654899644851683,-0.015178499105200171,-0.0013884769500233233
1761476336466885600,4.6378857421875,0.04006488388478756,-0.020731676252931354,-0.005210117597412318
1761476336476918800,4.647918701171875,0.043212534260749814,-0.016207622957229613,-0.0025471454658545552
1761476336486951700,4.65795166015625,0.05504617991745472,-0.022025807716697453,-0.0034771928575821217
1761476336496985600,4.667985595703125,0.04487783712446689,-0.02302409803904593,0.010158223257772624
1761476336507016000,4.678015869140625,0.024546412235498426,-0.029529169084131716,0.010246686992514877
1761476336517049000,4.688049072265625,0.013780103549361229,-0.028366920371726154,0.01907207247763872
1761476336527083000,4.6980830078125,0.012725041538476943,-0.019115034836530684,0.018770130388997493
1761476336537116200,4.7081162109375,0.019597265395522118,-0.018385916844382882,0.02078950738739222
1761476336547149000,4.718149169921875,0.0167266783952713,-0.017962722996249795,0.02145748804314062
1761476336557183000,4.728182861328125,0.018346388551592825,-0.011647986891493201,0.0251244495854713
1761476336567215900,4.7382158203125,0.018776012140512464,-0.005112228447198867,0.02048970245691016
1761476336577250000,4.74825,0.020997779843211172,-0.003237374486029148,0.009928944546543061
1761476336587283000,4.758282958984375,0.028172786039113995,-0.00553410712108016,0.006134703362733126
1761476336597316000,4.768316162109375,0.036084289816021915,-0.010679799446463585,0.0005330108981579541
1761476336607350000,4.77835009765625,0.03399287049472332,-0.004944178403913975,0.003539882830251008
1761476336617383000,4.7883828125,0.03847498434484005,-0.011827800437808036,-0.0068834393708035345
1761476336627415800,4.798415771484375,0.03352876011431217,-0.009911153161525726,-0.009857194484584032
1761476336637450000,4.808449951171875,0.03547404896318912,-0.01237228257805109,-0.008950856762006878
1761476336647483100,4.818483154296875,0.029503742381930348,-0.019555325949937103,-0.012057773268781602
1761476336657516000,4.82851611328125,0.02712006211578846,-0.018859671835973858,-0.005693571999110281
1761476336667550200,4.83855029296875,0.023684242448210716,-0.010744389115273952,-0.007067180173564702
1761476336677583000,4.8485830078125,0.027260931891202926,-0.020404782386124132,0.0023406631083227694
1761476336687616000,4.858615966796875,0.02799450686275959,-0.023284794801846146,0.006277984290942549
1761476336697650000,4.86864990234375,0.024684943923354147,-0.018701266403868794,0.0025531002826057374
1761476336707683000,4.87868310546875,0.01733399663865566,-0.015296207200735807,0.008548924897611141
1761476336717716000,4.888716064453125,0.016733692657947538,-0.005500424047186971,-0.0013568397027440369
1761476336727750100,4.898750244140625,0.01913140144944191,-0.026162542195245622,-0.0008378755962476134
1761476336737783000,4.908782958984375,0.03634498657882213,-0.016809826634079216,-0.003049761225748807
1761476336747816200,4.918816162109375,0.035005262407660484,-0.01994936676882207,-0.002878478045761585
1761476336757849900,4.928849853515625,0.02812076359093189,-0.0112847796022892,0.00606121800141409
1761476336767883000,4.938883056640625,0.025874445968866348,-0.009683481885492801,0.0036370778607204553
1761476336777916000,4.948916015625,0.026627894684672353,-0.007971051944419742,0.007436050018575042
1761476336787950000,4.9589501953125,0.019428338569402695,-0.006004208850860595,0.010842095602396875
1761476336797983000,4.96898291015625,0.012981646648049353,-0.004001271530613303,0.012346380951814354
1761476336808016100,4.97901611328125,0.007590016737580299,-0.013631415793672204,0.00938185032410547
1761476336818049800,4.9890498046875,-0.0007920271605253219,-0.016789076106995343,0.010839775781147181
1761476336828083000,4.9990830078125,0.021341478714346884,-0.02334375844746828,0.008993581658881157
1761476336838115800,5.00911572265625,0.029247137272357938,-0.015956205479428172,0.00860421701511368
1761476336848150000,5.01914990234375,0.032960020315647126,-0.025213059450685978,-0.0030423999032005667
1761476336858183000,5.029182861328125,0.04147650424838066,-0.023644056568294762,-0.011757128088083118
1761476336868216000,5.039216064453125,0.03145721453726291,-0.025388416017591953,-0.019838124946691096
1761476336878250200,5.049250244140625,0.02130640740096569,-0.0316238763410598,-0.03267566868262365
1761476336888283100,5.059283203125,0.03000993833839893,-0.03568849543146789,-0.03566325139235705
1761476336898316000,5.06931591796875,0.03720657184422016,-0.031690804097428915,-0.036499373422935605
1761476336908350000,5.079349853515625,0.033490181669592854,-0.02326579784043133,-0.02980394917121157
1761476336918383000,5.089383056640625,0.04161269784867763,-0.01524330796971917,-0.01942958067841828
1761476336928416000,5.099416015625,0.033574352821707724,0.0017773118708282708,-0.01093481538714841
1761476336938450200,5.1094501953125,0.025828268739581106,0.008478124683722853,0.002944090627878904
1761476336948483000,5.119483154296875,0.023901684591174123,0.009387056222185492,0.015999350501410662
1761476336958516200,5.12951611328125,0.007597615522146224,0.019512948112934827,0.027286760452203452
1761476336968550000,5.1395498046875,-0.002435702714323997,0.018713468298316,0.02607840757574886
1761476336978583000,5.1495830078125,0.019551088166236876,0.011011734814569353,0.030769853327609595
1761476336988616000,5.159615966796875,0.0392874697715044,0.008385258768498898,0.011906528229825198
1761476336998650000,5.169650146484375,0.05545534524023533,0.007676745172962546,-0.006603124592080712
1761476337008683000,5.17968310546875,0.06804010152518748,0.002233604270964861,-0.018998313121683895
1761476337018716200,5.189716064453125,0.057903907436132426,-0.007450389071181416,-0.02200403427630663
1761476337028749800,5.199749755859375,0.03174246121942997,-0.01549267962090671,-0.012443813444301486
1761476337038783000,5.209782958984375,-0.0002653729379177093,-0.029962445934861897,0.01112107694055885
1761476337048815900,5.21981591796875,-0.0007213000118732452,-0.029695977018401026,0.015437040443532168
1761476337058850000,5.22985009765625,0.007491817060112952,-0.03363302420638502,0.01564894789485261
1761476337068883000,5.239883056640625,0.023649755656719205,-0.04176160480007529,0.007910261667892337
1761476337078916000,5.249916015625,0.03548398583531379,-0.04648519925586879,-0.00177258089678362
1761476337088950000,5.259949951171875,0.03759060272574424,-0.038720702734217044,-0.00009865633519366383
1761476337098983200,5.269983154296875,0.03894493994414806,-0.046969548706710336,-0.005267473807837814
1761476337109016000,5.28001611328125,0.028632220244407654,-0.042618075498938555,0.0022534232162870465
1761476337119050000,5.290050048828125,0.025640637212991712,-0.04306443102695048,0.011233652203250675
1761476337129083000,5.300082763671875,0.02220306397974491,-0.0443250255472958,0.00907859306121245
1761476337139116000,5.310115966796875,0.02474573419988155,-0.03642119362019002,0.01738116024862975
1761476337149150000,5.32014990234375,0.010966799694299697,-0.02362315991073847,0.021555559856444598
1761476337159183000,5.33018310546875,0.007651976057887077,-0.011926292376220225,0.020299878973234445
1761476337169216000,5.340216064453125,0.02215630222856998,-0.004149082503467798,0.01986455629589036
1761476337179250000,5.35025,0.027377251747250555,0.010221826545894146,0.02411976605495438
1761476337189282800,5.36028271484375,0.031118191841244695,0.012732859518751501,0.007671667139045894
1761476337199316000,5.37031591796875,0.035761049211025235,-0.005114858795702457,0.011569094702694564
1761476337209350100,5.38035009765625,0.037864743492007254,-0.011708046515658497,0.004724818298500031
1761476337219383000,5.390383056640625,0.031137481063604353,-0.01244870881512761,-0.011948924333136528
1761476337229416000,5.400416015625,0.029638182416558263,-0.01396663909740746,-0.007676781705580651
1761476337239449900,5.410449951171875,0.02484042674601078,-0.0029058775093406437,-0.021848313991632312
1761476337249483000,5.42048291015625,0.02182955449223518,-0.0013728957884013653,-0.01119885488450527
1761476337259516000,5.430515869140625,0.005647065976262093,-0.000002703413739800453,-0.01076597989257425
1761476337269550000,5.440550048828125,0.009068857118487358,-0.010897606915608048,-0.015619721800368278
1761476337279583000,5.4505830078125,0.024183424142003057,-0.01143755901120603,-0.025169622167758643
1761476337289616100,5.4606162109375,0.05577683227956295,-0.01706577415652573,-0.02124497780362144
1761476337299650000,5.470650146484375,0.06342763929367065,-0.020864216591417788,-0.013939257900137454
1761476337309683200,5.48068310546875,0.05431903468668461,-0.02490158234871924,-0.017338070025574415
1761476337319716000,5.490716064453125,0.028010873475670814,-0.018101035488396883,-0.0032548005448654292
1761476337329750000,5.50075,0.01291910280585289,-0.015197934458032249,-0.0028887437114492056
1761476337339783000,5.510782958984375,-0.0032288989186286922,-0.021106793175637722,0.002104406667035073
1761476337349816000,5.520816162109375,0.006501052457094192,-0.017326690115034578,0.0031872517339885235
1761476337359850000,5.53085009765625,0.01532324133813381,-0.02401858896911144,0.009180080674309282
1761476337369883100,5.540883056640625,0.036575872725248336,-0.020824980559572576,0.013174593670573085
1761476337379916000,5.550916015625,0.052148704910278315,-0.016623071890324352,0.005560611535515636
1761476337389950000,5.560949951171875,0.05216565604507923,-0.017231047720834614,0.004773881604615599
1761476337399982800,5.57098291015625,0.04395721514821052,-0.011098609380424023,0.011957564297318458
1761476337410016000,5.58101611328125,0.009699556237459182,-0.011225962087139487,0.021661066057533023
1761476337420050000,5.5910498046875,-0.025308044257760048,-0.006633958121761679,0.026670820510946214
1761476337430083000,5.6010830078125,-0.023677228185534475,-0.018543956950306893,0.026915771715342998
1761476337440117200,5.6111171875,-0.0018511808246374128,-0.028656550968065856,0.02076892125708982
1761476337450150000,5.62114990234375,0.03299275354146957,-0.024328604766353963,0.021474658373650164
1761476337460182800,5.631182861328125,0.05451894117295742,-0.024794103386253118,0.0030985322709195314
1761476337470217000,5.641217041015625,0.03820551975369453,-0.021567907881364225,-0.009234167215414344
1761476337480250000,5.65125,0.027581249886751175,-0.01896539723277092,-0.008660258051287383
1761476337490283000,5.661282958984375,0.018298457756638527,-0.023522841341421005,-0.0161393434939906
1761476337500317200,5.671317138671875,0.029835166293382644,-0.02174414123110473,-0.021366375693585724
1761476337510348500,5.6813486328125,0.03748305069804191,-0.029500089120119807,-0.030895689930673688
1761476337520381400,5.69138134765625,0.05203063148856163,-0.021888079746440053,-0.02780183383487165
1761476337530415600,5.70141552734375,0.053716977140307424,-0.01842471448481083,-0.03292118614260107
1761476337540448800,5.71144873046875,0.049565118157863616,-0.007105009699612855,-0.016469488763809204
1761476337550481700,5.721481689453125,0.013678981262445449,-0.006330664326250552,-0.0071576349359937005
1761476337560514600,5.7315146484375,0.009632336220145225,0.004365574798360467,0.01024993839552626
1761476337570548500,5.741548583984375,0.007667758148908615,0.010084098575636745,0.020630206906143575
1761476337580581600,5.75158154296875,0.010936989077925681,0.002979965658858418,0.020633513108082115
1761476337590615600,5.761615478515625,0.03202653885781765,-0.005017901227250695,0.009908924671821296
1761476337600648700,5.771648681640625,0.057470776715874666,-0.0005533960990607739,0.00009710369892418384
1761476337610681600,5.781681640625,0.05643091227412223,-0.011899331304058432,-0.010287092068139462
1761476337620715500,5.791715576171875,0.04432546393871307,-0.011437120619788766,-0.013827468088734893
1761476337630748400,5.80174853515625,0.029829321074485778,-0.006421484414860606,-0.015224986861739306
1761476337640781600,5.811781494140625,0.016232757398486137,-0.006665887629985809,0.00028718291092664003
1761476337650814500,5.821814453125,0.006664718586206436,-0.015245646057277917,0.0047090727400965985
1761476337660848600,5.8318486328125,0.02266191366314888,-0.018505232375115154,0.011304817743320017
1761476337670881500,5.841881591796875,0.02983224368393421,-0.013475275383889674,0.010294599521160125
1761476337680915700,5.851915771484375,0.02575929515659809,-0.02026522778496146,0.011620441297441721
1761476337690948600,5.861948486328125,0.011979191607236862,-0.023193170995637773,0.0029268654984422027
1761476337700981500,5.8719814453125,0.019453473010659215,-0.034104441110417244,-0.003875361862313002
1761476337711015400,5.882015380859375,0.02618891874551773,-0.03597827215828001,-0.008930453294795006
1761476337721048600,5.892048583984375,0.022306524354219436,-0.04048763934150338,-0.0031397410641424354
1761476337731081500,5.90208154296875,0.021698621588945387,-0.0392456033911556,0.0045627413382753725
1761476337741115600,5.91211572265625,0.023184476232528686,-0.03421601172611117,0.002658697815239429
1761476337751148500,5.9221484375,0.02108545812666416,-0.03210508398674428,-0.0045945612486451865
1761476337761181700,5.932181640625,0.022593524602055548,-0.013628639314696192,0.004439297621697187
1761476337771215400,5.94221533203125,0.016617957323789595,-0.010705591474846005,0.002107566738501191
1761476337781248500,5.95224853515625,0.023510054925084112,-0.012613690118491649,0.006994425464607774
1761476337791281400,5.962281494140625,0.017824410504102706,-0.004435863555595278,0.013291644178982823
1761476337801315600,5.972315673828125,0.012727964147925376,-0.005911635196581482,0.015480276797059923
1761476337811348500,5.982348388671875,0.015722469788789748,-0.0031776801880449056,0.014084000133071093
1761476337821381600,5.992381591796875,0.010174188011884688,-0.008174027170613407,0.00763403854239732
1761476337831414500,6.00241455078125,0.011337971094250679,0.0030595337010920045,0.007171133738383651
1761476337841448400,6.012448486328125,0.02149111631810665,0.00022474866658449172,0.012699870564602315
1761476337851481300,6.0224814453125,0.02310322768986225,-0.0031760727528482675,-0.00393421591008082
1761476337861515500,6.032515625,0.01903670890331268,-0.006087576285377145,-0.007174787000194191
1761476337871548700,6.042548583984375,0.029328970336914062,-0.013297580729424953,-0.007880798111390322
1761476337881581600,6.05258154296875,0.00881692818403244,-0.02684139130488038,-0.01589623718680814
1761476337891614500,6.062614501953125,0.026478841602802276,-0.030202246040105817,-0.01851831105239689
1761476337901648600,6.072648681640625,0.05359305849969387,-0.00929017171896994,-0.014022990660835056
1761476337911681500,6.082681640625,0.04313946902453899,-0.004490954743698239,-0.006419054995756596
1761476337921714400,6.09271435546875,0.011855857488512991,-0.02248188092112541,0.0038965690471231937
1761476337931748600,6.10274853515625,-0.015838789644837377,-0.06622245764397085,-0.0027195976896211504
1761476337941781500,6.112781494140625,-0.012860066094994545,-0.05339600155763328,-0.010301211925037204
1761476337951814700,6.122814697265625,0.020951018092036245,-0.01320763742364943,-0.010699600125476718
1761476337961848600,6.1328486328125,0.04581131858229637,0.011765402726083993,0.0017474099229089915
1761476337971881700,6.1428818359375,0.03594634265005588,0.026310133972391486,0.014091251857765018
1761476337981914600,6.15291455078125,0.0028676643908023833,-0.008347776302322744,0.022678152411896736
1761476337991948500,6.162948486328125,-0.026622633987665175,-0.06794423993527889,0.008324906883388758
1761476338001981400,6.1729814453125,-0.014518354696035385,-0.0736218471802771,-0.0044756841093301775
1761476338012014600,6.1830146484375,0.04234744186401367,-0.02230140978768468,-0.0060887087965384125
1761476338022048500,6.193048583984375,0.07170154664218426,0.026573826409876346,0.00944658612338826
1761476338032081700,6.20308154296875,0.0274362884581089,0.020305486730113623,0.02540249934187159
1761476338042114600,6.213114501953125,-0.026569442495703696,-0.012537263881415128,0.03879745776485651
1761476338052148500,6.2231484375,-0.04694587557017803,-0.03267842689529061,0.035384160456340755
1761476338062181400,6.233181396484375,-0.04296703506708145,-0.05345328470282256,0.02740954658165574
1761476338072214500,6.243214599609375,-0.006526186898350716,-0.057904784218966956,-0.004704853222705424
1761476338082248400,6.25324853515625,0.04206161065995693,-0.03823817991428077,-0.020579992822557687
1761476338092281600,6.263281494140625,0.0635953970760107,-0.006556582036614417,-0.01320473308051005
1761476338102314500,6.273314453125,0.06690028384029865,0.000528553918749094,-0.02791720384284854
1761476338112348700,6.2833486328125,0.0477794037848711,-0.006224573603272438,-0.029848592030536383
1761476338122381600,6.293381591796875,0.026564766320586203,-0.014668138430267572,-0.02993391396012157
1761476338132414500,6.30341455078125,0.015236732098460196,-0.009302812004834413,-0.030419505519978702
1761476338142448600,6.31344873046875,0.01975099465250969,-0.013241978084668517,-0.0229368216143921
1761476338152481500,6.3234814453125,0.013491349735856055,-0.01876059537567198,-0.008538677498232573
1761476338162514400,6.333514404296875,0.022483049964904783,-0.000640855186805129,-0.004649725501984357
1761476338172548600,6.343548583984375,0.02383563361763954,-0.01211056290194392,0.007732019024156034
1761476338182581800,6.353581787109375,0.012169745743274687,-0.01142966796569526,0.010837583824060857
1761476338192614700,6.36361474609375,0.004994739547371864,-0.013851122958958148,0.010163611818943171
1761476338202648600,6.373648681640625,0.010385200414061546,-0.0016040011305361985,0.01768962340960279
1761476338212681500,6.383681396484375,0.009775544083118438,-0.0043167672205716365,0.020516754860617218
1761476338222714600,6.393714599609375,0.015591536885499952,-0.0016224866352975368,0.0038426286364905532
1761476338232747500,6.40374755859375,0.026658874344825743,-0.009636208677664399,-0.0015595957332290708
1761476338242781700,6.41378173828125,0.032361469900608064,-0.008556962073594332,-0.010462960091698914
1761476338252814600,6.423814697265625,0.037791093733906746,-0.018306421867385507,-0.021370248151104897
1761476338262847700,6.43384765625,0.0381242712110281,-0.020561215056851503,-0.021615363752283154
1761476338272881400,6.44388134765625,0.011654781958460807,-0.028994477685540913,-0.006065346187260002
1761476338282914600,6.45391455078125,0.0007259761869907379,-0.03311791429109871,0.009374123675376177
1761476338292947500,6.463947509765625,-0.01274783789217472,-0.049253421860188246,0.02100901362327859
1761476338302981600,6.473981689453125,-0.012925532546639442,-0.04860262980125844,0.016704576161317528
1761476338313014500,6.4840146484375,0.0015682722300291061,-0.027093027978390454,0.004468962107598781
1761476338323047700,6.494047607421875,0.025799627166986465,-0.011943608837202191,-0.0055211015090346335
1761476338333081600,6.50408154296875,0.0329828166693449,-0.014951704612001775,-0.010722140750847757
1761476338343114500,6.514114501953125,0.025507366222143172,-0.03089570819698274,0.003619304742012173
1761476338353147400,6.5241474609375,0.008313654837012291,-0.039622766140475864,0.004936707483511418
1761476338363181600,6.534181640625,-0.0006692775636911391,-0.052593306872621176,0.010824706076178699
1761476338373214500,6.54421435546875,-0.004562193349003791,-0.042084187817946074,0.0008655490544624626
1761476338383247600,6.55424755859375,0.004702478602528572,-0.018006196811795234,-0.003999828492198139
1761476338393280500,6.564280517578125,0.011867547926306723,-0.006877703749760985,-0.002224653779529035
1761476338403314700,6.574314697265625,0.02008651021718979,0.002837634578719735,0.0007289901279844344
1761476338413347600,6.58434765625,0.02607084532380104,0.006461085772886872,0.011334756223857403
1761476338423380700,6.594380615234375,0.01932955437004566,0.0053347851566970346,0.013458050254452973
1761476338433414400,6.604414306640625,-0.00013268646895885466,-0.0015543898351490497,0.007330543817486613
1761476338443447600,6.614447509765625,-0.0046498716324567795,-0.0026078444108366965,0.005436272769793867
1761476338453480400,6.62448046875,0.0012882862448692321,-0.00735664637312293,0.006638159372843801
1761476338463514600,6.6345146484375,0.006501636978983879,-0.0017920710485428571,-0.005612268657516688
1761476338473547500,6.644547607421875,0.023997546181082723,-0.00028247020319104195,-0.01037807655353099
1761476338483580700,6.65458056640625,0.03760638481676578,-0.0032025223683565854,-0.013218834671098738
1761476338493614300,6.6646142578125,0.02608428932726383,-0.011796309321001171,-0.019049970243684947
1761476338503647500,6.6746474609375,0.024003975921869276,-0.013984540080279112,-0.01864487830782309
1761476338513680100,6.68468017578125,0.01203764379620552,-0.011491188894584774,-0.015224511937703937
1761476338523713300,6.69471337890625,-0.005180617508292198,-0.02420402853861451,-0.009602142011281102
1761476338533747200,6.704747314453125,-0.008044190245866775,-0.018731296215951442,0.0025150880934670565
1761476338543780400,6.7147802734375,-0.014650456643104553,-0.027424013498425482,0.0004421542769297957
1761476338553813200,6.724813232421875,0.00895896700322628,-0.04780088496431708,-0.0004798559388145804
1761476338563847400,6.734847412109375,0.025106968727707863,-0.038032793535292146,-0.006923132060375065
1761476338573880300,6.74488037109375,0.027056933751702306,-0.03606682722456753,-0.005779752445220947
1761476338583913200,6.754913330078125,0.036949382212758064,-0.027941826827451586,0.0035991935357451437
1761476338593947400,6.764947509765625,0.02992810527384281,-0.02154365022294223,0.012626111208647489
1761476338603980300,6.774980224609375,-0.0023866028755903245,-0.01566306775175035,0.012524185204133391
1761476338614013200,6.78501318359375,-0.018867197555303573,-0.023631854673847555,0.012787512315437196
1761476338624046300,6.79504638671875,-0.016210545566678045,-0.0406977018956095,0.016329897630028425
1761476338634080500,6.80508056640625,0.012644377517700195,-0.0378994494792074,0.010554419501125812
1761476338644113400,6.815113525390625,0.03853051392436027,-0.028808965050801633,0.003872475785482675
1761476338654146300,6.825146240234375,0.055306876680254934,-0.020452932376787067,0.007524294557608663
1761476338664180200,6.83518017578125,0.03734393448829651,0.0008929302517324685,0.01455896070105955
1761476338674213400,6.84521337890625,0.0008469722181558609,0.01803783405907452,0.020039437938760965
1761476338684246300,6.855246337890625,-0.05184241544008255,0.0156755619071424,0.028407234115805476
1761476338694280400,6.865280517578125,-0.045294601231813426,0.0005107260011136532,0.029254553393833337
1761476338704313300,6.875313232421875,-0.023971242696046828,-0.02176116543114185,0.028470289414655417
1761476338714346500,6.885346435546875,0.012470774516463279,-0.04496938786543905,0.008594134012516588
1761476338724379400,6.89537939453125,0.04190262070596218,-0.041430619280040264,-0.010827829615026712
1761476338734413300,6.905413330078125,0.05205635045170784,-0.02313544945903122,-0.019765918227005748
1761476338744446200,6.9154462890625,0.0417447997957468,-0.021878581265732645,-0.023697448989655822
1761476338754479400,6.925479248046875,0.006298807883262634,-0.021251097017154098,-0.0372794361510314
1761476338764513300,6.93551318359375,0.002419336101412773,-0.025655177194997665,-0.04088151576360687
1761476338774546400,6.94554638671875,0.020391046121716497,-0.01722381426244974,-0.03343404930187389
1761476338784579300,6.955579345703125,0.03313186975121498,-0.01660064086280763,-0.024531032003276047
1761476338794613200,6.96561328125,0.03227028448581695,-0.016166048837825655,-0.02097755903908983
1761476338804646100,6.975646240234375,0.03470423363447189,-0.011655147284641862,-0.0031288726102560757
1761476338814679300,6.98567919921875,0.013625205248594284,-0.0035517741974443193,0.01719139156388119
1761476338824712200,6.995712158203125,-0.029938042145967483,-0.009249035990983248,0.02445509895654395
1761476338834746400,7.005746337890625,-0.030137948632240293,-0.008544248722493647,0.031795707510318606
1761476338844779300,7.015779296875,-0.012370821273326874,0.0032046412602066993,0.02661340950159356
1761476338854812400,7.0258125,0.02650163795650005,-0.0034383038856089115,0.027378183329012245
1761476338864846300,7.035846435546875,0.043972412717342375,-0.0024969313822686672,0.013448697904217988
1761476338874879500,7.04587939453125,0.04200315847098827,-0.012980550669506192,-0.003695310853980481
1761476338884912000,7.055912109375,0.03451309497654438,-0.015036094959825276,-0.013458068520762026
1761476338894945300,7.0659453125,0.023920389291644095,-0.008891089398786425,-0.020266725622303784
1761476338904979200,7.075979248046875,0.021399346381425856,-0.010622808562219142,-0.011597992003615946
1761476338915012400,7.086012451171875,0.0038958383947610854,-0.03150624131076038,-0.005606587835401296
1761476338925045200,7.096045166015625,-0.005841127243638038,-0.03914535788707435,0.005996062077023088
1761476338935079400,7.106079345703125,-0.014105682241916656,-0.041104090739414095,0.004278462770488113
1761476338945112300,7.1161123046875,0.002921440404653549,-0.033462636075541376,0.010134330925531685
1761476338955145500,7.1261455078125,0.011588146463036537,-0.030292627737298607,0.001858688277658075
1761476338965178400,7.136178466796875,0.025348376268148422,-0.024725787390395996,-0.001491298003681004
1761476338975212300,7.14621240234375,0.022351532539725303,-0.014195333286747335,0.004939392630942166
1761476338985245200,7.1562451171875,0.031019407641887663,-0.011554974845796822,0.019402911867201326
1761476338995278300,7.1662783203125,0.004510755422711372,-0.021282003612071273,0.03288863557986915
1761476339005312300,7.176312255859375,-0.024570377632975576,-0.02353475097492337,0.016532964187767354
1761476339015345400,7.186345458984375,-0.02283785475194454,-0.01194528933763504,0.0027731727740727364
1761476339025378300,7.19637841796875,0.010631868651509285,-0.012249167655035852,-0.012050229283142835
1761476339035411500,7.206411376953125,0.05178922394812107,-0.006757073044776916,-0.02785402067983523
1761476339045445000,7.216445068359375,0.06917524303495884,-0.011305091737955807,-0.013031842465326189
1761476339055478300,7.226478271484375,0.0660837067604065,-0.025606150421500204,-0.00853352639907971
1761476339065511200,7.23651123046875,0.02168283949792385,-0.027039178899303077,-0.0018287132645025848
1761476339075544300,7.24654443359375,-0.012715104666352272,-0.026059154886007307,0.006699442839715629
1761476339085578200,7.256578125,-0.03891396028399467,-0.010879705932736397,0.013924790983367711
1761476339095611400,7.266611328125,-0.04314882137477398,0.005451105012744665,0.016830321432836352
1761476339105644300,7.276644287109375,-0.02301613392829895,0.009664850250259042,0.027602384006325153
1761476339115678200,7.28667822265625,0.003109656453132629,0.0030919016007333994,0.021432463199738412
1761476339125711000,7.296711181640625,0.04976794725358486,-0.007713716182485222,-0.0058961271001957355
1761476339135744300,7.306744140625,0.06459668307304382,-0.016200243368372322,-0.02235111241461709
1761476339145777200,7.316777099609375,0.05326572624146938,-0.03479951070249081,-0.03096006040377542
1761476339155811300,7.326811279296875,0.03536532789170742,-0.04347951463386416,-0.023895821105968204
1761476339165844200,7.33684423828125,0.008609422913193701,-0.03970796020589769,-0.000726341513171792
1761476339175877400,7.34687744140625,-0.0159293905377388,-0.03226473152786493,0.016226930445898322
1761476339185911300,7.356911376953125,-0.035567572465538974,-0.023641864611208437,0.020235946891549974
1761476339195944200,7.366944091796875,-0.02110416282713413,-0.022827771749347445,0.007629545030370354
1761476339205977000,7.37697705078125,-0.007674772411584854,-0.013624474596232176,0.0026993586191907523
1761476339216010200,7.38701025390625,0.03137421242892742,-0.004520838425308466,-0.008999207682069391
1761476339226044400,7.39704443359375,0.056229252222180365,-0.006075739717110991,-0.019781937780044972
1761476339236077300,7.407077392578125,0.05432721799314022,-0.013986658972129225,-0.014472323597222565
1761476339246110200,7.417110107421875,0.04241115474998951,0.002508183428645134,-0.008673190598096698
1761476339256143400,7.427143310546875,0.01089607254564762,-0.012731763540208338,-0.008540303199738263
1761476339266177500,7.437177490234375,-0.016013561689853666,-0.027423355911299584,0.0012957754315808415
1761476339276210400,7.44721044921875,-0.02618716517984867,-0.03965703373625874,0.003280683904793113
1761476339286243300,7.457243408203125,-0.007476034969091415,-0.04027523869983852,0.002443429363053292
1761476339296277200,7.46727734375,0.012568974193930625,-0.020880583204329013,0.011086352687049656
1761476339306310400,7.477310302734375,0.029473931765556335,-0.0008864274457097053,0.009725183869060128
1761476339316343300,7.48734326171875,0.015844050341844558,0.001830064971372485,0.01531770664649084
1761476339326376200,7.497376220703125,-0.003156418204307556,-0.002719561157003045,0.01940205335067585
1761476339336410400,7.507410400390625,-0.014062427622079848,-0.006664134064316749,0.02309391187224537
1761476339346443500,7.517443603515625,0.006740706431865692,-0.01961816205307841,0.0233870861325413
1761476339356476400,7.527476318359375,0.023653262788057326,-0.03402743035145104,0.014798541610594839
1761476339366509300,7.53750927734375,0.028434651845693586,-0.04465535348020494,0.008141001683846115
1761476339376543200,7.547543212890625,0.02228548156619072,-0.04851078679934144,-0.004279211689159274
1761476339386576400,7.557576416015625,0.0013186813831329346,-0.05078238499313593,-0.006113295248523354
1761476339396609300,7.567609375,-0.008853168541193009,-0.03662657999917865,-0.02047227639807388
1761476339406642200,7.57764208984375,0.010893149936199187,-0.041183877977356315,-0.03028941286690533
1761476339416676400,7.58767626953125,0.03739244980514049,-0.02001658678613603,-0.02702717793425545
1761476339426709500,7.59770947265625,0.04160217645466328,0.001685980325564742,-0.023312797053623942
1761476339436742400,7.607742431640625,0.031603929531574246,0.00394333079829812,-0.014024104905687272
1761476339446775300,7.617775390625,0.018627543580532074,0.0008442688044160604,-0.0037578181635588405
1761476339456809200,7.627809326171875,0.00341068522632122,-0.007241349430382251,0.011591160404030233
1761476339466842400,7.63784228515625,0.0028366847306489943,-0.0023473668437451124,0.009451627624686806
1761476339476875300,7.647875244140625,0.002852466821670532,-0.007119038224965333,0.021796492472849784
1761476339486909400,7.657909423828125,-0.008684241715073584,-0.016156038900464773,0.0271838115343824
1761476339496942300,7.6679423828125,-0.007661912930011749,-0.023595468186214566,0.01665173172922805
1761476339506976000,7.67797607421875,0.014752747973799704,-0.031470731605961914,0.0022583916523493826
1761476339517009000,7.6880087890625,0.030599720925092694,-0.020318784603103993,-0.016679733981005848
1761476339527042800,7.698042724609375,0.050076574811339376,-0.005872837556153535,-0.029671207903325555
1761476339537076000,7.708075927734375,0.04218143764734268,-0.00722264472991228,-0.04008450190071016
1761476339547108900,7.71810888671875,0.021432079607248303,-0.005813216323405504,-0.02678571559488773
1761476339557142000,7.72814208984375,0.003503624206781387,-0.007914718647301196,-0.0008740246218629181
1761476339567176000,7.738176025390625,0.0011328034222126005,-0.018635873017460107,0.00821603968143463
1761476339577209000,7.748208984375,-0.006359598159790039,-0.018174246855080126,0.015287804698571562
1761476339587242000,7.758241943359375,-0.013407763105630873,-0.03152764942497015,0.016179876433778554
1761476339597275100,7.768275146484375,-0.001305237379670143,-0.043807869805395604,0.012509407760109751
1761476339607308800,7.778308837890625,0.012283142989873885,-0.05471716715879738,0.0008802169006317854
1761476339617342000,7.788342041015625,0.020797288835048673,-0.05997559914365411,0.0019877214848063886
1761476339627374800,7.798374755859375,0.03171966486573219,-0.04390760385282337,-0.004461198926251382
1761476339637408000,7.808407958984375,0.03052724021077156,-0.028478052596002817,-0.005399210428725928
1761476339647442000,7.81844189453125,0.029058921223878858,-0.020897461273893712,-0.0014815985935740172
1761476339657475000,7.82847509765625,0.02654489257633686,-0.019616335422173142,-0.0011456263711676002
1761476339667508000,7.838508056640625,0.01563829863667488,-0.009836042098701,0.011417319940775631
1761476339677541000,7.848541015625,0.00384030881524086,-0.009499065229296683,0.011606357973162083
1761476339687574800,7.85857470703125,0.005945756661891937,-0.022731764028966425,0.01062426986694336
1761476339697608000,7.86860791015625,0.008194996893405913,-0.014599822434410452,0.010268551764450967
1761476339707640800,7.878640869140625,0.016132219633460045,-0.014835384755954145,0.002237001804448664
1761476339717674000,7.888674072265625,0.020920622953772543,-0.007957900201901793,0.014191351231373845
1761476339727708000,7.8987080078125,0.009832827228307724,-0.005668766351416707,0.010102931140270083
1761476339737741000,7.908740966796875,0.0014361702829599379,-0.008883709809929132,0.0032901093202643093
1761476339747774000,7.91877392578125,-0.0006879822641611098,-0.010120485063269733,-0.007953881613910198
1761476339757807000,7.92880712890625,0.009628829088807106,-0.009474807570874691,-0.019702881194464863
1761476339767840800,7.9388408203125,0.029989480072259902,-0.013654504408314823,-0.020326602583378553
1761476339777874000,7.9488740234375,0.03764145613014698,-0.007030702354386449,-0.010513137642666696
1761476339787906800,7.95890673828125,0.023006781578063965,-0.009143456724658609,-0.009565390197467058
1761476339797940000,7.96893994140625,0.014490297645330429,-0.010737667113542557,-0.004249656801111996
1761476339807974000,7.978973876953125,-0.01155658228099346,-0.013789382834360002,0.00006128346687182784
1761476339818007000,7.989007080078125,0.002492401337623596,-0.015925371949747205,-0.004546192062273621
1761476339828040000,7.9990400390625,-0.003797638717293739,-0.02756400649100542,-0.007080094454064965
1761476339838073000,8.009072998046875,0.014002806389331816,-0.03903517551086843,-0.007082377742696553
1761476339848105000,8.01910498046875,0.02269406236708164,-0.04320383949764073,-0.009791180043667554
1761476339858139100,8.02913916015625,0.02959434327483177,-0.03843530992157757,-0.0018368235057219862
1761476339868172000,8.039172119140625,0.026615035203099248,-0.020867139200866223,0.010058872802834956
1761476339878205000,8.049204833984374,0.00985913071334362,-0.010824395548924804,0.006812438227515667
1761476339888238000,8.059238037109376,0.003710544955730438,-0.00433306076824665,0.012882570187747478
1761476339898272000,8.06927197265625,-0.010823007309436798,-0.003672916359081864,0.009705383190046995
1761476339908305000,8.079304931640625,-0.0018529343903064726,-0.022180632952228187,0.00903066226625815
1761476339918337800,8.089337890625,0.025533669707179067,-0.03548968492373824,0.0026110044823028145
1761476339928371000,8.099370849609375,0.04949497553110122,-0.04520429259985685,-0.0019029658108018338
1761476339938405000,8.109405029296875,0.053117257681488984,-0.04186543050073087,-0.0023283516160212455
1761476339948438000,8.11943798828125,0.0260638310611248,-0.014722498966008423,0.006288487418647855
1761476339958471000,8.129470947265625,-0.01059329020678997,-0.01554156026393175,0.017138254870846865
1761476339968504000,8.139504150390625,-0.02960661823451519,-0.008653042859211564,0.018516667084582147
1761476339978538000,8.1495380859375,-0.04624854095578193,-0.015060791009664535,0.03040335810277611
1761476339988571000,8.15957080078125,-0.026712065836787223,-0.013900515058636664,0.032065117302536965
1761476339998603800,8.169603759765625,0.012126491123437881,-0.02494987846985459,0.020195450484380126
1761476340008637000,8.179636962890624,0.029894203004240987,-0.03267046278454363,0.00496419827863574
1761476340018671000,8.189671142578124,0.03572013267874718,-0.02554718677587807,-0.0045921866284683345
1761476340028704000,8.1997041015625,0.037376667714118954,-0.024786139275506137,-0.022192780047748238
1761476340038737000,8.20973681640625,0.025713702449202538,-0.02847856405265629,-0.02619872775347903
1761476340048770000,8.21977001953125,0.014336568388342857,-0.028764760582894084,-0.029333774376194922
1761476340058804000,8.229803955078125,0.0189835174113512,-0.020273922548070547,-0.033253048445470626
1761476340068836900,8.2398369140625,0.020941081219911575,-0.01610503936558962,-0.02564980690013617
1761476340078869800,8.249869873046874,0.034140170010924335,-0.01246025312244892,-0.01396610937444493
1761476340088903000,8.25990283203125,0.023417700466513633,-0.014699702612310647,-0.017527838710322974
1761476340098935800,8.269935791015625,0.011022329273819922,-0.005846168744936585,-0.0036830176279880104
1761476340108970000,8.279969970703124,0.004143675675988197,-0.006635200230777264,0.01669385383790359
1761476340119003000,8.2900029296875,-0.0003618190497159958,0.009940598451718687,0.022101959959138183
1761476340129036000,8.3000361328125,-0.004134323325753211,-0.008271496195718646,0.02192108696689829
1761476340139069000,8.31006884765625,0.010662848311662674,-0.022522359061986207,0.019432083162758497
1761476340149102800,8.320102783203126,0.032499417066574096,-0.035147374292090534,-0.0016067776095122098
1761476340159135700,8.3301357421875,0.04417056563794613,-0.029109190106391906,-0.008417991994321345
1761476340169169000,8.3401689453125,0.04493278218209743,-0.02601400057002902,-0.02228339920695871
1761476340179201800,8.350201904296876,0.037166239833831785,-0.018294804494827985,-0.021412845183815806
1761476340189236000,8.360236083984375,0.009483867660164833,-0.005413914807513356,-0.004659552776254713
1761476340199268900,8.370268798828125,-0.009090484428405762,0.00032046412602066993,0.0010693097319453954
1761476340209302000,8.380302001953124,-0.017629180192947385,-0.012142054018750787,0.004711008968856185
1761476340219335000,8.3903349609375,0.0039127895295619965,-0.030824250395968554,0.0005010813899338245
1761476340229368800,8.400368896484375,0.020824761363863943,-0.03869520296677947,0.003867982273455709
1761476340239401700,8.410401611328124,0.029503742381930348,-0.02882569698989391,0.0026543504336848855
1761476340249435000,8.420434814453126,0.02203530619740486,-0.03900777604728937,-0.006204078804515302
1761476340259467800,8.4304677734375,0.013510638958215714,-0.03943688817955553,0.003516684617754072
1761476340269501000,8.4405009765625,0.0013946692287921906,-0.03500307045057416,0.010203012247569858
1761476340279534800,8.450534912109376,-0.013428221371769904,-0.03981777725592255,0.00476018187282607
1761476340289568000,8.460568115234375,-0.004171732726693153,-0.034876667591929436,-0.0010724150044843553
1761476340299601000,8.470600830078125,0.01301496439576149,-0.03583944820947945,0.0019333426827564835
1761476340309634000,8.480634033203126,0.039357027876377106,-0.023883929738774894,-0.0028099976531229913
1761476340319667700,8.490667724609375,0.03084522011876106,-0.024583310179784892,-0.0025242395143024623
1761476340329700900,8.500700927734375,0.03730710960924625,-0.023715952760726213,-0.0046455242509022355
1761476340339733800,8.510733642578124,0.022510522493720053,-0.014032763136178255,0.01318272217810154
1761476340349767000,8.520766845703125,0.003503624206781387,-0.015977175202220677,0.023023933642264453
1761476340359800800,8.53080078125,-0.01281973408460617,-0.01069280505850911,0.01570385641986504
1761476340369834000,8.540833984375,-0.009247136294841765,-0.009980492070689797,0.017660634777136145
1761476340379867000,8.550866943359376,-0.00554302107989788,-0.013961305335164069,0.004544164501968771
1761476340389900000,8.560900146484375,0.01940671125948429,-0.010813581893965602,-0.00506734812585637
1761476340399933000,8.570932861328124,0.04019114061295986,-0.015468129701539874,-0.01671243067421019
1761476340409966800,8.580966796875,0.04410977536141872,-0.02800963136665523,-0.018143340260162948
1761476340419999700,8.590999755859375,0.04907996498942375,-0.024091069683432578,-0.016089768731221556
1761476340430034000,8.601033935546875,0.021422142735123634,-0.015173603734374045,-0.0119419831356965
1761476340440066800,8.61106689453125,0.003774257841706276,-0.023137495285645127,-0.009448979009874164
1761476340450101000,8.62110107421875,-0.004296235889196396,-0.011076835940033197,-0.0030693609753623605
1761476340460134100,8.631134033203125,-0.0020528408765792846,-0.012403554499149321,0.007249551003146916
1761476340470167000,8.6411669921875,0.007828501668572425,-0.015398133205249905,0.009661818042956292
1761476340480200000,8.651199951171876,0.010220365241169928,-0.015400836618989704,0.0014189999524503946
1761476340490233900,8.66123388671875,0.030112814190983772,-0.02437953123599291,-0.0019844518154859543
1761476340500267000,8.67126708984375,0.03655424541532993,-0.03467128121294081,0.004190163432527334
1761476340510299100,8.681299072265626,0.016056816309690476,-0.03739011171758175,-0.006549713904410601
1761476340520332300,8.691332275390625,0.005127426016330719,-0.02868000490888953,0.008683364932239056
1761476340530365200,8.701365234375,0.005426116701960563,-0.025388123756647108,0.01067552513014525
1761476340540399400,8.7113994140625,0.010655834048986434,-0.011569149501621722,0.0011340637975372372
1761476340550432300,8.721432373046875,0.02397474982738495,-0.011530497991666198,0.0003077142423018813
1761476340560465400,8.73146533203125,0.02247837378978729,-0.021276596784591675,-0.0030419067128561435
1761476340570498300,8.741498291015626,0.02787935605049133,-0.024756693985313175,-0.010742251957114785
1761476340580532200,8.7515322265625,0.029565701702237126,-0.02918766217008233,-0.01453088538404554
1761476340590565000,8.761565185546875,0.029304420417547224,-0.02758987158462405,-0.0063746861310675735
1761476340600598300,8.771598388671874,0.02768763287067413,-0.02091777340956032,0.004700323178060352
1761476340610631200,8.781631103515625,0.01827916853427887,0.0014916267972439527,0.01180420036651194
1761476340620665300,8.791665283203125,0.0031751229047775266,-0.004989844176545739,0.015254048559442162
1761476340630698200,8.8016982421875,-0.01597381420135498,-0.010232347939908504,0.022328608321864157
1761476340640731400,8.8117314453125,-0.011778116077184677,-0.0171492877215147,0.028456114758830517
1761476340650764300,8.821764404296875,0.0004728782087564468,-0.035037484176829455,0.03275856119310483
1761476340660797400,8.83179736328125,0.006997311541438103,-0.04358399792164564,0.025599684148095547
1761476340670831000,8.8418310546875,0.01727262184023857,-0.048942675410583614,0.02311970390062779
1761476340680864300,8.8518642578125,0.027114216896891592,-0.0419419298030436,0.005452237523905933
1761476340690897200,8.861897216796875,0.01842939065992832,-0.03572276302725076,-0.013332378048170357
1761476340700930300,8.871930419921876,0.031003041028976438,-0.04178805441558361,-0.018204148802999406
1761476340710963200,8.881963134765625,0.02728255920112133,-0.044201399167627095,-0.02630010576872155
1761476340720997400,8.891997314453125,0.027014263653755186,-0.03402859939523041,-0.03310646131532267
1761476340731030300,8.9020302734375,0.04126081567108631,-0.012245952784642576,-0.02272969993604347
1761476340741063400,8.9120634765625,0.030681553989648818,0.0005591682527214288,-0.01369350297814235
1761476340751096300,8.922096435546875,0.016503975555300712,-0.004482406111061573,-0.01059228555979207
1761476340761130200,8.932130126953124,0.011886252626776695,-0.014124240811914204,-0.003825750566925853
1761476340771163100,8.9421630859375,0.004870820906758308,-0.010279621147736907,0.0047330016049556434
1761476340781196300,8.9521962890625,0.007566635861992835,-0.008610080500319599,0.016956048438046125
1761476340791229200,8.962229248046874,0.0044137247890233995,0.012755655872449279,0.021473452797252685
1761476340801262300,8.972262451171876,0.01995557731389999,0.010863777711242436,0.02153345762249082
1761476340811296300,8.982296142578125,0.013650339689850806,0.002539163088798523,0.014824150975886732
1761476340821329400,8.992329345703125,0.018414777612686156,-0.005583280025050044,-0.000911525354348123
1761476340831362300,9.0023623046875,0.03353051367998123,-0.015895488268136977,-0.015188545575179159
1761476340841395500,9.0123955078125,0.044157121634483334,-0.026159473455324767,-0.0262012119715102
1761476340851428400,9.022428466796875,0.039382162317633626,-0.02816847519017756,-0.030089141054451464
1761476340861462300,9.032462158203124,0.025941665986180303,-0.021354995783045887,-0.023704170991387215
1761476340871495200,9.0424951171875,0.008896423161029815,-0.020061448841169477,-0.006190506936889141
1761476340881528300,9.0525283203125,-0.004272270491719246,-0.024496727874875068,-0.0003038783174008131
1761476340891561200,9.062561279296874,-0.008171616017818451,-0.02291508470661938,0.012529500700067728
1761476340901595400,9.072595458984376,-0.01058978307545185,-0.02111636472158134,0.011522406016755849
1761476340911628300,9.082628173828125,0.00255669874548912,-0.027629399877414106,0.01273939885739237
1761476340921661400,9.092661376953124,0.02259820077717304,-0.029816973049566146,0.0019102175354957578
1761476340931694300,9.1026943359375,0.026461890468001365,-0.016744798573851586,-0.007324625533353537
1761476340941727200,9.112727294921875,0.031095395487546917,-0.033421865673735736,0.006007715982198715
1761476340951761200,9.12276123046875,0.018527590337395667,-0.04019720502756536,0.015633494597394017
1761476340961794300,9.132794189453126,0.021816695010662076,-0.042102819453179834,0.014874218929000198
1761476340971827200,9.1428271484375,0.01718377451300621,-0.041231224250420924,0.0010883797585964203
1761476340981860000,9.152860107421875,0.016882161217927932,-0.02922134524397552,0.009425068411324173
1761476340991893200,9.162893310546876,0.020164251628518103,-0.020101050199195742,0.0091697236770764
1761476341001927400,9.172927490234375,0.001443184545636177,-0.00743570295870304,0.016734021451510487
1761476341011960300,9.182960205078125,0.0021627309918403623,-0.004765241640433669,0.021801278245821593
1761476341021993200,9.1929931640625,0.004371054691076279,-0.004589300551638007,0.02239020231598988
1761476341032026400,9.2030263671875,0.01602642117142677,-0.004851531684398651,0.010902538819052279
1761476341042059300,9.213059326171875,0.024699556970596313,-0.011283683623746037,0.0015403247771784661
1761476341052093200,9.22309326171875,0.0321679931551218,-0.01661737280189991,0.0004018405328504741
1761476341062126000,9.2331259765625,0.03814531399905682,-0.024153759656101465,-0.006521072331815958
1761476341072159200,9.2431591796875,0.026169045001268387,-0.018081600135564802,-0.011423767947871238
1761476341082192100,9.253192138671874,0.01958615947961807,-0.010851137425377964,-0.006947773311287164
1761476341092225300,9.263225341796876,0.026160861694812774,-0.010830533028766512,-0.01249090398903936
1761476341102259200,9.27325927734375,0.02076397108733654,-0.023968466217070817,-0.017383352205716074
1761476341112292400,9.283292236328125,0.02465045713186264,-0.021061931120604276,-0.014969441198091953
1761476341122325200,9.2933251953125,0.02466039400398731,-0.025939327898621557,-0.011832714074943214
1761476341132358400,9.3033583984375,0.031388825476169585,-0.025054142561927437,-0.010430446061585098
1761476341142391300,9.313391357421875,0.018223638954758644,-0.012056056235730648,0.004695774867106229
1761476341152425200,9.32342529296875,0.016285948890447616,-0.019614581856504082,0.008329729188978672
1761476341162458000,9.3334580078125,0.003417699488997459,-0.011306479977443813,0.008774002357758581
1761476341172491300,9.3434912109375,0.0011468319475650788,-0.018515607638657092,0.007279507749993354
1761476341182524200,9.353524169921876,0.006965747359395026,-0.029649142201989886,0.007727744707837701
1761476341192558300,9.363558349609375,0.015187632259726523,-0.03793875857628882,0.006630085664242506
1761476341202591200,9.37359130859375,0.03193243083357811,-0.03847586112767458,0.006214691530074924
1761476341212624400,9.383624267578124,0.036254385685920716,-0.03256481045298278,-0.00044697658251971
1761476341222657300,9.3936572265625,0.025323826348781584,-0.021205504309758542,0.002835771415196359
1761476341232690400,9.4036904296875,0.020376433074474332,-0.009896905440464615,-0.005026011468470096
1761476341242724000,9.41372412109375,0.014244213929772376,-0.00003923603184521198,-0.010335771781764924
1761476341252757200,9.42375732421875,-0.0008767828345298766,-0.005642024474963546,-0.0028632439440116285
1761476341262790100,9.4337900390625,0.004958499190211295,-0.012348609441518783,-0.005263875344954431
1761476341272823300,9.4438232421875,0.02622106744945049,-0.025652985237911343,-0.012553813157416879
1761476341282856200,9.453856201171876,0.03521393672227859,-0.029906404898688194,-0.010051474947668611
1761476341292890400,9.463890380859375,0.03433832293152809,-0.020394260992109774,-0.010224438628088682
1761476341302923300,9.47392333984375,0.03286240516006946,-0.020551278184726834,-0.011739537632465363
1761476341312956400,9.483956298828126,0.014462240594625472,-0.01662906323969364,-0.0016412461346946656
1761476341322989300,9.4939892578125,-0.008450432959198952,0.0013173662088811398,0.013218560676462947
1761476341333022500,9.5040224609375,-0.019096330136060713,-0.002464709613099694,0.011399218028504401
1761476341343056100,9.51405615234375,-0.028106150543689725,-0.011368658493459223,0.03003688114425167
1761476341353089300,9.52408935546875,-0.002864157259464264,-0.02150178384259343,0.02449343993924558
1761476341363122200,9.5341220703125,0.024464579170942306,-0.028014818998426196,0.014056180544383822
1761476341373155300,9.5441552734375,0.044478608673810954,-0.02780724066235125,-0.005069485284015536
1761476341383188200,9.554188232421875,0.04028466411530971,-0.01444696996025741,-0.015888839331641792
1761476341393221400,9.564221435546875,0.03701017248928547,-0.01561250660829246,-0.020160141708981245
1761476341403255300,9.57425537109375,0.022364392021298408,-0.03922339155934751,-0.019706278727948664
1761476341413288400,9.584288330078126,0.021630817049741742,-0.04437522136457264,-0.023502711868844926
1761476341423321300,9.5943212890625,0.01761807427704334,-0.03845116507783532,-0.022110344194993376
1761476341433354500,9.6043544921875,0.025717209580540655,-0.02344159279875457,-0.016273052876256404
1761476341443388200,9.61438818359375,0.012559037321805954,-0.004125117105990648,0.002679777135886252
1761476341453421300,9.62442138671875,0.001034019222855568,0.002385433831810951,0.010617401734739542
1761476341463454200,9.6344541015625,-0.003167524120211601,0.006573387040942907,0.02233598791072145
1761476341473487400,9.6444873046875,-0.007068038690090179,0.008219985204190015,0.020942067600600422
1761476341483520300,9.654520263671875,0.018515899899601937,0.006961144249513745,0.021237707812618464
1761476341493553200,9.66455322265625,0.03258241917490959,-0.011341551290825008,0.017768643462564796
1761476341503587300,9.67458740234375,0.035730069550871844,-0.02983604307621717,0.01202387099917978
1761476341513620500,9.684620361328125,0.029752748706936834,-0.03138582980148494,-0.0036274515158496797
1761476341523653400,9.6946533203125,0.036354923450946805,-0.0349844388153404,-0.02131464550634846
1761476341533686300,9.704686279296874,0.03038695495724678,-0.013777984657511115,-0.025153255554847417
1761476341543719200,9.71471923828125,0.016484686332941055,-0.003043532414361834,-0.023891291061323136
1761476341553753300,9.72475341796875,0.007972878575325013,-0.0030859833166003224,-0.016797277679760008
1761476341563786200,9.7347861328125,0.0014046061009168624,-0.010981631937250495,-0.006758388219028711
1761476341573819400,9.7448193359375,0.014293313768506049,-0.016102920473739502,-0.001078205424454063
1761476341583852300,9.754852294921875,0.016408698487281798,-0.010415522487089037,0.003038783174008131
1761476341593885200,9.76488525390625,0.012812135300040245,-0.007290376203879714,0.0037285738027654585
1761476341603919400,9.77491943359375,0.010871522626280784,-0.00849741390608251,-0.004611110524646938
1761476341613952500,9.784952392578125,0.002943652236461639,-0.01705583728440106,-0.006061930387467145
1761476341623985400,9.7949853515625,0.005934066224098205,-0.02714855755791068,-0.0026107122213579713
1761476341634018300,9.805018310546876,0.004737549915909767,-0.03294745309501886,-0.00008382409224286675
1761476341644051200,9.81505126953125,0.03496376135349274,-0.031023280099406837,-0.00567263880893588
1761476341654085400,9.82508544921875,0.028532851523160933,-0.029277167084440586,0.001399418469145894
1761476341664118300,9.8351181640625,0.028547464570403098,-0.029073534271121023,0.0018345219507813453
1761476341674151400,9.8451513671875,0.014652210208773612,-0.02534048522263765,-0.0013072649399749935
1761476341684184300,9.855184326171875,0.012422259199619293,-0.03137187434136867,0.0044167935289442534
1761476341694217200,9.86521728515625,0.01844166561961174,-0.02909077766686678,0.016011789857875554
1761476341704250400,9.87525048828125,0.02311141099631786,-0.015056553225964307,0.01851588163329288
1761476341714284500,9.885284423828125,0.006673486414551734,-0.01864303341060877,0.022198296473082153
1761476341724317400,9.8953173828125,0.014608371067047118,-0.008609130652248859,0.03171902554491535
1761476341734350000,9.90535009765625,-0.005012859725952148,-0.016847893622145057,0.021967647788673637
1761476341744383200,9.91538330078125,-0.008189736196398735,-0.026055428558960557,0.01566124112084508
1761476341754416000,9.925416015625,-0.0025350714355707165,-0.03081752839423716,-0.0026538389770314097
1761476341764450300,9.9354501953125,0.02005026986002922,-0.02147160790003836,-0.01809453268237412
1761476341774483200,9.945483154296875,0.04324877461791038,-0.016726970656216145,-0.026446784230414775
1761476341784516400,9.955516357421875,0.056118777585029596,-0.014313552838936447,-0.0227255169512704
1761476341794549200,9.96554931640625,0.0450648841291666,-0.003555646654963493,-0.020750253089237957
1761476341804582400,9.97558251953125,0.015463526591658592,-0.0099204324465245,-0.014989278409723191
1761476341814616300,9.9856162109375,-0.010103460863232612,-0.007136208555474877,-0.009545790447853504
1761476341824649200,9.995649169921874,0.00397884050309658,-0.019109554943814874,-0.008359978196769952
1761476341834682000,10.00568212890625,0.009075871381163596,-0.016989859376102683,0.000356339157000184
1761476341844715300,10.01571533203125,0.015050269615650176,-0.014956965309008955,0.005381912234053016
1761476341854748200,10.025748046875,0.012500585132837295,-0.016133973199129105,0.009994703259132803
1761476341864781300,10.03578125,0.026867548659443855,-0.025912586022168397,0.004644227342959493
1761476341874815200,10.045815185546875,0.03272328895032406,-0.012019231356680392,-0.011329203265905379
1761476341884848400,10.055848388671874,0.033632220488786696,-0.021781915958225727,-0.006265051744133234
1761476341894881300,10.06588134765625,0.03170154468715191,-0.03065700407028198,-0.005488313484285027
1761476341904914400,10.07591455078125,0.02080196501016617,-0.02913790474422276,-0.006438472082279622
1761476341914947300,10.085947265625,0.015281740283966063,-0.028565730879455804,-0.0007381963477469981
1761476341924981200,10.095981201171876,0.015130933636426924,-0.03258073867447674,-0.0032895613309927283
1761476341935014100,10.10601416015625,0.010199906975030898,-0.03318681480884552,0.0007432743816636503
1761476341945047300,10.11604736328125,0.02504384036362171,-0.007628960508480668,-0.0004670512561686337
1761476341955080200,10.126080078125,0.02880757681131363,0.0009944909300655127,0.0045972463960759335
1761476341965113300,10.13611328125,0.024037293669581412,0.005810439844429492,0.0052633638883009546
1761476341975146200,10.146146240234375,0.005949848315119743,-0.011252703963592648,0.016902345489431172
1761476341985180400,10.156180419921874,-0.002997428250312805,-0.020930705956369637,0.013503496831376105
1761476341995213300,10.16621337890625,-0.0038677813440561293,-0.015633257135376333,0.02732174043403938
1761476342005246500,10.17624658203125,0.006899111863970756,-0.025351956464722752,0.041385738958697765
1761476342015279400,10.186279296875,0.0023538696497678755,-0.027717443487048146,0.03450039989175275
1761476342025312300,10.196312255859375,0.002452069327235222,-0.029841596034169197,0.020574165869969872
1761476342035346200,10.20634619140625,0.005866261684894561,-0.03040631724484265,0.0009114340228028595
1761476342045379300,10.21637939453125,0.016622633498907087,-0.029914734335616228,-0.0107875889361836
1761476342055412200,10.226412109375,0.04357143070101738,-0.02476246613897383,-0.032695140568073836
1761476342065445000,10.236445068359375,0.045239656174182886,-0.016875950672850012,-0.02720883637778461
1761476342075478300,10.246478271484374,0.043623453149199486,-0.016926219555363057,-0.0376500595617108
1761476342085511200,10.25651123046875,0.037970541954040524,-0.004977934543043375,-0.021537878069281577
1761476342095545300,10.26654541015625,0.01660509784221649,0.0023312194265425203,-0.0044658751013688745
1761476342105578200,10.276578125,0.008100304347276687,-0.006381444665417075,0.0010314254069700836
1761476342115611400,10.286611328125,0.0027332243561744686,-0.016234949355572462,-0.0005905315053649246
1761476342125644300,10.296644287109375,0.0075333181142807,-0.020335443476960063,0.008393880466371774
1761476342135677400,10.306677490234375,0.02055705033838749,-0.02884418249465525,0.004859039137419313
1761476342145711000,10.316711181640626,0.028057050704956052,-0.02568294198475778,0.0026075521498918532
1761476342155744300,10.326744140625,0.03720248019099235,-0.01401895380653441,0.003231529267132282
1761476342165777200,10.336777099609375,0.020453005442023275,-0.006487973779812454,0.004055248473864049
1761476342175810300,10.346810302734376,0.0038379707276821134,-0.004820844285190105,-0.006533529954589903
1761476342185843200,10.35684326171875,0.008171031495928764,0.0012713351100683212,0.003933430458791554
1761476342195876400,10.36687646484375,0.02614624864757061,-0.0054740474969148635,-0.00542312102727592
1761476342205910300,10.37691015625,0.02392155833542347,-0.008621478677168488,0.0009091872667893767
1761476342215943400,10.386943359375,0.034710078853368756,-0.02170607424303889,0.005485062081273645
1761476342225976300,10.396976318359375,0.026642507731914518,-0.029523835321888327,0.01837017128597945
1761476342236009500,10.407009521484374,-0.0004559270739555359,-0.027127660900354383,0.012286120398249476
1761476342246042400,10.41704248046875,-0.017401801177859305,-0.012867445683851838,0.014591018073447048
1761476342256075300,10.4270751953125,0.0014168810606002807,-0.0063943041469901795,0.0027480018001981078
1761476342266109200,10.437109130859374,0.0015326163947582245,-0.02252360117100179,-0.0019153503683395682
1761476342276142300,10.447142333984376,0.02741056949496269,-0.03316387232467532,-0.006318681627511978
1761476342286175200,10.45717529296875,0.03653729428052902,-0.03939575245156884,-0.009912139542214572
1761476342296208400,10.46720849609375,0.04867079966664314,-0.04067373649813234,-0.012475797751452774
1761476342306241300,10.4772412109375,0.04031798186302185,-0.038414267133548854,-0.019018716588895767
1761476342316274400,10.4872744140625,0.03180558958351612,-0.016425138165429235,-0.004041238214820623
1761476342326308400,10.497308349609375,0.010115151301026344,-0.014118760919198394,0.0037008272793143987
1761476342336341500,10.507341552734376,-0.002010170778632164,-0.012610986704751848,0.004117061663698404
1761476342346374400,10.51737451171875,0.0008253449082374572,-0.01644954195432365,0.009078026805631816
1761476342356407300,10.5274072265625,0.004719429737329483,-0.024208266322314737,0.010173585223685949
1761476342366440200,10.537440185546876,0.023294366347789763,-0.0312046280156821,0.006075721450801938
1761476342376474400,10.547474365234375,0.03617313714325428,-0.03302672887630761,0.013148271919228136
1761476342386507300,10.55750732421875,0.029303251373767852,-0.021044030137732622,0.0017568353383801876
1761476342396540400,10.56754052734375,0.013587211325764655,-0.02052534002587199,0.008537070063035935
1761476342406573300,10.5775732421875,-0.000647065731883049,-0.013366919638589023,0.010247728172130882
1761476342416606200,10.587606201171875,-0.012183774268627165,-0.014561828511580823,-0.0044466589442454275
1761476342426639400,10.597639404296874,-0.002471358549594879,-0.014544292854890227,-0.0029327472499571738
1761476342436673300,10.60767333984375,0.028197335958480833,0.004747705983743071,-0.0028605953291989863
1761476342446706200,10.6177060546875,0.04271452161073684,-0.0009557663548737763,-0.012508750172983854
1761476342456739000,10.627739013671874,0.035247254469990726,0.000694558135420084,-0.007825177200324832
1761476342466772200,10.637772216796876,0.023888825109601018,-0.008767024627700447,0.0058697870825417334
1761476342476805000,10.64780517578125,0.0014472761988639832,-0.03475610995218158,0.0006690218353644014
1761476342486838300,10.65783837890625,-0.007239303603768349,-0.03627491701729595,-0.0032035087490454315
1761476342496872200,10.6678720703125,0.008933832561969756,-0.04359057379290461,-0.008312065668124705
1761476342506905300,10.6779052734375,0.025708441752195357,-0.04384666744582355,-0.021550938480254262
1761476342516938800,10.687938720703125,0.03785188401043415,-0.044349429336190224,-0.02227103291573003
1761476342526972000,10.697971923828124,0.04536708194613456,-0.0266727567397058,-0.006419676050264388
1761476342537004800,10.7080048828125,0.03521569028794765,-0.00952624549716711,-0.00180896738441661
1761476342547038000,10.718037841796875,0.004850947162508964,-0.014832608276978134,-0.002223028078023344
1761476342557071600,10.728071533203124,-0.003805237501859665,0.0036500469401478763,-0.0008839066950604319
1761476342567104800,10.738104736328125,0.011645429608225821,0.004213672172278166,-0.0038538076176308092
1761476342577137700,10.7481376953125,0.07741875524520873,0.0008685995280742645,-0.013163524287287145
1761476342587170800,10.7581708984375,0.30350597695708276,0.0469395919598639,-0.02497662947946228
1761476342597203700,10.76820361328125,0.22100538840293882,-0.025329963828623292,-0.04042404518653638
1761476342607236900,10.77823681640625,0.0005582184046506881,-0.09213716255798936,-0.051403859626036136
1761476342617270800,10.788270751953124,-0.11841069084703922,-0.10829254387132822,-0.028911457310896366
1761476342627304000,10.798303955078126,-0.17924071486294268,-0.08350231294259429,0.010149537627818062
1761476342637336800,10.8083369140625,-0.13953472741842268,-0.021792437352240086,0.03538583182361908
1761476342647370000,10.818369873046874,-0.07609773577451706,0.04816562662348151,0.03810521945068612
1761476342657403000,10.82840283203125,-0.08907236815989017,0.040240459647402166,0.03400188491824083
1761476342667435800,10.838435791015625,-0.12927110755741594,-0.009306319136172532,0.056767834344599394
1761476342677469700,10.8484697265625,-0.16784312253594397,-0.054079234581440684,0.07916959010106511
1761476342687502800,10.8585029296875,-0.16956278593540192,-0.06398395800217986,0.08150993354897945
1761476342697535700,10.86853564453125,-0.06232581553161144,-0.020903817949444053,0.06094283674061298
1761476342707569000,10.87856884765625,0.14519757548570633,0.040192309656739235,0.005044003782887011
1761476342717601800,10.888601806640626,0.3413420788764953,0.07810768735744059,-0.042690592745877796
1761476342727635000,10.898635009765625,0.35617724443674087,0.043978623262420295,-0.06830832400731741
