time,seconds_elapsed,z,y,x
1761476343731252200,0.121252197265625,0.010050269371271132,0.01075038046464324,0.03837263821521774
1761476343741286100,0.1312861328125,0.07075695926845073,0.015161474905163048,0.017540296333096922
1761476343751319300,0.1413193359375,0.08060615310966968,-0.0011460282299667597,-0.00013652239385992287
1761476343761352000,0.15135205078125,0.08764379666149616,-0.024761954682320356,-0.028740977848507463
1761476343771385000,0.161385009765625,0.06448737747967243,-0.020261501457914707,-0.04122475797701627
1761476343781418000,0.17141796875,0.04447627058625221,-0.012535291120037435,-0.02856666246121749
1761476343791452200,0.1814521484375,0.01637304265201092,-0.020886136162281035,-0.014919080984033644
1761476343801485000,0.191485107421875,0.008601824128627776,-0.022475962636992333,-0.014196630194690078
1761476343811518200,0.201518310546875,0.017595862445235252,-0.021978972900286317,-0.0058839252057485275
1761476343821551000,0.211551025390625,0.014735796838998793,0.01322466162368655,0.007478793181758373
1761476343831584300,0.221584228515625,0.012013093876838684,0.0055438247974961994,0.007552022814750671
1761476343841618200,0.2316181640625,0.03685995036363601,-0.0427175903506577,0.002837945105973631
1761476343851651000,0.241651123046875,0.07446399709284306,-0.05541413644701242,-0.015051913583464919
1761476343861684000,0.25168408203125,0.06298924787640571,-0.06021554537937045,-0.019913254275824875
1761476343871717000,0.261717041015625,0.03920212957561016,-0.03139467069506645,-0.022066066661849616
1761476343881751000,0.2717509765625,0.00776946495771408,-0.015540829611569643,-0.03221672766767442
1761476343891784200,0.2817841796875,0.016595745491981506,-0.014401084991917014,-0.0387420377831906
1761476343901817000,0.291817138671875,0.06424363185167312,0.008578297122567892,-0.03884445697804913
1761476343911850200,0.301850341796875,0.09594517653882503,0.010474413067474962,-0.03498003663485869
1761476343921883100,0.311883056640625,0.11464110918045044,0.01367993111051619,-0.01465469442680478
1761476343931917300,0.321917236328125,0.07479659004807472,0.004240852440148592,0.007604648051131516
1761476343941950200,0.3319501953125,0.0061585226297378535,-0.020928660129755736,0.03708723804717883
1761476343951983000,0.341983154296875,-0.03455868768393993,-0.023486162592843175,0.06069563878020271
1761476343962016000,0.35201611328125,-0.04103869735300541,-0.03288395940475165,0.052679195057786996
1761476343972049200,0.362049072265625,-0.00772328772842884,-0.028981325943022964,0.03891134820180014
1761476343982083000,0.3720830078125,0.04011749085485935,-0.021091230280324814,0.03927148675108328
1761476343992116200,0.3821162109375,0.06298281813561916,-0.015342457495257257,0.032970578242279586
1761476344002149000,0.392149169921875,0.05368658200204372,-0.016771613515540955,0.02534450381062925
1761476344012182300,0.402182373046875,0.01610591614842415,-0.02918693151772022,0.030387210685573516
1761476344022216200,0.41221630859375,-0.0005208090037107468,-0.053205228225886816,0.01880196856567636
1761476344032249000,0.4222490234375,0.016820201897621154,-0.05019793616868555,0.007228088090009987
1761476344042282000,0.432281982421875,0.0382025971442461,-0.023136399307101964,-0.008456223379168659
1761476344052315100,0.442315185546875,0.05360241084992885,-0.009395093398168682,-0.02169560764795169
1761476344062348000,0.45234814453125,0.06915770737826823,-0.015623174132779239,-0.028408037833403794
1761476344072382200,0.46238232421875,0.07219254502952098,-0.010885185825452209,-0.030522308307327328
1761476344082415000,0.4724150390625,0.07272095281779765,-0.018309855933487416,-0.040761816640384495
1761476344092448300,0.4824482421875,0.07969839061498642,-0.026535978617519138,-0.03593165653757751
1761476344102481200,0.492481201171875,0.06782908912301062,-0.01641395918428898,-0.014714425257407128
1761476344112515300,0.502515380859375,0.038863691401481625,-0.007968129334971309,0.008289305847045033
1761476344122548200,0.51254833984375,0.009110358172655104,-0.015789543675631283,0.02941193591263145
1761476344132581000,0.5225810546875,-0.024281623819470403,-0.03168028270341456,0.04527120208991691
1761476344142614000,0.532614013671875,-0.024782559078931808,-0.04467544642016291,0.050043366661481556
1761476344152647000,0.54264697265625,0.00866962866783142,-0.040602424827590584,0.03061824296247214
1761476344162681000,0.55268115234375,0.04992985981702804,-0.020747604474425314,0.010341525669116527
1761476344172714200,0.56271435546875,0.08656944542825222,-0.013543006857857108,-0.01094062407342717
1761476344182747100,0.5727470703125,0.10812485915422439,-0.010179521774128078,-0.019946553757227956
1761476344192780000,0.582780029296875,0.09350538217127323,-0.0238400905970484,-0.031618104187399146
1761476344202814200,0.592814208984375,0.06273088920116424,-0.010731602698937057,-0.030101580410916356
1761476344212847400,0.602847412109375,0.04033727108538151,0.0047848231237381696,-0.013309965286962688
1761476344222880000,0.6128798828125,0.0026256723284721374,-0.014698095177114009,0.005060205999016762
1761476344232913000,0.622912841796875,-0.02240881568491459,-0.03181917971745133,0.02458321884823963
1761476344242947000,0.632947021484375,-0.010948094993829727,-0.033314678972214455,0.025961777192447334
1761476344252980200,0.642980224609375,0.035081834775209424,-0.0305173764038831,0.007839242258295416
1761476344263013000,0.65301318359375,0.06558686315417289,-0.022113120673969387,-0.00783670324133709
1761476344273046000,0.6630458984375,0.09418985730409622,-0.003093289840221405,-0.021165190565679223
1761476344283080200,0.673080078125,0.08584346924126147,-0.006021744507551193,-0.021265070743579417
1761476344293113300,0.68311328125,0.06416939757168293,-0.011388020781055093,-0.02104993015555665
1761476344303146200,0.693146240234375,0.041597500279545785,-0.03514686283543706,-0.007784425064828246
1761476344313179100,0.70317919921875,0.021570611295104025,-0.031871640557050704,0.0025581235175952313
1761476344323213000,0.713213134765625,0.028297873723506926,-0.03035239510051906,-0.0006234656605869531
1761476344333246200,0.72324609375,0.021092472389340398,-0.02936353019364178,0.006716393974516541
1761476344343279000,0.733279052734375,0.042619829064607616,-0.027468802488222716,0.0034429435281082984
1761476344353312000,0.74331201171875,0.05249240378141403,-0.029482845724374054,0.008286620699614286
1761476344363346200,0.75334619140625,0.05340367340743542,-0.0037814913000911473,0.009501238920073955
1761476344373379300,0.76337939453125,0.06449030008912086,0.001249561669677496,-0.0018328962492756545
1761476344383412200,0.773412109375,0.046541386422514916,0.002800444373488426,0.012904215763974934
1761476344393445000,0.783445068359375,0.025143209084868428,-0.0003717559218406677,0.012632029492780566
1761476344403479000,0.79347900390625,0.02138531785607338,0.010096592731028795,0.015493099746014921
1761476344413512200,0.80351220703125,0.02001812115609646,-0.01459251591078937,0.02027507332554087
1761476344423545000,0.813545166015625,0.031359014859795566,-0.016368512607365847,0.011810794504079966
1761476344433578000,0.823577880859375,0.04600830245912075,-0.018699001381546256,-0.004422894476167857
1761476344443612200,0.833612060546875,0.05125029476583004,-0.03464073994420468,-0.004262826809938997
1761476344453645300,0.843645263671875,0.058448681837320327,-0.024045842302218078,-0.012897201501298696
1761476344463678200,0.85367822265625,0.05757248352468013,-0.016033070107921956,-0.007541757149063051
1761476344473711400,0.86371142578125,0.052958852249383924,-0.006190013746544719,-0.00988282211618498
1761476344483745000,0.8737451171875,0.04595569548904895,0.002283069435879588,-0.00821448704516515
1761476344493778200,0.883778076171875,0.03132160545885563,0.004144479393586516,-0.0015444894956424832
1761476344503811000,0.89381103515625,0.01831833150088787,0.004580313527584075,0.007659063385799527
1761476344513845800,0.903845703125,0.013970073163509369,0.0011747428677976132,0.0038557073137722906
1761476344523879400,0.91387939453125,0.02801438060700893,-0.010772373100742697,0.0020788155680522323
1761476344533912600,0.92391259765625,0.04193184680044651,-0.01685622305907309,0.0022157398207113144
1761476344543945500,0.933945556640625,0.06844517519474029,-0.017105813905969262,-0.001542754196282476
1761476344553978600,0.943978515625,0.06609831980764866,-0.014695026437193155,-0.01678730427501723
1761476344564012500,0.954012451171875,0.04697802427411079,-0.021027005937695502,-0.02090661269472912
1761476344574045700,0.964045654296875,0.025906010150909424,-0.024333792398124932,-0.016398633750993756
1761476344584078600,0.97407861328125,0.0036363106757402418,-0.03776354813985526,-0.01137112444518134
1761476344594111700,0.98411181640625,0.006928337958455085,-0.04868957743234932,0.007855280077643693
1761476344604145400,0.9941455078125,0.011106500425934791,-0.06708309306129813,0.02477549001732841
1761476344614178600,1.004178466796875,0.00914016878902912,-0.08814648548662662,0.029545827957987783
1761476344624211500,1.01421142578125,0.006714987468719482,-0.08533208565302193,0.04259953519525006
1761476344634244600,1.02424462890625,0.008795300874114035,-0.0859914994098246,0.05133874023426324
1761476344644278500,1.034278564453125,-0.01623041931092739,-0.09694149409979581,0.06377988679744302
1761476344654311700,1.044311767578125,-0.03126841396689415,-0.09735599318481981,0.07447725843321532
1761476344664344600,1.054344482421875,-0.0255541279733181,-0.09427234795577824,0.0841046627499163
1761476344674378800,1.064378662109375,-0.012989829954504966,-0.08984832096844911,0.07326576375160365
1761476344684411600,1.07441162109375,0.007381342422962189,-0.08761595880649983,0.0540850980666466
1761476344694444500,1.084444580078125,0.030621932756900786,-0.08035268980525434,0.02621080178376287
1761476344704477400,1.0944775390625,0.04118190521597862,-0.08464008480086922,0.004623257620166987
1761476344714511600,1.10451171875,0.04622925173342227,-0.08399104630760848,-0.016214655486214907
1761476344724544500,1.11454443359375,0.05966624093353748,-0.07527903980277478,-0.027797796980571
1761476344734577700,1.12457763671875,0.06128478204607963,-0.04883234690390527,-0.028465777636319398
1761476344744610600,1.134610595703125,0.05513502724468708,-0.028726693594828247,-0.02867805041382089
1761476344754644700,1.144644775390625,0.04811433482766151,0.012051672321557998,-0.02683362812353298
1761476344764677600,1.154677734375,0.05067278713881969,0.02437244390808046,-0.02729971126532182
1761476344774710500,1.16471044921875,0.05278758733570575,0.014547653855755925,-0.03356372182983905
1761476344784744700,1.17474462890625,0.05611234784424304,0.01407309514656663,-0.033491405512299385
1761476344794777600,1.184777587890625,0.07487082432806491,0.007221183425188064,-0.024120898566115646
1761476344804810500,1.194810546875,0.05681669672131538,0.019446751008927822,-0.005995952479168772
1761476344814843600,1.20484375,0.03185468942224979,0.024695392252132294,-0.004593556601647287
1761476344824877800,1.2148779296875,0.009846271231770514,0.03286006707251072,-0.019625267647299913
1761476344834910700,1.22491064453125,0.023137129959464073,0.05359656563103199,-0.03223574289539829
1761476344844943600,1.234943603515625,0.0394400299847126,0.048106516847386954,-0.054541408733092246
1761476344854976800,1.244976806640625,0.07042845796644687,0.039677930393815036,-0.07456703734220936
1761476344865010700,1.2550107421875,0.08439853112995624,0.02399973813816905,-0.0848832641732879
1761476344875043600,1.265043701171875,0.08134381973445415,0.010301102327182888,-0.09300758871696889
1761476344885076500,1.275076416015625,0.07411153039336205,-0.006073474694788456,-0.09566480696117505
1761476344895109600,1.285109619140625,0.051908466413617134,0.007370455702766776,-0.08514823525240645
1761476344905143800,1.295143798828125,0.014891864183545113,0.02061148393936455,-0.05766065499847754
1761476344915176700,1.3051767578125,-0.0023988778352737427,0.04354790369495749,-0.042354638789780436
1761476344925209600,1.315209716796875,-0.009248889860510826,0.05038520236909389,-0.012013787996582686
1761476344935243500,1.325243408203125,0.008874795851111412,0.05606215202696621,0.0019765973025932908
1761476344945276700,1.335276611328125,0.015945172628760336,0.03335040787272155,0.011863364941533654
1761476344955309600,1.3453095703125,0.03663432491421699,-0.00865092396736145,0.008571428990364074
1761476344965342500,1.355342529296875,0.05345452681183815,-0.04141352201476693,0.005810750371683389
1761476344975376600,1.365376708984375,0.06101531745493412,-0.0721055243331939,0.004457326468732208
1761476344985409800,1.375409912109375,0.06303074893057346,-0.08638006033599376,0.02029264551484957
1761476344995442700,1.385442626953125,0.027613398590683937,-0.09084500385560094,0.03712232762686908
1761476345005476600,1.3954765625,0.0030921207964420315,-0.07895020259618758,0.06420877973400056
1761476345015509500,1.405509521484375,-0.02160042191147804,-0.07158895311318338,0.08190620285756886
1761476345025542700,1.415542724609375,-0.022831425011157987,-0.061454439524561165,0.09849433129867538
1761476345035575600,1.425575439453125,-0.015998364120721816,-0.06740107296928763,0.09744115071762352
1761476345045609700,1.435609619140625,0.00788578481376171,-0.06262757495716213,0.09510794026339427
1761476345055642600,1.445642578125,0.03969020535349846,-0.05726487888023257,0.08267364356610923
1761476345065675800,1.45567578125,0.03724924194216728,-0.04213182635195553,0.08358127819662914
1761476345075708700,1.465708740234375,0.031960487884283066,-0.03790536776334047,0.058712593470513816
1761476345085742600,1.47574267578125,0.029219080221652982,-0.023999665072932837,0.049517041232436894
1761476345095775500,1.485775390625,0.026482348734140394,-0.019631825252249834,0.03824831771580502
1761476345105808600,1.49580859375,0.022711598023772237,-0.017399974546954036,0.021297146382275967
1761476345115842600,1.505842529296875,0.03301496537327766,-0.016143106353655456,0.008797584162745625
1761476345125875700,1.515875732421875,0.04379237997531891,-0.02258841003552079,-0.0001391162097454071
1761476345135908600,1.52590869140625,0.03526829725801944,-0.033883418770879505,-0.004912869950197637
1761476345145941800,1.535941650390625,0.039161797565221784,-0.020869111962243912,-0.011301548073999582
1761476345155975700,1.5459755859375,0.023735095852613446,-0.01388414844572544,-0.01345715520530939
1761476345166008800,1.5560087890625,0.01487666661441326,-0.01103898814767599,-0.007341266140900552
1761476345176041700,1.566041748046875,0.01439092892408371,-0.002863645802810788,-0.006283025792241096
1761476345186075600,1.57607568359375,0.022416998991370198,0.01879164810106158,-0.011957016308046877
1761476345196108500,1.586108642578125,0.03119476420879364,0.0165855894241482,-0.018440953233558682
1761476345206141700,1.5961416015625,0.036999651095271105,0.012963964860886334,-0.021458236961811778
1761476345216174600,1.606174560546875,0.024264088162779807,0.00047989247143268585,-0.04053790822401643
1761476345226208800,1.616208740234375,0.04235270256102085,-0.02071435979194939,-0.05254782376307994
1761476345236241700,1.62624169921875,0.044295653322339056,-0.03260901492089033,-0.05545713533852249
1761476345246274800,1.63627490234375,0.06078209322094917,-0.03232946732714772,-0.05376264291293919
1761476345256308500,1.64630859375,0.04241524640321731,-0.019058190082758664,-0.02561267149383202
1761476345266341600,1.656341552734375,0.0166875154286623,-0.023529709473624823,-0.0032747108217328785
1761476345276374500,1.66637451171875,-0.01383972478210926,-0.01734210687987506,0.009278901406284422
1761476345286407700,1.67640771484375,-0.0328606515944004,-0.014385595161840318,0.01799037818815559
1761476345296441600,1.686441650390625,-0.02258826390504837,-0.03245565099008381,0.024458003299683333
1761476345306474800,1.696474853515625,0.006368365988135337,-0.03554667580798268,0.01989480530368164
1761476345316507600,1.706507568359375,0.037279637080430986,-0.04613528983965516,0.0015517412203364073
1761476345326540800,1.716540771484375,0.05746083984375,-0.051173137876391404,-0.005392652823776006
1761476345336574500,1.726574462890625,0.061954059609770774,-0.04795797522217035,-0.025520956356078386
1761476345346607600,1.736607666015625,0.046265492090582845,-0.0481155769366771,-0.030263785235304385
1761476345356640500,1.746640625,0.034463410615921015,-0.052005423982068893,-0.023840273260138926
1761476345366674700,1.7566748046875,0.03088847473859787,-0.04292407270818949,-0.027168577432632443
1761476345376707600,1.76670751953125,0.029409634357690808,-0.03903459098897874,-0.030405495260935275
1761476345386740700,1.77674072265625,0.032578327521681785,-0.04175042581893503,-0.02701227262606844
1761476345396773600,1.786773681640625,0.03784486974775791,-0.03188157742917538,-0.023581421394553034
1761476345406807600,1.7968076171875,0.04267418960034847,-0.017706775473803282,-0.013744064121600239
1761476345416840400,1.80684033203125,0.038517654442787166,-0.0034816315706819295,-0.0061451882241293785
1761476345426873600,1.81687353515625,0.026115853509306907,0.0083562518697232,-0.0024733861098997292
1761476345436907500,1.826907470703125,0.019548165556788445,0.015371610524505376,0.012859189312160015
1761476345446940700,1.836940673828125,0.008479074531793593,0.016092983601614833,0.01762541733328253
1761476345456973600,1.8469736328125,0.01580605641901493,0.014950754763931035,0.010237334642279893
1761476345467006700,1.8570068359375,0.02328442947566509,0.012790654120594262,0.0074954155229963355
1761476345477040600,1.86704052734375,0.04586275650858879,-0.002124810134246945,-0.002902315579075366
1761476345487073500,1.877073486328125,0.05470306556820869,0.00042640871852636333,-0.013266948129143565
1761476345497106400,1.8871064453125,0.05592296275198459,-0.005907178217172623,-0.0116037641572766
1761476345507140600,1.897140625,0.03380465444624424,-0.01760389962121844,0.001972414317820221
1761476345517173000,1.907173095703125,0.01692366227209568,-0.029953385845571754,0.015482085161656141
1761476345527206000,1.917205810546875,0.007665420061349868,-0.03239654121398926,0.02276778519041836
1761476345537239000,1.927239013671875,0.00571077886223793,-0.025388781343773006,0.024093462569918483
1761476345547273000,1.93727294921875,0.01047697035074234,-0.023687603449076413,0.036804493849352
1761476345557306000,1.94730615234375,0.011502221745252608,-0.03291347776018083,0.0361745984479785
1761476345567339000,1.957339111328125,0.021215806508064268,-0.03701945177428424,0.02587636393131688
1761476345577373000,1.967373046875,0.03542670269012451,-0.04307356418147683,0.024512436900660396
1761476345587405800,1.97740576171875,0.04530629166960716,-0.040887013922631735,0.026898729248996823
1761476345597439000,1.98743896484375,0.03215279558598995,-0.04578128877021372,0.028325200121849775
1761476345607471900,1.997471923828125,0.017043489259481428,-0.04939845635406673,0.022611078525055197
1761476345617506000,2.007506103515625,0.021071429601311684,-0.03153217946961522,0.026467425159644335
1761476345627539000,2.0175390625,0.019717676904797553,-0.02525039578638971,0.020529468211717902
1761476345637572000,2.027572021484375,0.03004793226122856,-0.03321260683722794,0.018445136218331753
1761476345647606000,2.03760595703125,0.03230126414597034,-0.02422097967341542,0.012762779732979833
1761476345657639000,2.047638916015625,0.03440788103640079,-0.026141864733397958,0.012494429386686533
1761476345667671800,2.057671875,0.03127192109823227,-0.02225384431891143,0.005496953448466956
1761476345677705000,2.067705078125,0.028877719438076016,-0.011206307538598775,0.007800919541902839
1761476345687739000,2.07773876953125,0.014644611424207686,-0.0032557138603180645,0.010511256212834268
1761476345697772000,2.08777197265625,0.014168810606002807,0.000301028773188591,-0.001014894397277385
1761476345707805000,2.097804931640625,0.018325345763564108,-0.013256152740493417,-0.012662735158298164
1761476345717839000,2.107839111328125,0.027878771528601645,-0.008641936943307518,-0.025963019301462918
1761476345727872000,2.1178720703125,0.04718903667628765,-0.008647270705550908,-0.0326243586204946
1761476345737905200,2.1279052734375,0.04496259279847145,-0.010672639053314923,-0.04337879420574754
1761476345747939000,2.13793896484375,0.04181844955384731,-0.017502923464775083,-0.03964300521090627
1761476345757972000,2.147971923828125,0.031354338684678074,-0.006363616747781634,-0.03893109408188611
1761476345768004900,2.1580048828125,0.019988310539722443,-0.012721461341902614,-0.033727479290496555
1761476345778038000,2.1680380859375,0.025530747097730636,-0.012921952350065111,-0.024659407623298466
1761476345788072200,2.178072265625,0.029287469282746312,-0.00565663752220571,-0.02846943089812994
1761476345798105000,2.18810498046875,0.042187282866239545,-0.001973784290999174,-0.022914445385802534
1761476345808138000,2.198137939453125,0.05598141494095325,0.005348375290632247,-0.01651369323171675
1761476345818172000,2.208171875,0.04747194527089595,0.010479016177356243,-0.005324446425773203
1761476345828205000,2.218205078125,0.03401800493597984,-0.003330386531725526,-0.009547525747213513
1761476345838238000,2.228238037109375,0.015461188504099844,-0.00921915230937302,-0.00040554859358817334
1761476345848270800,2.238270751953125,0.029085809230804442,-0.030859760100767016,-0.003430120579153299
1761476345858305000,2.248304931640625,0.04736790037453174,-0.034864319567009805,-0.005359992663189769
1761476345868338200,2.258338134765625,0.051285950601100916,-0.03142090111486614,-0.007523326443228871
1761476345878371000,2.26837109375,0.04323416157066822,-0.02452471186034381,0.011242255634814501
1761476345888405000,2.278405029296875,0.01690145044028759,-0.009845613644644617,0.026332875527162104
1761476345898438000,2.28843798828125,-0.015438392150402068,-0.011598813987523316,0.0460275551488623
1761476345908471000,2.298470947265625,-0.030724808609485624,-0.016444792713969945,0.044401981507334855
1761476345918505000,2.3085048828125,-0.0063648588567972175,-0.04005151294656098,0.042343094482459126
1761476345928538000,2.3185380859375,0.028325346252322196,-0.05219634344428777,0.02577246516542509
1761476345938571000,2.328571044921875,0.06064356153309345,-0.06039455520808697,0.012973554673139005
1761476345948604200,2.338604248046875,0.0693295568138361,-0.05557224961817264,-0.00030672786161303517
1761476345958638000,2.34863818359375,0.0500537784576416,-0.05570910080559551,-0.01718202094733715
1761476345968671000,2.3586708984375,0.028394904357194897,-0.03778904790729284,-0.013950126354023814
1761476345978704000,2.368703857421875,0.023032500541210175,-0.024682313574850557,-0.009310100262146443
1761476345988738000,2.378738037109375,0.016316928550601004,-0.022843846101313826,-0.010010795877408236
1761476345998771000,2.38877099609375,0.03369476433098316,-0.020680165261402726,-0.010704166702739893
1761476346008804000,2.39880419921875,0.0522889901638031,-0.020894392533972857,-0.01005470808437094
1761476346018837000,2.4088369140625,0.04979600430428981,-0.012916545522585511,-0.0001546791050583124
1761476346028871200,2.41887109375,0.049537645629048346,-0.003577712356299162,0.011486384855303913
1761476346038904000,2.428904052734375,0.03189443691074848,0.012710939947888255,0.01686033297860995
1761476346048937000,2.43893701171875,0.001807341682910919,0.014360533785820006,0.025032661382481454
1761476346058971000,2.448970947265625,-0.010202829584479331,0.00856843331567943,0.023107995196525007
1761476346069004000,2.459004150390625,0.007118307572603225,0.011693506533652543,0.008856273813731969
1761476346079037000,2.469036865234375,0.0483849684625864,-0.0012430588636547326,-0.0029970081252045926
1761476346089071000,2.479071044921875,0.0658873074054718,-0.013431655437871812,-0.0219974401387386
1761476346099104000,2.48910400390625,0.07922551240622996,-0.01102393670901656,-0.03959989672154188
1761476346109137200,2.49913720703125,0.061461892178654665,-0.010951821320876479,-0.03400715474840253
1761476346119170000,2.509170166015625,0.03365910849571228,-0.023404694854468108,-0.0219616747056134
1761476346129204000,2.519203857421875,0.006912555867433548,-0.027537922201678156,-0.008637571295443921
1761476346139236900,2.52923681640625,-0.0023521160840988156,-0.031039281386137006,-0.0017906097438186407
1761476346149270000,2.53927001953125,0.006933014133572578,-0.03436952178739011,0.002062229759432375
1761476346159304000,2.549303955078125,-0.0007125321835279464,-0.03282908741235733,0.011790171841159462
1761476346169337000,2.559337158203125,0.011684008052945137,-0.04295037619322538,0.012145287155453115
1761476346179370000,2.569369873046875,0.031132220366597175,-0.04330890730731189,0.003676715751364827
1761476346189404000,2.57940380859375,0.029333646512031554,-0.05209470970071852,0.007937953392416238
1761476346199436800,2.589436767578125,0.032627427360415455,-0.05538388743922114,0.0018715660255402325
1761476346209470000,2.599469970703125,0.03532733396887779,-0.06174355866424739,0.005713829335849732
1761476346219504000,2.609504150390625,0.034434769043326374,-0.057240694287046784,0.01846544835399836
1761476346229537000,2.619537109375,0.029193361258506773,-0.03753010471016168,0.014326814179308712
1761476346239570000,2.62956982421875,0.012715104666352272,-0.023804069435596466,0.019806268503703175
1761476346249603000,2.63960302734375,0.005342530071735381,-0.011770225031673907,0.026039628201629965
1761476346259637000,2.649636962890625,0.009797755914926529,-0.007380684835836291,0.019469054172281175
1761476346269670000,2.659669921875,0.02533843939602375,-0.00046031098812818525,0.01501147197522223
1761476346279702800,2.669702880859375,0.04476385535597801,-0.007729132947325706,0.011413648412656038
1761476346289737000,2.679737060546875,0.048040685069561,-0.008060410728305578,0.002837269252538681
1761476346299770000,2.68977001953125,0.04790039981603622,-0.0023981471829116344,-0.01062381320921704
1761476346309803000,2.699802978515625,0.05733341407179832,0.009745952662453055,-0.018330935254134238
1761476346319837200,2.709837158203125,0.030113983234763143,0.011864333055913447,-0.015008677229937165
1761476346329870000,2.7198701171875,0.015291677156090736,0.004186784165352583,-0.012032127370871603
1761476346339903200,2.7299033203125,0.016019406908750533,0.00824358527548611,-0.016659458377957344
1761476346349936000,2.73993603515625,0.015697335347533224,0.0033732758253812787,-0.017357249650079756
1761476346359970000,2.749969970703125,0.016118775629997254,0.0011608604729175568,-0.018371705655939877
1761476346370003000,2.7600029296875,0.047675943410396576,-0.0034466333225369452,-0.02135590909849852
1761476346380036000,2.7700361328125,0.06158873342871666,-0.010894903501868248,-0.02795934421783313
1761476346390070000,2.780070068359375,0.0618961919426918,-0.02600676711164415,-0.030825602102838454
1761476346400103200,2.790103271484375,0.05416062925457954,-0.030549963499233126,-0.031813590226881204
1761476346410136000,2.800135986328125,0.04133855708241462,-0.019326193369179963,-0.03175983247933909
1761476346420170000,2.810169921875,0.02910685201883316,-0.026507629305869338,-0.01864365446511656
1761476346430203000,2.820202880859375,0.003985270243883132,-0.025598186310753224,-0.015234211347810923
1761476346440236000,2.830236083984375,-0.005579845958948135,-0.020708514573052523,-0.002908087732736021
1761476346450270000,2.84027001953125,0.014186346262693404,-0.020004604087397456,0.0006065693247132003
1761476346460303000,2.85030322265625,0.03125613900721073,-0.02080664118528366,0.0019501659533940254
1761476346470336000,2.8603359375,0.05013970317542553,-0.018181261117756364,0.0070215691998600956
1761476346480369200,2.870369140625,0.04792378069162369,-0.005690758987516164,0.0067865731338970356
1761476346490402800,2.88040283203125,0.03600011866390705,0.004470131151378154,0.0015414938209578394
1761476346500436000,2.89043603515625,0.012550854015350341,0.017187793100997804,0.006161865364294499
1761476346510468900,2.90046875,-0.006570610561966896,0.002394493921101093,0.015634608842246232
1761476346520502000,2.910501953125,0.01049567505121231,-0.0036170945186167953,0.021219715498201546
1761476346530535200,2.92053515625,0.018423545441031454,-0.02090067614428699,0.016160039222147315
1761476346540568000,2.930568115234375,0.03309796748161316,-0.029551015589758752,-0.00789164829896763
1761476346550602200,2.940602294921875,0.04090542636215687,-0.024197744928300378,-0.011137133026216179
1761476346560635100,2.95063525390625,0.0421370139837265,-0.02092142667137086,-0.00746337641691789
1761476346570668300,2.960668212890625,0.04544949953258037,-0.014140315163880585,-0.017623188843578098
1761476346580702000,2.970701904296875,0.03260463100671768,0.0013724573969841002,-0.023555976426042614
1761476346590735000,2.980735107421875,0.020204583638906478,0.011138941390812396,-0.01878388491971418
1761476346600768000,2.99076806640625,0.02321604041457176,0.01956913527958095,-0.02510311453649774
1761476346610801200,3.00080126953125,0.037765374770760536,0.021369243504107,-0.017254519927967338
1761476346620835000,3.0108349609375,0.04932955583631992,-0.0002867079868912697,-0.025002960363961754
1761476346630868200,3.0208681640625,0.05820552073121071,-0.02334653492644429,-0.01618654363658279
1761476346640901000,3.030901123046875,0.04987374571561813,-0.01997749688476324,-0.00005162058938294649
1761476346650935300,3.040935302734375,0.04438742325901985,-0.01000562651194632,0.01158057507793419
1761476346660968200,3.05096826171875,0.013584873238205909,-0.005988061433658004,0.03252684392961673
1761476346671001000,3.0610009765625,-0.009767360776662825,0.0010044278021901845,0.037861008031805976
1761476346681035000,3.071034912109375,-0.019681436547636984,-0.0007595131304115057,0.04313727706745266
1761476346691068200,3.081068115234375,-0.011948796468973158,-0.013536942443251609,0.04592089817030355
1761476346701101000,3.09110107421875,0.01239537119269371,-0.030178938229754565,0.045201223859935996
1761476346711135200,3.10113525390625,0.04229951106905937,-0.05306435845047235,0.0357388556455262
1761476346721168100,3.111168212890625,0.056205286824703216,-0.08138305576629937,0.03301207016329281
1761476346731201300,3.121201171875,0.05217091674208641,-0.08404336101673543,0.04281966248564422
1761476346741234200,3.131234130859375,0.028964228677749632,-0.07453289761058986,0.057249918773118406
1761476346751268000,3.14126806640625,-0.0077402388632297515,-0.05842639694027602,0.045433900104649365
1761476346761301000,3.151301025390625,-0.029660394248366355,-0.03489288807436824,0.04713949844613671
1761476346771334100,3.161334228515625,-0.020907178950309753,-0.034187150957807895,0.04174814253030345
1761476346781368000,3.1713681640625,0.005671615895628929,-0.04540288391187787,0.029588571121171116
1761476346791401200,3.181401123046875,0.04754442598521709,-0.06170753750279545,0.01784278641100973
1761476346801434000,3.19143408203125,0.07237666942477226,-0.06595635405369103,0.006390011564362794
1761476346811468000,3.201468017578125,0.06699672995209693,-0.06778064687140285,0.01391337454020977
1761476346821501000,3.2115009765625,0.04231003246307373,-0.056011810079216955,0.00613959873355925
1761476346831534000,3.2215341796875,0.021809680747985838,-0.03324709362871945,0.001872789868246764
1761476346841568300,3.231568359375,0.008327683362364769,-0.018961378644779325,0.00002988368161022663
1761476346851601200,3.24160107421875,0.009658055183291435,-0.021416005255281922,-0.00807696000430733
1761476346861634000,3.251634033203125,0.014858546435832976,-0.019449746683612466,-0.007561174235586076
1761476346871668200,3.261668212890625,0.04102057717442512,-0.030537615474313495,-0.013116945199202746
1761476346881701000,3.271701171875,0.05073474645912647,-0.01956394764780998,-0.021510569937247783
1761476346891734000,3.281734130859375,0.0504196891605854,-0.015540172024443745,-0.02399767404524609
1761476346901768200,3.291768310546875,0.033787703311443325,-0.010200564562156796,-0.023388510904647407
1761476346911801000,3.301801025390625,0.015936404800415038,-0.011183218923956155,-0.022603077881690112
1761476346921834200,3.311834228515625,0.015588029754161833,0.0010510434228926896,-0.034487960535287854
1761476346931867100,3.3218671875,0.020471710142493247,0.011251534919813275,-0.03923387642074376
1761476346941901300,3.3319013671875,0.04346855484843254,0.011472264998406171,-0.03449769647801295
1761476346951934200,3.341934326171875,0.05497369920313358,0.012521847116574645,-0.04625422177789733
1761476346961967000,3.351967041015625,0.06949965268373488,0.006396349973604083,-0.0589541471414268
1761476346972001000,3.3620009765625,0.06878595145642757,0.0023328268617391584,-0.05586651985701173
1761476346982034200,3.3720341796875,0.06150456227660179,-0.009126432524621485,-0.043033159105852245
1761476346992067000,3.382067138671875,0.0420890831887722,-0.003984758787229657,-0.03292259264839813
1761476347002101200,3.392101318359375,0.011307575955986976,-0.012419555785879492,-0.017770999816432594
1761476347012134100,3.402134033203125,0.016722586742043494,-0.008996376404166222,-0.0015931509429588913
1761476347022167300,3.412167236328125,0.018543956950306893,-0.01659428418725729,0.007628083725646138
1761476347032201000,3.422200927734375,0.011377718582749366,-0.0337402839731425,0.01863105071187019
1761476347042234000,3.432234130859375,0.022452070304751395,-0.03375643139034509,0.029412392570357767
1761476347052267000,3.44226708984375,0.03592646890580654,-0.03548018644303083,0.025250450585316865
1761476347062301200,3.45230126953125,0.030856326034665107,-0.03594159340970218,0.03374267685962841
1761476347072334000,3.462333984375,0.02998772650659084,-0.033566388710960744,0.03435850720303133
1761476347082367200,3.4723671875,0.024028525841236114,-0.03355630570836365,0.04009474930008873
1761476347092400000,3.482400146484375,0.0005482815325260162,-0.03082315441742539,0.045847540673147884
1761476347102434000,3.49243408203125,-0.014290391159057616,-0.029200813912600276,0.050643451446481046
1761476347112467000,3.502467041015625,-0.013435820156335829,-0.03459880049861967,0.04962422793395817
1761476347122500000,3.5125,0.0008703530937433242,-0.047768809325620526,0.04593753877785057
1761476347132534000,3.522533935546875,0.005754033482074737,-0.045896439582481977,0.02866217699125409
1761476347142567200,3.532567138671875,0.03577332417070865,-0.0380135773781687,0.008935366931930184
1761476347152600000,3.54260009765625,0.04938391637206077,-0.024777006120979786,-0.008978694617003203
1761476347162634200,3.55263427734375,0.051046881148219106,-0.023418942575529216,-0.017033534121047706
1761476347172667100,3.562667236328125,0.06647767451405524,-0.02240202061794698,-0.027740093710273504
1761476347182700000,3.572699951171875,0.06322130306661129,-0.017362126754596828,-0.0350486266253516
1761476347192734200,3.582734130859375,0.04592880748212337,-0.01179703997336328,-0.02884020043928176
1761476347202767000,3.59276708984375,0.03355623264312744,-0.011967720365151762,-0.025765743163693695
1761476347212800000,3.602800048828125,0.021619711133837698,-0.006838613848388194,-0.01737003606641665
1761476347222834200,3.612834228515625,0.014318448209762573,-0.009422127535566687,-0.0038721652582287785
1761476347232867300,3.622867431640625,0.009395020332932472,-0.006653612670302391,0.004429872206225991
1761476347242900200,3.632900146484375,0.03272679608166218,-0.002068038445711136,0.002138345469255
1761476347252934100,3.64293408203125,0.023436405166983604,0.002669219209253788,0.014748016999755054
1761476347262967000,3.652967041015625,0.04139467118382454,-0.0025814678605645893,0.0015768208626657724
1761476347273000200,3.663000244140625,0.038708208578824996,-0.004770210076496004,-0.00744960361989215
1761476347283033000,3.673033203125,0.039461657294631004,-0.020064955972507594,-0.01146300397971645
1761476347293067300,3.6830673828125,0.04741115499436855,-0.025675489330664276,-0.019746300211083142
1761476347303100200,3.69310009765625,0.043105566754937166,-0.01291910280585289,-0.028903511466458438
1761476347313133300,3.70313330078125,0.03205810303986072,-0.013634995990246533,-0.026559962281305343
1761476347323167000,3.7131669921875,0.026858780831098553,-0.020136194577813148,-0.015706395436823367
1761476347333200100,3.7232001953125,0.022696400454640386,-0.0317089242760092,-0.007217256168741732
1761476347343233000,3.73323291015625,0.025106968727707863,-0.03434957497790456,0.0005344904691912234
1761476347353267200,3.74326708984375,0.01896539723277092,-0.028509982104226946,0.008214121718984098
1761476347363300000,3.753300048828125,0.007734978166222572,-0.03533259466588497,0.012014116790145635
1761476347373333200,3.763333251953125,0.009976619613170623,-0.036147491245344276,0.011509893595054745
1761476347383367200,3.7733671875,0.032117139750719066,-0.0440677628505975,0.008618373404629528
1761476347393400300,3.783400390625,0.03422551020681858,-0.04372596367560327,0.00314746771287173
1761476347403433000,3.793432861328125,0.040078912410140034,-0.05443002078048884,0.0000024476854130625722
1761476347413467100,3.803467041015625,0.04220131139159202,-0.061201268481090663,0.0005742379576899111
1761476347423500000,3.8135,0.036703883019089695,-0.04350640264078975,0.010673643700312822
1761476347433533200,3.823533203125,0.023416531422734258,-0.0346003348685801,0.012093977093324064
1761476347443567000,3.833567138671875,0.015509119299054144,-0.016610943061113357,0.013139147897856309
1761476347453600300,3.843600341796875,0.011477087303996086,-0.015495894491299986,0.02286936413506046
1761476347463633200,3.853633056640625,0.007145780101418495,-0.0069732730787247415,0.026776472842507063
1761476347473667000,3.8636669921875,0.012822072172164916,-0.008203399395570158,0.024320403193589298
1761476347483700000,3.873699951171875,0.024034371060132977,-0.009249035990983248,0.011130904214829205
1761476347493733000,3.883733154296875,0.04004501014053821,0.0037492695309221742,0.023935888254875314
1761476347503767300,3.893767333984375,0.0371960504502058,0.010978563197329639,0.009178792899521067
1761476347513801200,3.90380126953125,0.022080314382910728,0.024817995718494055,0.012251624473603442
1761476347523834000,3.913834228515625,0.020552374163269996,0.023659473333135245,0.018596235126815734
1761476347533867000,3.923866943359375,0.01587795261144638,0.003796469673514366,0.00639184732842259
1761476347543901000,3.93390087890625,0.008521160107851028,-0.009888137612119317,0.006374978392012417
1761476347553934000,3.94393408203125,0.023629297390580176,-0.02659545371979475,-0.0008290803684387355
1761476347563967000,3.953967041015625,0.04547697206139564,-0.026419366500526665,-0.00910330737736076
1761476347574001200,3.964001220703125,0.036059739896655084,-0.01990757345370948,-0.010313833944592624
1761476347584034000,3.974033935546875,0.029171149426698684,-0.01621953259073198,0.005707180399354547
1761476347594067200,3.984067138671875,0.0010194061756134032,-0.025632819232717156,0.001431512374151498
1761476347604100900,3.994100830078125,-0.004517769685387611,-0.028997473360225557,0.007195181334251537
1761476347614133000,4.004133056640625,0.011627309429645538,-0.01997062875255942,0.011030293384566903
1761476347624166000,4.014165771484375,0.0394528894662857,-0.016736249941214917,0.007491077274596318
1761476347634198800,4.02419873046875,0.0472346293836832,-0.019920140674337745,0.003662422364531085
1761476347644233000,4.03423291015625,0.045154315978288645,-0.021349808151274918,0.016929936749255282
1761476347654266000,4.04426611328125,0.0316933613806963,-0.04937682904414832,0.03574860985456035
1761476347664299000,4.054299072265625,0.009992986226081848,-0.05862951829694211,0.027284824223443863
1761476347674333200,4.064333251953125,0.003541618129611015,-0.06256561563685537,0.014432676573423668
1761476347684366000,4.074365966796875,0.0006686930418014526,-0.04487235723175108,0.015098346541076897
1761476347694399200,4.084399169921875,0.017381342911720273,-0.02314757828824222,0.019565162357361988
1761476347704433000,4.094432861328125,0.02125496947467327,-0.0061192865978926415,0.025750162002071735
1761476347714466000,4.104466064453125,0.02334288166463375,0.007890753249824047,0.017208178301900624
1761476347724499000,4.1144990234375,0.017197218516469,-0.011021671686694025,0.008736976549308747
1761476347734533000,4.124533203125,0.03305120573043823,-0.027293738182261586,0.006077876875270158
1761476347744566000,4.13456591796875,0.03617547523081303,-0.04507051015235483,-0.002142838981281966
1761476347754599200,4.14459912109375,0.014915829581022262,-0.04294168143011629,-0.013122954814881085
1761476347764632800,4.1546328125,0.00876373669207096,-0.026194179442524907,-0.004356587774306536
1761476347774666000,4.164666015625,0.01293254680931568,-0.026568784908577798,-0.014032416076306254
1761476347784699000,4.174698974609375,0.020098785176873205,-0.053345878805592654,-0.03257830925537273
1761476347794733000,4.184733154296875,0.019874913293123245,-0.029844810904562473,-0.026292707913555202
1761476347804766000,4.194765869140625,0.011852350357174872,-0.008115794177353381,-0.033050712540093806
1761476347814799000,4.204799072265625,0.0553998156607151,0.03045285980030894,-0.04191571764955297
1761476347824832000,4.21483203125,0.11432079118490218,0.06346738678216934,-0.05140859060008079
1761476347834866000,4.224865966796875,0.13230360712110995,0.03361921487674117,-0.044576022899989035
1761476347844898800,4.23489892578125,0.07122223869264126,-0.034050299770385026,-0.019009839162696152
1761476347854933000,4.24493310546875,-0.03488426637649536,-0.0847783242277801,0.005048579493304714
1761476347864966000,4.2549658203125,-0.08042495132386684,-0.07772263356260956,0.01213786190082319
1761476347874999000,4.2649990234375,-0.06881342398524284,-0.03278999751098454,0.024936872857809066
1761476347885032000,4.275031982421875,-0.011268997511267661,0.012288403686881064,0.023626813172549006
1761476347895066000,4.285066162109375,0.0608025514870882,0.036758243554830546,0.012199227566085755
1761476347905099000,4.29509912109375,0.09025894759595393,0.018799393016099928,0.013550733506586402
1761476347915132200,4.305132080078125,0.08548749541044234,0.000804375185444951,-0.00272580823469907
1761476347925165800,4.315165771484375,0.0677303049236536,-0.012556333908066153,-0.015214648130815476
1761476347935199000,4.325198974609375,0.03696048812866211,-0.026939444851875303,-0.012486757536884396
1761476347945232000,4.33523193359375,0.0001765256106853485,-0.048307080920785665,-0.00035212877276353535
1761476347955266000,4.34526611328125,-0.01358662680387497,-0.061136898007988924,0.017713597940234468
1761476347965299000,4.355298828125,-0.007910334733128547,-0.05501359282210469,0.031017297883192074
1761476347975332000,4.36533203125,0.01332476099729538,-0.048043534613773226,0.023793922500917688
1761476347985366000,4.375365966796875,0.031116438275575635,-0.0442453113745898,0.01443685042504221
1761476347995399000,4.38539892578125,0.02526829676926136,-0.03744907536320388,0.008855871954932808
1761476348005431800,4.395431884765625,0.02376023029386997,-0.03234649152718484,0.007756203617341816
1761476348015466000,4.405466064453125,0.024954408514499662,-0.024497604657709598,0.011911094807088374
1761476348025499100,4.4154990234375,0.030637130326032637,-0.020412454235926268,0.021661157389078287
1761476348035532000,4.425531982421875,0.022711598023772237,-0.0172991445209831,0.02881418008203618
1761476348045566200,4.435566162109375,0.014776713371276855,-0.011877411733195184,0.028543573846574872
1761476348055598800,4.445598876953125,0.027023031482100484,-0.016560966439545154,0.023653116657584905
1761476348065632000,4.455632080078125,0.016529694518446922,-0.02159771849773824,0.019802880103373898
1761476348075665000,4.465664794921875,0.033414778345823286,-0.03459711999818683,0.005186042602080851
1761476348085699000,4.475698974609375,0.04238485126495361,-0.03396466731354594,0.013858164621097966
1761476348095732000,4.48573193359375,0.03264437849521637,-0.02818907958678901,0.005524836969235912
1761476348105765000,4.49576513671875,0.02455810267329216,-0.018083061440289018,0.0028707970628049223
1761476348115799000,4.505799072265625,0.021266075390577316,-0.008173954105377197,0.0031826668904162943
1761476348125832200,4.515832275390625,0.010324410137534141,0.009487593987211584,-0.002026117266435176
1761476348135865000,4.525864990234375,0.019284546184539793,0.013144070668146013,0.0006751958478242159
1761476348145899000,4.53589892578125,0.032280221357941626,0.021676482822373506,-0.008625332868378608
1761476348155932000,4.545931884765625,0.027922610670328137,0.0007003302890807389,-0.010388177822437136
1761476348165965000,4.555965087890625,0.028074001839756963,-0.019805866644904017,-0.009487593987211584
1761476348175999000,4.5659990234375,0.04231353959441185,-0.03083732907325029,-0.02475903207287192
1761476348186032000,4.5760322265625,0.04397475080490112,-0.0436661232471466,-0.020900511747505516
1761476348196065000,4.58606494140625,0.0317149886906147,-0.036916575921699404,-0.028957716738572344
1761476348206100000,4.596099853515625,0.030216274565458296,-0.04432239519879222,-0.013432084696134551
1761476348216133000,4.606133056640625,0.011355506750941276,-0.024298355758562682,-0.0026908739186357706
1761476348226166000,4.616166015625,0.014034955093264578,0.0009339198492467403,0.00690771529553458
1761476348236200200,4.6262001953125,0.019102759876847265,0.005862243096902966,0.010847575495112687
1761476348246233000,4.636233154296875,0.02942717001438141,0.007222133273258805,0.010802987434715031
1761476348256266200,4.646266357421875,0.0396054496794939,-0.00020012568198144435,-0.0006238309867680073
1761476348266300000,4.6562998046875,0.038711715710163117,-0.020093305284157394,0.004238605684135109
1761476348276333000,4.6663330078125,0.027952421286702153,-0.031646526564285155,0.0016567724973894655
1761476348286366000,4.676365966796875,0.029758009403944012,-0.05018851075321436,-0.0100149423295632
1761476348296400100,4.686400146484375,0.04219605069458485,-0.04920351830385625,-0.01628636901555583
1761476348306433000,4.69643310546875,0.03877893572747707,-0.028279169023036954,-0.006059354837890714
1761476348316466200,4.706466064453125,0.0331090733975172,-0.01610328579992056,0.013642676973203196
1761476348326499800,4.716499755859375,0.0103828623265028,-0.007886880792304873,0.01639048697715625
1761476348336533000,4.726532958984375,0.004568038567900657,-0.008920680819451809,0.015489218155341222
1761476348346566000,4.73656591796875,-0.0072451488226652145,-0.010830094637349246,0.033157195988716553
1761476348356600000,4.74660009765625,0.0035188217759132383,-0.006152750476077199,0.0357511580046732
1761476348366633000,4.756633056640625,0.024605448946356773,-0.01033317796587944,0.02484163232240826
1761476348376666000,4.766666015625,0.033411271214485165,-0.01697159306704998,0.015695855776499956
1761476348386700000,4.776699951171875,0.036408114942908285,-0.021875439460575578,0.00612447422966361
1761476348396733000,4.78673291015625,0.04376490744650364,-0.024286373059824107,-0.007739069819450378
1761476348406765800,4.796765869140625,0.04574176047742366,-0.033123467249050735,-0.017952018939144908
1761476348416799000,4.806799072265625,0.027354455393552777,-0.022719416004046797,-0.014977478374075143
1761476348426833000,4.8168330078125,0.019286299750208853,-0.022282412826269863,-0.017330507773626595
1761476348436866000,4.826865966796875,0.02677227159142494,-0.019844956546276805,-0.005960543239070102
1761476348446899000,4.83689892578125,0.033822190102934836,-0.01420285900607705,-0.002960676436498761
1761476348456933000,4.84693310546875,0.0366992068439722,-0.006256868437677621,0.0000990307945292443
1761476348466966000,4.856966064453125,0.041516836258769035,-0.010833455638214945,-0.004991278081806376
1761476348476999200,4.866999267578125,0.038107904598116873,-0.003854702666774392,0.003639425081433728
1761476348487032800,4.87703271484375,0.03290799786746502,-0.0039461072772741315,0.012664388259267434
1761476348497066000,4.88706591796875,0.024836335092782973,-0.0002620119370520115,0.010726396800857036
1761476348507099000,4.897098876953125,0.010469371566176415,-0.008900514814257621,0.012982550830347463
1761476348517136400,4.907136474609375,0.00417231724858284,-0.021223332227393983,0.016514524348778648
1761476348527169300,4.917169189453125,0.02840308766365051,-0.03477876017540693,-0.0004142068240791559
1761476348537202400,4.927202392578125,0.04233107525110245,-0.03273476019240915,-0.014789426722377538
1761476348547236000,4.937236083984375,0.058365095207095145,-0.03350589069537818,-0.019106340073421595
1761476348557269200,4.947269287109375,0.05150806891918182,-0.03492182190790772,-0.02194483316866681
1761476348567302100,4.95730224609375,0.028646833291649815,-0.031569369674846526,-0.009387741208774968
1761476348577336300,4.96733642578125,0.015052023181319235,-0.03682692487686872,0.011945325870253145
1761476348587369200,4.977369140625,0.022696984976530075,-0.026073183411359786,0.01168335046581924
1761476348597402400,4.98740234375,0.007874094375967979,-0.010897460785135626,0.020375976416748015
1761476348607436300,4.997436279296875,-0.003363338953256607,-0.015391995725408196,0.02504398649409413
1761476348617469200,5.00746923828125,0.0017167407900094986,-0.023502383075281977,0.006985630236798897
1761476348627502000,5.017502197265625,0.022201894935965538,-0.027850129956007,-0.0018001812897622583
1761476348637535200,5.02753515625,0.030133856979012486,-0.042546033176034684,-0.0010087477842811495
1761476348647569200,5.037569091796875,0.030730069306492802,-0.0430416346732527,-0.011253105822391807
1761476348657602300,5.047602294921875,0.042558454266190524,-0.03422748296819627,-0.013117547987401485
1761476348667635200,5.05763525390625,0.03734101187884807,-0.04219122838899493,-0.013230241981102153
1761476348677669400,5.06766943359375,0.03631985213756561,-0.02106229644678533,-0.017131578534888104
1761476348687702300,5.077702392578125,0.03740238667726516,-0.012556480038538575,0.0014762191655579955
1761476348697735400,5.0877353515625,0.025316812086105346,-0.00497128560654819,0.005908045866852626
1761476348707769000,5.09776904296875,0.013638649252057074,0.002313099247962236,0.012704373209783806
1761476348717802200,5.10780224609375,0.005250760135054588,-0.002447539282590151,0.02296328949620947
1761476348727835100,5.117835205078125,0.005846972462534904,-0.014506006671115755,0.021346794210281222
1761476348737869300,5.127869384765625,0.01003039562702179,-0.01819244009889662,0.018149130680132658
1761476348747902200,5.137902099609375,0.031871056035161015,-0.01872932345457375,0.007987126296386123
1761476348757935400,5.147935302734375,0.030524317601323125,-0.02371573356501758,0.008181890816660597
1761476348767969300,5.15796923828125,0.022433365604281424,-0.015106310651823877,0.0031323706084396686
1761476348778002200,5.168002197265625,0.028407763838768002,-0.007839461454004049,-0.0037874552499968556
1761476348788035000,5.17803515625,0.014039631268382072,-0.01951608991809189,-0.000013928060652688144
1761476348798069200,5.1880693359375,0.014041969355940818,-0.01719714545123279,-0.014914267811598256
1761476348808102400,5.198102294921875,0.032177930027246476,-0.026236265018582342,-0.019638921713316812
1761476348818135300,5.20813525390625,0.04299041594266891,-0.03514459781311452,-0.020837529513891784
1761476348828168200,5.218168212890625,0.04541676630675792,-0.033981764578819275,-0.005833236198127269
1761476348838202000,5.2282021484375,0.034361703807115555,-0.02552029876895249,0.0015831501387525348
1761476348848235300,5.2382353515625,0.014764438411593436,-0.01784238455221057,0.011453898224653675
1761476348858268200,5.24826806640625,-0.003649754679203033,-0.012177417593076825,0.00881224287576042
1761476348868302300,5.25830224609375,0.005627192232012748,-0.016073182922601698,0.010899113886104896
1761476348878335200,5.268335205078125,0.02704232070446014,-0.01947860745191574,0.0010912019033450632
1761476348888368400,5.278368408203125,0.042024785780906675,-0.0361328051328659,-0.005349179008230566
1761476348898402300,5.28840234375,0.06299450857341289,-0.028599779279530047,0.00012144355573691427
1761476348908435500,5.298435546875,0.03846972364783287,-0.028702582066878674,0.003783235732605681
1761476348918468400,5.30846826171875,0.023211948761343956,-0.027576208385452626,0.0029104714860673994
1761476348928502300,5.318502197265625,0.0051005380094051355,-0.011600786748901009,0.009855139524815603
1761476348938535200,5.32853515625,0.005396306085586547,0.002685147430747747,0.01400920873065479
1761476348948568300,5.338568359375,0.003769581666588783,0.004673544768989086,0.014565079914592206
1761476348958602200,5.348602294921875,0.00932020153105259,-0.0018585604134947061,0.017907449145056306
1761476348968635400,5.358635498046875,0.019797756403684613,-0.016853227384388447,0.0175065675934311
1761476348978668300,5.368668212890625,0.027698738786578178,-0.021459259875118732,0.019691282088216393
1761476348988701400,5.378701416015625,0.02271802776455879,-0.027855463718250394,0.019708333687717093
1761476348998735000,5.388735107421875,0.01026478890478611,-0.03360964333079755,0.0028831907534971834
1761476349008768300,5.398768310546875,0.016836568510532376,-0.015487930380553006,-0.0031863566848449407
1761476349018801200,5.40880126953125,0.03000526216328144,-0.012571531477198004,-0.017730631273426115
1761476349028835300,5.41883544921875,0.04004617918431758,-0.026574630127474665,-0.021473087471071628
1761476349038868200,5.4288681640625,0.04754617955088615,-0.026375746554508805,-0.030617859369982032
1761476349048901400,5.4389013671875,0.047420507344603534,-0.028719387071207164,-0.02982501022554934
1761476349058935000,5.44893505859375,0.0503022002607584,-0.020580431213974952,-0.01892083657183684
1761476349068968200,5.45896826171875,0.03925649011135101,-0.022842603992298243,-0.017857865249132736
1761476349079001000,5.4690009765625,0.012503507742285728,-0.013875599813088774,-0.0015430281909182668
1761476349089035300,5.47903515625,0.010264204382896422,-0.0005259235702455043,0.005601528067793697
1761476349099068200,5.489068115234375,0.0018815759629011153,-0.0033361586853861806,0.012843288490129634
1761476349109101300,5.499101318359375,0.019230770170688628,-0.0018487696718424557,0.011440819547371937
1761476349119135200,5.50913525390625,0.023711130455136297,0.0027630349725484846,0.019221865345025433
1761476349129168400,5.51916845703125,0.03194353674948215,-0.012406696304306387,0.01620928519135341
1761476349139201300,5.529201171875,0.03806464997828007,-0.017309373654052614,0.007887282651104032
1761476349149234200,5.539234130859375,0.03777005094587803,-0.020537907246500252,0.009095626394404099
1761476349159268000,5.54926806640625,0.03477846791446209,-0.019245748544111846,-0.009942260685842483
1761476349169301200,5.55930126953125,0.04242752136290073,-0.01886076781451702,-0.016376595449121668
1761476349179334100,5.569334228515625,0.03751052322685718,-0.012619170011207461,-0.016486202436592427
1761476349189368300,5.579368408203125,0.028542203873395917,-0.016994900877401232,-0.016589534946903586
1761476349199401200,5.589401123046875,0.03139817782640457,-0.03223265588916838,0.0011006638514343648
1761476349209434400,5.599434326171875,0.018545125994086264,-0.03510506952032447,0.0006166523273102939
1761476349219468300,5.60946826171875,0.018249357917904854,-0.02985021773204207,0.003935814212122932
1761476349229501200,5.619501220703125,0.013160510346293449,-0.03148183752186596,0.01110545011316426
1761476349239534000,5.6295341796875,-0.007051672077178954,-0.015310381856560706,0.020135144265042617
1761476349249568300,5.639568359375,0.00490121604502201,-0.017086597748845814,0.019793372489511966
1761476349259601400,5.649601318359375,0.016397592571377753,-0.026004721285030244,0.010722487810719758
1761476349269634300,5.65963427734375,0.032086744612455365,-0.027771657892316576,0.006365936569031327
1761476349279668200,5.669668212890625,0.04284954616725445,-0.02849069288186729,-0.00033135084621608256
1761476349289701000,5.679701171875,0.03911912746727467,-0.03460384199991822,-0.004354706344474107
1761476349299734300,5.689734375,0.04048340155780315,-0.029495632140710947,-0.010652281251875683
1761476349309768200,5.699768310546875,0.04185118277966976,-0.02213474798388779,-0.005904520469205454
1761476349319801300,5.70980126953125,0.02166939549446106,-0.015509923016652464,-0.006850322552490979
1761476349329834200,5.719834228515625,0.012396540236473083,-0.012740750564262271,0.002204122448153794
1761476349339867400,5.729867431640625,0.015102876585721969,-0.012620192924514412,0.0016423329800833017
1761476349349901300,5.7399013671875,0.011954641687870025,-0.00902567556388676,0.010106383472681045
1761476349359934200,5.749934326171875,0.024952654948830602,0.004115764755755663,0.011504742495901882
1761476349369967000,5.759967041015625,0.02927987049818039,-0.0012048457451164722,0.009697921402798964
1761476349380001300,5.770001220703125,0.025662264522910115,-0.0020627777487039565,0.005989778466708958
1761476349390034200,5.7800341796875,0.03313186975121498,-0.011588000332564114,-0.008032472408609465
1761476349400067300,5.7900673828125,0.04060732019841671,-0.015378697852417826,-0.012652323362138122
1761476349410101200,5.800101318359375,0.04690086738467216,-0.019176848026365042,-0.027901376086054367
1761476349420134400,5.810134521484375,0.043181554600596424,-0.01975296741388738,-0.026265500246221197
1761476349430167300,5.820167236328125,0.03693418464362621,-0.02332417696416378,-0.016113158739963544
1761476349440201200,5.830201171875,0.028121932634711265,-0.02174048796929419,-0.006029699485143646
1761476349450234000,5.840234130859375,-0.00120820674598217,-0.009971212785691023,0.0056415495509281755
1761476349460267300,5.850267333984375,-0.004070610439777374,-0.013975772251933812,0.012503635606449097
1761476349470300200,5.860300048828125,-0.003496609944105148,-0.023228023113310337,0.007109010021295398
1761476349480334300,5.870334228515625,0.018936755660176274,-0.023526348472759126,0.0062754270076751705
1761476349490367200,5.8803671875,0.04511749109923839,-0.025744609044119713,0.010075321614136918
1761476349500400400,5.890400390625,0.05440788201391697,-0.025312428171932695,-0.0031454858183395116
1761476349510434000,5.90043408203125,0.04813830022513866,-0.021178908563777802,-0.0035584048676304517
1761476349520463000,5.910463134765625,0.03213467540740966,-0.016083265925198792,-0.0074624448351562015
1761476349530496300,5.920496337890625,0.009853285494446754,-0.02615815828107297,-0.006278459214977919
1761476349540530200,5.9305302734375,0.0007353285372257233,-0.02608786952383816,-0.007649135646829381
1761476349550563300,5.940563232421875,0.014063596665859221,-0.026186653723195192,0.002668990880390629
1761476349560596200,5.95059619140625,0.0395230320930481,-0.024434549358859657,0.011011899211350828
1761476349570630400,5.96063037109375,0.05286123709380627,-0.01694499732106924,0.00610233546309173
1761476349580663300,5.970663330078125,0.03312427096664906,-0.005467617756128311,0.012321767100365831
1761476349590696400,5.980696533203125,0.013086276066303252,0.002987052986770868,0.01461996104014106
1761476349600730000,5.990730224609375,-0.012651391780376433,-0.0023804653957486153,0.024458569555263966
1761476349610763300,6.00076318359375,-0.029451135411858557,-0.010286416214704512,0.033270985960960384
1761476349620796200,6.010796142578125,-0.010649404308199882,-0.02466565470099449,0.029301041150372475
1761476349630829300,6.020829345703125,0.005596797093749046,-0.035981779289618133,0.015151474100956693
1761476349640863200,6.03086328125,0.04102291526198387,-0.040033100507035846,-0.008548778767138719
1761476349650896400,6.040896484375,0.05434942982494831,-0.03048223202526569,-0.02864269597264938
1761476349660929300,6.05092919921875,0.055579263880848884,-0.03530819087699055,-0.03765876345797442
1761476349670963200,6.060963134765625,0.04379764067232608,-0.03795329855829477,-0.030658511040778828
1761476349680996000,6.07099609375,0.029907062485814092,-0.02574409758746624,-0.027260657896567134
1761476349691029200,6.081029296875,0.016007131949067114,-0.010530527168884873,-0.013466955080116166
1761476349701063200,6.091063232421875,0.01887245825231075,-0.0017638678673654793,-0.017493278853595255
1761476349711096300,6.101096435546875,0.02293371634185314,-0.00013042144663631916,0.001651941058645025
1761476349721129200,6.111129150390625,0.013531097224354744,0.0031521073553711174,0.005675205225357785
1761476349731163100,6.1211630859375,0.01997486653625965,-0.0110620036970824,0.007446580545743927
1761476349741196000,6.131196044921875,0.02356909163594246,-0.010812120589241385,0.01355604900252074
1761476349751229200,6.141229248046875,0.022975801917910574,-0.01540931218639016,0.014313607637863605
1761476349761262000,6.151261962890625,0.012346271353960037,-0.014706643809750675,0.016711599557148293
1761476349771296300,6.161296142578125,0.01727437540590763,-0.020307605621963737,0.012731179018318653
1761476349781329200,6.1713291015625,0.018906945043802262,-0.018745178610831498,0.005880883865291253
1761476349791362300,6.1813623046875,0.02666588860750198,-0.030694559601694343,0.011377060995623469
1761476349801396500,6.191396484375,0.024251813203096387,-0.029808570547401905,-0.008249010369274765
1761476349811429400,6.201429443359375,0.023497195443511008,-0.0210472450081259,-0.01710181358428672
1761476349821462300,6.211462158203125,0.03278583279252052,-0.02034136176109314,-0.011803003923268988
1761476349831496200,6.22149609375,0.025784429597854614,-0.024932342813163994,-0.015211287129949777
1761476349841529300,6.231529296875,0.027613983112573622,-0.03010733429826796,-0.004194876140262932
1761476349851562200,6.241562255859375,0.023724574458599088,-0.024994521329179405,0.00929415377434343
1761476349861595100,6.25159521484375,0.0035158991664648053,-0.018715441059693694,0.00994669939894229
1761476349871629300,6.26162939453125,-0.0036772272080183026,-0.01142258063778281,0.013169707432901486
1761476349881662500,6.271662353515625,-0.009976619613170623,-0.006007204525545239,0.009521532789431512
1761476349891695400,6.2816953125,0.005713116949796676,-0.016226327657699584,0.009773479990195483
1761476349901729300,6.291729248046875,0.0025450083076953888,-0.030307825306430457,0.012802143628988414
1761476349911762200,6.30176220703125,0.011800912430882453,-0.025239801327139138,0.004763880800409242
1761476349921795300,6.31179541015625,0.0290004690349102,-0.02607910169549286,-0.0006404350616969167
1761476349931829200,6.321829345703125,0.038131285473704334,-0.020762436717376112,-0.0010210501434281469
1761476349941862400,6.3318623046875,0.0441413395434618,-0.014338979541137813,-0.0144548336063046
1761476349951895300,6.341895263671875,0.033226562297344206,-0.007987345492094755,-0.013516164516704156
1761476349961928400,6.351928466796875,0.0035901334464550016,-0.002698079977557063,-0.011934804476238786
1761476349971962000,6.361962158203125,-0.005244330394268036,-0.005544336254149675,-0.010192454320937395
1761476349981995300,6.371995361328125,-0.0025759879678487778,-0.009024433454871177,0.0018037249537184833
1761476349992028200,6.382028076171875,0.0015846388429403304,-0.015320245663449167,0.006589561857609078
1761476350002062300,6.392062255859375,0.007691723546385765,-0.0032888124123215674,0.010738297301204874
1761476350012095200,6.40209521484375,0.020388123512268066,-0.0026890929535031316,0.012633299001259729
1761476350022128400,6.41212841796875,0.02604337279498577,-0.005624196557328104,0.006338655836461112
1761476350032162300,6.422162353515625,0.016889760002493856,-0.008226049618795514,0.006437905826698989
1761476350042195200,6.4321953125,0.015661679512262345,-0.012203355751931667,0.0012444288368336856
1761476350052228000,6.44222802734375,0.009349427625536918,-0.025842443395406006,-0.006749894385319203
1761476350062261200,6.45226123046875,0.015611995151638984,-0.030003216336667537,-0.015444958888506517
1761476350072295200,6.462295166015625,0.03087736882269382,-0.02002893481105566,-0.025602570224925875
1761476350082328300,6.472328369140625,0.04706277994811535,-0.011406067894399165,-0.011390139672905206
1761476350092361200,6.482361328125,0.0435007035523653,-0.013189663375541567,-0.008187535106157884
1761476350102395400,6.4923955078125,0.015515549039840697,-0.025411577697470784,0.004253894584812224
1761476350112428300,6.50242822265625,-0.015026888740062713,-0.034718919746950266,0.015103388042375444
1761476350122461400,6.51246142578125,-0.011308160477876663,-0.03375431249849498,0.016353890426969154
1761476350132494300,6.522494384765625,-0.006242693781852722,-0.025172069853171705,0.008230899323849006
1761476350142528300,6.5325283203125,0.018425299006700514,-0.014884192333742975,-0.0008256006365641951
1761476350152561200,6.54256103515625,0.02243570369184017,-0.022246830056235192,0.009858098666882142
1761476350162594300,6.55259423828125,0.02538987732231617,-0.026175036350637674,0.019769151363708076
1761476350172628200,6.562628173828125,0.014271686458587646,-0.016738514963537454,0.0036592805593740193
1761476350182661400,6.572661376953125,0.018586627048254013,-0.01188048047311604,0.005345818007364869
1761476350192694300,6.5826943359375,0.03384732454419136,-0.0014037293180823324,-0.021881832668744026
1761476350202727400,6.5927275390625,0.04673720125555992,0.004360898623242974,-0.01812269933093339
1761476350212761000,6.602760986328125,0.03793956229388713,-0.0034472909096628424,-0.014151010087830944
1761476350222794200,6.612794189453125,0.014164134430885314,-0.022501681600138542,-0.008362453281646594
1761476350232827100,6.6228271484375,0.005490998631715774,-0.02145034591630101,-0.005139472647150978
1761476350242861300,6.632861328125,0.007438041046261787,-0.0298740369990468,-0.004554357102420181
1761476350252894200,6.642894287109375,0.00189443544447422,-0.015764043908193706,0.0003156600867398083
1761476350262927400,6.65292724609375,0.01116495261490345,-0.005078764569014311,0.006056386562669649
1761476350272960300,6.662960205078125,0.0044172319203615185,0.0022003595884889362,0.006230190493306145
1761476350282994200,6.672994140625,-0.009961422044038772,0.005883797341585159,0.009209388967184349
1761476350293027000,6.683027099609375,-0.011765841117501258,-0.003574716681614518,0.016280195003096014
1761476350303060200,6.693060302734375,-0.0007207154899835586,-0.02980564793795347,0.017795385339017956
1761476350313094100,6.70309423828125,0.01704874995648861,-0.030969942476972937,0.008975662409700453
1761476350323127300,6.713127197265625,0.021211130332946776,-0.020534911571815608,-0.0016299027567729352
1761476350333160200,6.72316015625,0.030635376760363577,-0.021164003255590796,-0.008244242862612008
1761476350343193300,6.733193359375,0.03064356006681919,-0.015514306930825113,-0.014217928711045533
1761476350353227300,6.743227294921875,0.020188217025995252,-0.018475275628268718,-0.02144899420943111
1761476350363260200,6.75326025390625,0.004341244074702263,-0.024658640438318252,-0.01155981541769579
1761476350373293000,6.76329296875,0.017070961788296698,-0.020022505070269106,-0.013438669700548052
1761476350383326200,6.773326171875,0.020074819779396055,-0.02540317519530654,-0.015602460138313472
1761476350393360400,6.7833603515625,0.021895605465769765,-0.028670579493418336,-0.01770460178302601
1761476350403393300,6.793393310546875,0.03553893089294433,-0.018303499257937072,-0.01921714350413531
1761476350413426200,6.80342626953125,0.025684476354718207,-0.0008400310207158327,0.0015952515684999524
1761476350423460400,6.81346044921875,0.010139116698503493,-0.00045490416064858434,0.008842153956834227
1761476350433493200,6.8234931640625,0.002520458388328552,0.003395414591953158,0.025299678288213907
1761476350443526100,6.833526123046875,0.0007189619243144989,0.00643602439686656,0.02589256614744663
1761476350453559000,6.84355908203125,-0.008892916029691696,-0.0006233925953507423,0.01935357456644997
1761476350463593200,6.85359326171875,-0.010433715730905532,-0.016944631994888184,0.014873908401746303
1761476350473626400,6.86362646484375,0.019926351219415665,-0.013020955745130777,-0.00019895663820207118
1761476350483659300,6.8736591796875,0.03968962083160877,-0.01627184729985893,-0.017915047929622233
1761476350493693400,6.883693359375,0.06143091251850128,-0.013172712240740656,-0.03292056508809328
1761476350503726300,6.893726318359375,0.05923135664761066,-0.008199600003287197,-0.03102276864275336
1761476350513759500,6.903759521484375,0.022173253363370893,-0.019973332166299224,-0.02168118639695458
1761476350523792600,6.913792724609375,0.00004617722928524017,-0.02243482690900564,-0.00695709826205857
1761476350533826600,6.92382666015625,-0.02689502118825912,-0.018322423154115676,0.013752594487927853
1761476350543859700,6.933859619140625,-0.022720950374007225,-0.02626987502723932,0.01958812310784124
1761476350553892600,6.943892578125,-0.006719079121947288,-0.014036197202280163,0.013536275722971185
1761476350563925800,6.95392578125,0.01961363200843334,-0.010025646386668086,-0.0001878872549161315
1761476350573959700,6.963959716796875,0.035030981370806694,-0.01750343492142856,0.003835413444414735
1761476350583992800,6.973992919921875,0.03204933521151542,-0.014534429048001766,0.006240154764894396
1761476350594025700,6.984025634765625,0.014097498935461044,-0.024277532166242597,-0.00115581897161901
1761476350604059600,6.9940595703125,0.01979191118478775,-0.03009768968708813,-0.00441582541456446
1761476350614092500,7.004092529296875,0.01921498807966709,-0.02811447998061776,-0.00854176450446248
1761476350624125700,7.014125732421875,0.021343232280015945,-0.038322643327340485,-0.0077739219371229405
1761476350634158600,7.02415869140625,0.028407179316878316,-0.02706241364441812,-0.0006852514509577304
1761476350644192800,7.03419287109375,0.027245734322071075,-0.012653218411281704,0.002888159189559519
1761476350654225700,7.0442255859375,0.020977321577072144,0.0014496873516589403,0.014989141412405297
1761476350664258800,7.0542587890625,-0.002971709287166595,0.011350684445351361,0.019502253188984468
1761476350674291700,7.064291748046875,-0.025157822132110593,0.011942366728186606,0.03664688300169073
1761476350684325600,7.07432568359375,-0.01772796439230442,0.01609554088488221,0.02929035535957664
1761476350694358500,7.084358642578125,-0.00010638298392295837,0.0008715221375226974,0.01147735216547735
1761476350704391700,7.0943916015625,0.03159983787834644,-0.0006487462323158979,-0.0016441504778340458
1761476350714424600,7.104424560546875,0.06333060865998268,-0.005486980043724179,-0.01691381673151627
1761476350724458800,7.114458740234375,0.05091594824492931,-0.00957768342345953,-0.02494850849667564
1761476350734491600,7.12449169921875,0.01846563101708889,-0.017820538046583533,-0.024455939206760376
1761476350744524800,7.13452490234375,-0.002323474511504173,-0.03392462756410241,-0.021577241965290157
1761476350754557700,7.1445576171875,-0.006948796224594116,-0.030870208429545163,-0.02251276011657901
1761476350764591600,7.154591552734375,0.007725625815987586,-0.008828253295645117,-0.014742025650385767
1761476350774624500,7.16462451171875,0.016412790140509604,-0.005224237454310059,-0.006137242379691451
1761476350784657700,7.17465771484375,0.025101123508810996,-0.010640563414618373,-0.0028733817455358804
1761476350794691600,7.184691650390625,0.028111411240696906,-0.01423047766536474,0.0029751068206503987
1761476350804724700,7.194724853515625,0.016005378383398054,-0.020526947461068628,0.008693484467454254
1761476350814757600,7.204757568359375,0.005830021327733993,-0.028906799402087926,0.008538229973660782
1761476350824790800,7.214790771484375,0.001626139897108078,-0.03566986379623413,0.022614996648347003
1761476350834824400,7.224824462890625,-0.017685878816246985,-0.04166625466682017,0.005126494434569031
1761476350844857600,7.234857666015625,0.017942483925819395,-0.03346380511932075,-0.020662465207930653
1761476350854890500,7.244890380859375,0.05732406172156333,0.016140329874679445,-0.013745616757869719
1761476350864923600,7.254923583984375,0.05059270763993263,0.02392608838006854,0.007161452594585716
1761476350874957600,7.26495751953125,-0.0024006314009428023,-0.007180120762437582,0.02268489267993718
1761476350884990700,7.27499072265625,-0.02558803024291992,-0.04470511090606451,0.006859638370107859
1761476350895023600,7.285023681640625,-0.006415712261199951,-0.03755823482610285,-0.00701612583976239
1761476350905056800,7.295056884765625,0.030851649859547612,-0.01757883824519813,-0.009683408820256591
1761476350915090700,7.305090576171875,0.03382920436561108,-0.008753507559001445,-0.00502627632995136
1761476350925123600,7.31512353515625,0.014369886136054992,-0.020454832072928548,-0.00019996128519997
1761476350935156500,7.325156494140625,0.00376665905714035,-0.015397987074777483,0.005975978270219638
1761476350945189600,7.335189697265625,-0.0004021510601043701,0.004780585340037942,-0.00013618446714244782
1761476350955223600,7.3452236328125,-0.019837503892183302,0.022715032089874146,0.0015752134274691343
1761476350965256700,7.355256591796875,-0.02478548168838024,0.011966843582317232,0.009232066589873283
1761476350975289600,7.36528955078125,-0.005513794985413551,-0.0058572746608406305,0.023520923378970472
1761476350985322800,7.37532275390625,0.021082535517215728,-0.02827770771831274,0.012294212373159825
1761476350995356700,7.385356689453125,0.04293021018803119,-0.041518955150619145,-0.0016217559829354285
1761476351005389600,7.3953896484375,0.037710429713129996,-0.030425533401966093,-0.012707432816550134
1761476351015422500,7.40542236328125,0.026800913164019582,-0.04308803109824657,-0.027975966559071093
1761476351025455600,7.41545556640625,0.003031330519914627,-0.032427667004615066,-0.02434051439985633
1761476351035489500,7.425489501953125,-0.004589665877819061,-0.025920550132915377,-0.014202164886333047
1761476351045522700,7.435522705078125,0.0018587796092033385,-0.010329890030249953,-0.004715648611355572
1761476351055555600,7.4455556640625,0.00502455016374588,-0.010366203452646732,-0.008123118967283516
1761476351065588700,7.455588623046875,0.030199323430657385,-0.00417860085889697,-0.011729637292958795
1761476351075622700,7.46562255859375,0.04071721031367779,0.001970057963952422,-0.001339450176525861
1761476351085655800,7.47565576171875,0.02385784544944763,-0.004645049326866865,0.007793704349827021
1761476351095688700,7.485688720703125,0.008770166432857513,0.002982961333543062,0.024049751292355356
1761476351105721600,7.4957216796875,-0.004236614656448364,-0.0048404988337308165,0.03036386634260416
1761476351115754500,7.50575439453125,-0.00978022025823593,-0.012314780237153171,0.028923933199979362
1761476351125788700,7.51578857421875,-0.008607669347524643,-0.020515914610400796,0.014967322306241839
1761476351135821600,7.525821533203125,0.00544715948998928,-0.01957519969418645,0.0026658947410061955
1761476351145854700,7.535854736328125,0.03177987062036991,-0.016433979059010742,-0.020009992648568002
1761476351155888600,7.545888671875,0.05273790297508239,-0.015573855098336933,-0.026873631340358403
1761476351165921800,7.555921875,0.05412672698497772,-0.0015496405947953461,-0.03104213093034923
1761476351175954700,7.56595458984375,0.038757892939448355,-0.0016028320867568252,-0.012068075467087328
1761476351185987600,7.575987548828125,0.010062544330954552,-0.00022146073095500468,-0.006108491209242493
1761476351196020500,7.5860205078125,-0.0030839374899864196,-0.0076860975231975315,-0.0016548088691662995
1761476351206054700,7.5960546875,-0.015665186643600462,-0.009752382403239607,0.013799465836957096
1761476351216087600,7.606087646484375,-0.006110591834783553,-0.01675429705455899,0.011553120815427973
1761476351226120700,7.61612060546875,0.0033019641548395155,-0.024050080085918305,-0.0055976008113473655
1761476351236153600,7.626153564453125,0.016140402939915657,-0.019627441338077187,-0.00915907441889867
1761476351246187800,7.636187744140625,0.018681904116272924,-0.027974706183746454,-0.000037866058666259045
1761476351256220700,7.646220703125,0.026151509344577786,-0.02365362811423838,-0.007626585888303816
1761476351266253800,7.65625390625,0.01432253986299038,-0.017523162535205482,-0.0030729411719366906
1761476351276286700,7.66628662109375,0.012826748347282408,-0.023093217752501366,-0.0029592333980835973
1761476351286320600,7.676320556640625,0.023908698853850364,-0.011063172740861773,-0.00537296174261719
1761476351296353500,7.686353515625,0.023918635725975034,-0.010432473621889949,-0.005554273126274347
1761476351306386700,7.69638671875,0.030372341910004614,-0.013296703946590422,0.008632657658308744
1761476351316419600,7.706419677734375,0.025440730726718902,-0.01155745906382799,0.013941970447031781
1761476351326453800,7.716453857421875,0.011374795973300933,-0.013474544731527566,0.02398280526967719
1761476351336486700,7.726486572265625,-0.0103261637032032,-0.010728533959016203,0.028395762873720375
1761476351346519800,7.736519775390625,-0.010642390045523644,-0.011942805119603871,0.01837825412773527
1761476351356552700,7.746552734375,-0.009169979405403136,-0.004748071309924125,0.011956422653002664
1761476351366585900,7.7565859375,0.0030699089646339414,-0.002916398903355002,0.003804936107760295
1761476351376619500,7.76661962890625,0.016956980019807815,-0.007882350747659802,-0.0027837672333233055
1761476351386652700,7.776652587890625,0.02907762592434883,-0.0090043405149132,-0.00935247809914872
1761476351396685600,7.786685546875,0.035221535506844516,-0.016409429139643907,-0.008908296261914073
1761476351406718700,7.79671875,0.02729951033592224,-0.01575878321118653,-0.012086506172921507
1761476351416752600,7.806752685546875,0.015493921729922294,-0.014788257678598165,-0.011727006944455205
1761476351426785800,7.816785888671875,0.015205752438306807,-0.01863952627927065,-0.008663774315780028
1761476351436818700,7.826818603515625,0.01265372986793518,-0.00878675224147737,-0.010410261790081858
1761476351446851800,7.836851806640625,0.008920973080396652,-0.00945712578371167,-0.007576070410618558
1761476351456885500,7.846885498046875,0.018938509225845335,-0.016910875855758786,-0.0039054921390954405
1761476351466918700,7.856918701171875,0.018344634985923765,-0.012663739805296063,-0.006330098070669919
1761476351476951600,7.86695166015625,0.018062310913205145,-0.010086290532723068,-0.003410082438122481
1761476351486984700,7.876984619140625,0.01881634415090084,-0.008997837708890438,0.0035952023472171275
1761476351497017600,7.887017578125,0.020768647262454032,-0.01834945729151368,-0.0018888094212859868
1761476351507051800,7.8970517578125,0.0016167875468730926,-0.014132204922661184,0.006489425951382145
1761476351517084700,7.907084716796875,0.002809212201833725,-0.030095716925710437,0.0026729638026095925
1761476351527121700,7.91712158203125,0.00040098201632499694,-0.03211019855327904,0.005959063668036833
1761476351537154600,7.927154541015625,0.006518003591895103,-0.019061843344569205,0.002358545824885368
1761476351547188700,7.937188720703125,0.025212182667851447,-0.006260667829960584,-0.0007257387249730527
1761476351557221600,7.9472216796875,0.03164835319519043,-0.014762319519743322,-0.008648640678729861
1761476351567254800,7.9572548828125,0.027473113337159155,-0.010294599521160125,-0.00794127786066383
1761476351577287700,7.96728759765625,0.025705519142746925,-0.007177709609642625,-0.009640893985936417
1761476351587320600,7.977320556640625,0.016000117686390876,-0.01766388618014753,-0.009754620026098563
1761476351597354800,7.987354736328125,0.015565233400464057,-0.009559344049170613,-0.011141489540925248
1761476351607388000,7.997387939453125,0.028164602732658386,-0.014150398166477679,-0.001959189510066062
1761476351617419800,8.007419677734376,0.024283377385139464,-0.008516118606552481,0.007219238063273951
1761476351627452700,8.01745263671875,0.015598551148176192,-0.007504968802630901,0.01793508607065305
1761476351637485800,8.02748583984375,-0.019569792866706848,-0.003992576767504215,0.020745001525385304
1761476351647519500,8.03751953125,-0.0269178175419569,-0.005326747980713844,0.02298319977307692
1761476351657552600,8.047552734375,-0.017379004824161527,-0.017272037318348882,0.023276501897536217
1761476351667585500,8.05758544921875,0.0018856676161289215,-0.031496085242927074,0.021030695732124148
1761476351677618700,8.06761865234375,0.026081951239705085,-0.03587956102415919,0.008289196249190717
1761476351687652600,8.077652587890626,0.03563011630773544,-0.03898709858544171,-0.008271003005374223
1761476351697685800,8.087685791015625,0.03251110750436783,-0.023967297173291442,-0.02622256528679281
1761476351707718700,8.09771875,0.03151566672623157,-0.033140345318615434,-0.027405546259973195
1761476351717751800,8.107751708984376,0.046239773127436636,-0.028429098887741564,-0.02830729913897812
1761476351727784700,8.11778466796875,0.03237374486029148,-0.010302052175253628,-0.020714451123494654
1761476351737818600,8.127818603515625,0.010420856249332427,-0.005120119492709636,-0.010556739322375506
1761476351747851500,8.1378515625,0.007470774272084236,-0.0028588234972208738,-0.0007331183138303459
1761476351757884700,8.147884765625,0.004518354207277297,-0.0023877719193696975,0.005672693607863038
1761476351767917600,8.15791748046875,0.01293956107199192,-0.009602671734243631,0.013309536028699949
1761476351777950700,8.16795068359375,0.013560323318839072,-0.014033493788540363,0.014498462685476988
1761476351787984600,8.177984619140625,0.004291559714078903,-0.009559563244879245,0.013661737866699695
1761476351798017800,8.188017822265625,0.004580898049473763,-0.00037095220424234864,0.011033289059251546
1761476351808050700,8.19805078125,0.016246201401948927,-0.002131897462159395,0.01583180278162472
1761476351818083800,8.208083740234375,0.019385083949565885,-0.005344868159294128,0.011157883553300052
1761476351828117500,8.218117431640625,0.024617139384150503,-0.009151128574460744,0.003139649732597172
1761476351838150700,8.228150634765624,0.03615852409601211,-0.023666779856756328,-0.012385872711986302
1761476351848183600,8.23818359375,0.04530512262582779,-0.022891776896268128,-0.013622766696335747
1761476351858216700,8.248216796875,0.041730771270394325,-0.017411299658566713,-0.024879133054893462
1761476351868249600,8.25824951171875,0.020057868644595144,-0.013753726999089121,-0.020931080415705218
1761476351878283800,8.26828369140625,-0.005513794985413551,-0.016569076680764554,-0.0036341552512720223
1761476351888316700,8.278316650390625,0.0009305588483810425,-0.0023193097930401564,0.006216088902717456
1761476351898349800,8.288349853515625,-0.00028057050704956055,-0.005172580332309007,0.016390103384666142
1761476351908382700,8.2983828125,-0.007049918511509895,-0.020701281114667652,0.013483193828864022
1761476351918416000,8.308415771484375,0.008050035464763641,-0.029603403364121914,0.007415262958873063
1761476351928449500,8.318449462890625,0.01897182697355747,-0.02676788767725229,0.000757038045534864
1761476351938482700,8.328482666015624,0.03722936819791794,-0.04040719451643526,-0.007397535505937412
1761476351948515600,8.338515625,0.028407763838768002,-0.03930529768913984,-0.006708037138124927
1761476351958548700,8.348548828125,0.005505611678957939,-0.0321288301885128,0.004574952365877107
1761476351968582700,8.358582763671874,0.0032458500534296034,-0.022319603031501174,0.016664892604900523
1761476351978615800,8.36861572265625,-0.006359598159790039,-0.013520429699867963,0.018365540776634586
1761476351988648700,8.378648681640625,-0.005032148948311805,-0.00468099742308259,0.01701736843753606
1761476351998681900,8.388681884765624,0.009317278921604156,0.005485737934708595,0.010858005557581782
1761476352008714800,8.39871484375,0.013346972829103469,0.00038702655620872974,-0.004922943819640204
1761476352018748700,8.408748779296875,0.03565583527088165,-0.001979994836077094,-0.005209359545586631
1761476352028781600,8.418781494140624,0.033577275431156156,-0.0019646511364728213,-0.006384677802119404
1761476352038814700,8.428814697265626,0.02447276247739792,-0.004085296552255749,-0.011206855527870357
1761476352048847600,8.43884765625,0.00398059406876564,0.001047170965373516,-0.003143038132926449
1761476352058880500,8.448880615234375,-0.010701426756381988,0.001959755765646696,0.013837112699914722
1761476352068914700,8.458914794921874,-0.013289105162024497,-0.005849675876274704,0.005570438809785991
1761476352078947800,8.46894775390625,-0.003457446977496147,0.005109232772514224,0.008158783935708925
1761476352088980700,8.478980712890625,0.013560323318839072,0.005405804566293955,0.002508548754826188
1761476352099013600,8.489013671875,0.027291327029466628,0.0004471592456102371,-0.005961584418686106
1761476352109046800,8.499046875,0.03880173208117485,-0.016011296667531132,-0.019642949434462934
1761476352119080700,8.509080810546875,0.03596387830674648,-0.013000351348519325,-0.01662962036211975
1761476352129113600,8.519113525390624,0.031637247279286386,-0.01112228251695633,-0.0013576160208787769
1761476352139146500,8.529146484375,0.012041735449433325,-0.042380832676962014,-0.013279150023590773
1761476352149179600,8.5391796875,0.019243629652261732,-0.024056802087649702,-0.011853144941618666
1761476352159212500,8.549212646484374,0.017735563176870344,-0.011236337350681424,0.00397536077122204
1761476352169246700,8.559246826171876,0.007072714865207672,-0.017418021660298107,0.008795702732913196
1761476352179279600,8.569279541015625,0.0019458733707666397,-0.03414535764269531,0.016393309121904894
1761476352189312800,8.579312744140625,0.0004471592456102371,-0.029200740847364067,0.015039127167128026
1761476352199345700,8.589345703125,0.015100538498163223,-0.015558146072551607,0.011261279995692893
1761476352209381600,8.599381591796876,0.028841479080915448,-0.021290259983763098,0.005281840259907767
1761476352219414800,8.609414794921875,0.027185528567433354,-0.02392528466247022,0.005769696842087432
1761476352229447700,8.61944775390625,0.028508301603794098,-0.020950871961563824,0.008966474456246942
1761476352239480800,8.629480712890626,0.011003624573349953,-0.01449840788654983,0.012149123080354183
1761476352249514500,8.639514404296875,0.017587094616889953,-0.0029917291618883606,0.003597933160420507
1761476352259547600,8.649547607421875,0.005012859725952148,-0.004659370113164186,-0.003227793806931004
1761476352269580500,8.65958056640625,0.006498129847645759,-0.00009556932896375655,-0.005393931465409695
1761476352279613700,8.66961376953125,0.018173370072245596,-0.016510259165614844,-0.011689396614115685
1761476352289646600,8.679646484375,0.027007833912968633,-0.026389482818916437,-0.019872830933891236
1761476352299679700,8.6896796875,0.028809914898872375,-0.019605010310560465,-0.022252054220624266
1761476352309713700,8.699713623046875,0.03360825509130955,-0.007614201330766081,-0.01393190571074374
1761476352319746800,8.709746826171875,0.010272972211241722,0.003933613121882081,0.0017123660089913755
1761476352329779700,8.71977978515625,-0.0017161562681198119,0.011130538888648152,0.008888130256719886
1761476352339812900,8.729812744140625,-0.03332067032158375,0.01325834469757974,0.02124224699041806
1761476352349845800,8.739845703125,-0.03618775019049644,0.014806523987650871,0.017141488007549194
1761476352359879700,8.749879638671874,-0.015746435186266897,-0.0023478783003985882,0.01579246628507972
1761476352369912600,8.75991259765625,0.01502571969628334,-0.023539500215277075,0.009557407820411026
1761476352379945700,8.76994580078125,0.05808686278760433,-0.04353833214901388,-0.0029861762039363384
1761476352389978600,8.779978515625,0.0636217005610466,-0.02762516209371388,-0.020166206123586744
1761476352400011800,8.79001171875,0.040892566880583764,-0.01821282529979944,-0.03309265198567882
1761476352410045700,8.800045654296875,0.009337737187743186,-0.015552958440780638,-0.01904397889431566
1761476352420078800,8.810078857421875,0.0003565583527088165,-0.016407456378266214,-0.010236147332191466
1761476352430111700,8.82011181640625,0.012031214055418968,-0.021558920857310294,-0.01368979491740465
1761476352440145000,8.830144775390625,0.028353987824916837,-0.029955285541713235,-0.01614738066997379
1761476352450177800,8.840177734375,0.037815059131383895,-0.017212343020364642,-0.023585257319454104
1761476352460211700,8.850211669921874,0.04474339708983898,-0.008971095832437275,-0.005565123313851654
1761476352470244600,8.86024462890625,0.025763971331715582,-0.005328574611619115,0.0006226984756067395
1761476352480277800,8.87027783203125,0.011564765587449073,0.010305851567536592,0.018784323311131446
1761476352490310700,8.880310546875,-0.012092004331946373,0.015282544001564383,0.026629849179740993
1761476352500343600,8.890343505859375,-0.01899286976158619,0.011495645873993635,0.025891579766757784
1761476352510377700,8.900377685546875,-0.001364274090528488,-0.0030004969902336595,0.01692103192359209
1761476352520406300,8.91040625,0.023455109867453573,-0.005306289714574814,0.009673965138476341
1761476352530439400,8.920439453125,0.046347909677028655,-0.012811258517205715,-0.004820351094845682
1761476352540472300,8.930472412109374,0.05518997230231762,-0.015098273475840687,-0.0209723166083917
1761476352550505200,8.940505126953125,0.047723289683461186,-0.012242591783776879,-0.02373639276055619
1761476352560539100,8.9505390625,0.021249124255776405,-0.0002914572272449732,-0.018544998129922895
1761476352570572300,8.960572265625,-0.002530395260453224,-0.000584302693977952,-0.018007566784974186
1761476352580605200,8.970605224609375,-0.0254191034168005,-0.012638897624984383,0.002438031668728217
1761476352590638000,8.98063818359375,-0.008515899410843849,-0.016826631638407707,0.0025259839468169958
1761476352600671200,8.990671142578124,0.025741174978017804,-0.011517127053439616,0.008794825950078666
1761476352610704100,9.0007041015625,0.028427053061127663,-0.011127250953018664,0.006606467326637357
1761476352620738300,9.01073828125,0.017502923464775083,-0.00660115183070302,0.005625694394670426
1761476352630771200,9.020771240234374,0.008368015372753142,-0.0073498513061553234,0.003052172378543764
1761476352640804400,9.030804443359376,0.011211714366078375,-0.009270444105193018,0.00749442914230749
1761476352650837200,9.040837158203125,0.008662614405155181,-0.01890336484722793,0.003204586461279541
1761476352660870400,9.050870361328125,0.006711480337381362,-0.024213161693140865,0.008056629602331668
1761476352670904000,9.060904052734376,0.018824527457356452,-0.01775572918206453,0.0016543430782854556
1761476352680937200,9.070937255859375,0.028109657675027846,-0.019803163231164215,0.0018340287604369221
1761476352690970000,9.08097021484375,0.028416531667113304,-0.025929610222205517,0.0055736719464883205
1761476352701003300,9.091003173828126,0.021985621836781502,-0.016555778807774185,0.010495346257649361
1761476352711036200,9.1010361328125,0.013617606464028358,-0.012026172554120421,0.006784143714793026
1761476352721070300,9.1110703125,0.0068920976012945175,0.0035609804172068832,0.014926506238663569
1761476352731103200,9.121103271484374,-0.0035819501399993892,-0.0055618719108402725,0.02104053213954903
1761476352741136400,9.131136474609375,0.004790741407871246,-0.004706204929575324,0.017251926112081855
1761476352751169300,9.141169189453125,-0.001813186901807785,-0.0005294307015836239,0.007168275061016902
1761476352761202400,9.151202392578124,0.016584055054187773,-0.006365808704867959,0.0033425701598636805
1761476352771235300,9.1612353515625,0.035595044994354244,-0.006680354546755552,-0.016111231644358483
1761476352781269200,9.171269287109375,0.04833060792684555,-0.0006791413705796003,-0.01861309493007138
1761476352791302100,9.18130224609375,0.031137481063604353,0.012917130044475197,-0.021702402714919296
1761476352801335300,9.191335205078126,0.022170915275812147,0.0077084554854780435,-0.01901547431903891
1761476352811368200,9.2013681640625,0.018730419433116912,-0.007957096484303474,-0.009251346679078414
1761476352821401300,9.2114013671875,-0.00025602058768272397,-0.011235460567846894,-0.006774663500394672
1761476352831435300,9.221435302734376,0.013676643174886703,-0.006089549046754837,-0.005622744385758415
1761476352841468400,9.231468505859375,0.018935002094507217,-0.018936463399231433,-0.013128599104378372
1761476352851501300,9.241501220703125,0.027647885382175445,-0.029240049944445488,-0.023448287401022387
1761476352861534500,9.251534423828126,0.05326806432902813,0.011071940569207071,-0.00722412430094555
1761476352871567400,9.2615673828125,0.02723053675293922,0.015338731168210506,0.010272771281842142
1761476352881600300,9.271600341796875,-0.010799626433849335,-0.0124459323361516,0.01727224738090299
1761476352891634200,9.28163427734375,-0.023680735316872596,-0.017856340012326836,0.01571993077183142
1761476352901667300,9.291667236328125,-0.00871580589711666,-0.020608999721333385,-0.00016544709424488245
1761476352911700200,9.3017001953125,0.023753800553083418,-0.022421675166487694,-0.010039565314166247
1761476352921733000,9.311733154296874,0.048746787512302395,-0.027568755731359123,-0.013428312703315168
1761476352931766300,9.321766357421875,0.04740823238492012,-0.013195654724910855,-0.010047502025449647
1761476352941799200,9.331799072265625,0.0351525619238615,-0.014526464937254785,-0.007323100296547636
1761476352951833300,9.341833251953124,0.017965280279517173,-0.01688457237072289,-0.002630366769898683
1761476352961866200,9.3518662109375,0.018437573966383933,-0.009469619939103722,-0.007233467518026009
1761476352971899400,9.3618994140625,0.020561141991615295,-0.006133899645134807,0.003031339653069153
1761476352981932300,9.371932373046874,0.02132160497009754,-0.013005173654109239,0.0039374764462467285
1761476352991965200,9.381965087890626,0.0050192894667387,-0.018186594879999757,0.017267991330893708
1761476353001999000,9.3919990234375,-0.012334580916166306,-0.01984802528619766,0.023034573767287656
1761476353012032300,9.4020322265625,-0.01128127247095108,-0.017962869126722215,0.02165220689764246
1761476353022065200,9.412065185546876,-0.006204699859023094,-0.0004205634996294975,0.024264672684669492
1761476353032098300,9.422098388671875,-0.015964461851119993,0.00023110534213483333,0.025706121930945663
1761476353042131200,9.432131103515625,0.010179448708891868,0.0042697132084518665,0.020839301345869896
1761476353052164400,9.442164306640626,0.017793430843949316,-0.005414426264166832,0.0068630724362097675
1761476353062198300,9.4521982421875,0.022279636347293852,-0.01192585398480296,-0.009118705875892192
1761476353072231200,9.462231201171875,0.02739478740394115,-0.03377060604616999,-0.025154607261717317
1761476353082264000,9.47226416015625,0.03250993846058845,-0.03721658178158104,-0.03384927903926
1761476353092297200,9.482297119140625,0.03523264142274856,-0.022627938328310847,-0.03610348770683631
1761476353102330000,9.492330078125,0.03391337551772594,-0.01551671808362007,-0.027883849562518298
1761476353112363300,9.50236328125,0.0215326173722744,-0.0020339169804006814,-0.020686850730516015
1761476353122397200,9.512397216796876,-0.0010457096606492995,0.005269830161705613,0.0004810523820575326
1761476353132430300,9.522430419921875,-0.00042903906702995297,0.0069717387087643145,0.006828777440963312
1761476353142463200,9.532463134765624,0.0015349544823169707,0.006571268149092793,0.009836681419517844
1761476353152496400,9.542496337890626,0.013525836527347564,0.00792209823615849,0.01648939904067665
1761476353162529300,9.552529296875,0.020571078863739965,0.002039469938352704,0.01689265521247871
1761476353172562400,9.5625625,0.02207797629535198,-0.011599179313704371,0.017583468754542992
1761476353182596000,9.57259619140625,0.005763970354199409,-0.013842574326321482,0.011083768004318699
1761476353192629200,9.582629150390625,0.008889408898353577,-0.018801438842713833,0.009106467448826878
1761476353202662100,9.592662109375,0.008866612544655799,-0.012012874681130051,-0.008332733996817842
1761476353212695300,9.6026953125,0.016491700595617293,-0.008675473886728286,-0.010820632689259946
1761476353222728200,9.612728271484375,0.02652443431019783,0.00230192026682198,-0.018355211178865283
1761476353232762400,9.622762451171875,0.022349194452166557,0.0025727730974555016,-0.01709507331624627
1761476353242795300,9.632795166015624,0.02640460732281208,-0.003784486974775791,-0.003202851161919534
1761476353252828400,9.642828369140625,0.029718261915445326,-0.0039043870273977517,0.005706248817592859
1761476353262861300,9.652861328125,0.007431026783585548,-0.020562237970158458,0.008732565235672517
1761476353272894200,9.662894287109374,0.0016056816309690475,-0.023656916049867867,0.008515926810307427
1761476353282927400,9.67292724609375,-0.002594108146429062,-0.022556772788241506,-0.00030485556493513283
1761476353292961300,9.682961181640625,-0.0027601123631000517,-0.020606223242357374,-0.005366897328011691
1761476353302994200,9.692994140625,0.016537293303012846,-0.029643296983093023,-0.009042380103515461
1761476353313027000,9.703027099609375,0.026261983981728552,-0.03034267742410302,-0.007946830818615854
1761476353323060200,9.713060302734375,0.03298807736635208,-0.017324571223184464,0.0007775785100646316
1761476353333093000,9.723093017578124,0.03224865717589855,-0.018377368211746216,-0.0030839100905228406
1761476353343126300,9.733126220703125,0.020737083080410956,-0.016263956254348157,-0.005455114467581733
1761476353353160200,9.74316015625,0.00519055438041687,-0.009120733436197043,-0.00011881320723332465
1761476353363193300,9.753193359375,0.004748071309924125,-0.009067249683290719,0.0013481906054075806
1761476353373226200,9.763226318359376,0.007744915038347244,-0.00518441690057516,-0.0002879044301342219
1761476353383259400,9.77325927734375,0.022865911802649498,0.0038358518358319995,0.01242392143374309
1761476353393292300,9.783292236328125,0.017485387808084486,-0.010916969203203916,0.0019592260426841675
1761476353403325400,9.793325439453126,0.018237082958221434,-0.0005601181007921695,0.005038788751652464
1761476353413359000,9.803359130859375,0.008508300626277924,-0.0014743834014981985,0.01663084420482628
1761476353423392300,9.813392333984375,0.004146013763546943,0.0038962037209421393,0.012085784653713925
1761476353433425200,9.823425048828126,0.011605682119727134,0.006295008490979671,0.001498750657774508
1761476353443458300,9.833458251953125,0.03133680302798748,-0.003562807048112154,0.0032680618852376935
1761476353453491200,9.8434912109375,0.027281390157341955,-0.007995455733314156,-0.003849295839294791
1761476353463524400,9.8535244140625,0.019638181927800178,-0.01649564611837268,-0.011881064995005726
1761476353473557200,9.86355712890625,0.030125673672556877,-0.019620938532054422,-0.01759792653815821
1761476353483591400,9.87359130859375,0.03462006248235702,-0.01709142005443573,-0.021598184288619086
1761476353493624300,9.883624267578124,0.02984627220928669,-0.013143193885311483,-0.007144802853884175
1761476353503657200,9.8936572265625,0.012949497944116591,-0.017547274063155056,-0.0035092228305060413
1761476353513690000,9.903690185546875,0.004286299017071724,-0.019466624753177165,-0.0039862292251084
1761476353523727600,9.9137275390625,-0.0036328035444021223,-0.023354791298136113,0.0020914010549895464
1761476353533760500,9.923760498046875,0.004284545451402664,-0.0216757521700114,0.0022748221973422915
1761476353543794700,9.933794677734374,0.022386603853106497,-0.019433672331646085,0.009110212042182684
1761476353553827600,9.94382763671875,0.030915947267413136,-0.01518112945370376,0.005801635483466089
1761476353563860700,9.95386083984375,0.02850771708190441,-0.005729629693180322,0.009099581050314009
1761476353573893600,9.9638935546875,0.026861118918657303,-0.010049684849381447,0.00026163747771643103
1761476353583926800,9.9739267578125,0.0060644146054983136,-0.012081629068404435,-0.00830972758056596
1761476353593959700,9.983959716796875,0.006370704075694083,-0.005088336114957928,-0.004513230507588014
1761476353603993600,9.99399365234375,0.020299860706925393,-0.007951543526351452,0.004257520447159185
1761476353614026500,10.004026611328126,0.030791444104909894,-0.013511369610577821,-0.008219912138953804
1761476353624059600,10.0140595703125,0.026615619724988937,-0.01144018935970962,-0.0035516737327445295
1761476353634092500,10.024092529296874,0.025725977408885953,0.0025008769050240513,0.0032512934135273098
1761476353644125700,10.034125732421876,0.011363690057396889,0.0027148849818855523,0.013112086360994726
1761476353654158600,10.04415869140625,-0.007489478972554206,-0.007045169271156192,0.019301360322022808
1761476353664192800,10.05419287109375,-0.022607553127408028,0.006595233546569943,0.014521176840784028
1761476353674225700,10.0642255859375,-0.021886837637424467,-0.006140840842574834,0.02406009002327919
1761476353684258800,10.0742587890625,0.0008148235142230987,-0.018926891853287817,0.023044720701966434
1761476353694291700,10.084291748046875,0.0329436537027359,-0.03345949427038431,0.004181012011691927
1761476353704324600,10.09432470703125,0.036059739896655084,-0.03025916385911405,-0.01704672239618376
1761476353714357500,10.104357421875,0.03023614830970764,-0.019505130132660267,-0.01748670298233628
1761476353724390700,10.114390625,0.029388007047772405,-0.012196852945908903,-0.037141525517683474
1761476353734424600,10.124424560546874,0.03945698111951351,-0.014139657576754689,-0.037686592179816215
1761476353744457700,10.134457763671875,0.03126081518232822,-0.014576368493586778,-0.03206590275382623
1761476353754490600,10.14449072265625,0.021570611295104025,-0.0016531009692698716,-0.010373199449013918
1761476353764523800,10.154523681640624,0.004388005825877189,-0.0006200315944850445,-0.0023824929560534655
1761476353774556700,10.164556640625,-0.0006914893954992294,-0.000025499767437577247,0.002013696176279336
1761476353784589600,10.174589599609375,0.010696750581264495,-0.005087386266887188,0.0003413425172679126
1761476353794623500,10.18462353515625,0.008456862699985504,-0.012956512206792831,0.005250139080546796
1761476353804656600,10.19465673828125,0.025528993532061575,-0.001387435770407319,0.016968670457601545
1761476353814689500,10.204689453125,0.0247960030823946,0.00017769465446472167,0.012971380982361733
1761476353824722400,10.214722412109374,0.020906009906530378,0.005182005747780203,0.01097248051641509
1761476353834755600,10.224755615234375,0.0018815759629011153,0.004684942945837974,0.013626684819627552
1761476353844788500,10.23478857421875,-0.0017447978407144546,0.009324073988571763,0.008630885826330632
1761476353854821600,10.244821533203124,0.010951017603278159,-0.009148352095484733,-0.0028580928448587654
1761476353864855600,10.25485546875,0.026222821015119552,-0.005039163210988044,-0.021616167469881473
1761476353874888700,10.264888671875,0.04673837029933929,-0.00605345482006669,-0.02828083125716075
1761476353884921600,10.274921630859374,0.04347673815488815,-0.009079524642974138,-0.020541925834491846
1761476353894954800,10.284954833984376,0.031096564531326292,-0.01753017679788172,-0.004240039589395747
1761476353904987600,10.294987548828125,0.014060089534521102,-0.009086685036122798,0.000022367095435038206
1761476353915020800,10.305020751953125,-0.0018085107266902923,-0.020932313391566277,0.009238103605015202
1761476353925053700,10.3150537109375,-0.022487726140022278,-0.01595971261076629,0.009881388210924342
1761476353935087600,10.325087646484375,-0.018487258327007292,-0.018771701291576025,0.005684100917866453
1761476353945120500,10.33512060546875,-0.005646481454372406,-0.0359390361264348,0.006963190076127648
1761476353955153700,10.345153564453126,0.028311317726969716,-0.031022841707989572,0.001060706300381571
1761476353965186600,10.3551865234375,0.05510463210642338,-0.02112966259457171,0.001837261897139251
1761476353975219700,10.3652197265625,0.04074643640816211,-0.020938670067116617,0.002238609239645302
1761476353985252600,10.375252685546876,0.01875438483059406,-0.01175977670289576,0.004448786969250068
1761476353995286800,10.385286865234375,-0.0017588263660669326,-0.012194222597405314,0.005463599168136716
1761476354005319700,10.395319580078125,-0.0037052842587232586,-0.015222338246926665,0.007907055930653587
1761476354015352800,10.405352783203124,-0.0008779518783092498,-0.009700725281238555,0.005452082260278985
1761476354025385700,10.4153857421875,0.02335457210242748,-0.009358633845299481,0.01061415033172816
1761476354035418600,10.425418701171875,0.03472352285683155,-0.0086013126719743,0.000762938063358888
1761476354045451500,10.435451416015624,0.04414718476235866,-0.009272489931806922,-0.0004816186376381665
1761476354055484400,10.445484375,0.01602700569331646,-0.02035305219888687,-0.007430834987340495
1761476354065518600,10.4555185546875,0.016190671822428702,-0.02707052388563752,-0.00182419235301204
1761476354075551700,10.4655517578125,0.014241291320323942,-0.01432253986299038,0.002660478780372068
1761476354085584600,10.475584716796876,0.014218494966626166,-0.012659575086832046,0.0016334738201927393
1761476354095617500,10.485617431640625,0.001602174499630928,-0.0073239862125366925,-0.0017295728721190243
1761476354105650700,10.495650634765624,-0.0021767595171928405,-0.013344853937253355,0.006799423482315614
1761476354115683600,10.50568359375,0.01081248591542244,-0.017605945447832345,0.0009254808144643903
1761476354125716700,10.515716796875,0.029508418557047843,-0.011010127379372715,-0.009238907322613522
1761476354135750700,10.525750732421875,0.04193535393178463,-0.0007330635149031877,-0.02417967954864725
1761476354145783600,10.535783447265626,0.04479191240668297,0.004228431349992752,-0.021179502218822015
1761476354155816400,10.54581640625,0.0409258846282959,0.002660451380908489,-0.018058155327895654
1761476354165849600,10.555849609375,0.02195113504528999,0.008478928401321173,-0.009780594717571511
1761476354175882500,10.565882568359376,0.005348959812521934,-0.0051746992241591214,-0.006270102378586307
1761476354185915600,10.57591552734375,-0.01633972490429878,-0.022082652470469474,0.003174328320333734
1761476354195948500,10.585948486328125,-0.006027005204558372,-0.026689123352617024,0.004857632631622254
1761476354205982700,10.595982666015624,0.0029237784922122954,-0.01602612891048193,0.0021173392138443886
1761476354216015600,10.606015625,0.022647300615906713,-0.0035687253322452305,0.004760592864779755
1761476354226048800,10.616048828125,0.03413958548903465,0.012472893408313392,0.008560606202250347
1761476354236081700,10.62608154296875,0.02588262927532196,0.012903539910539984,-0.0000034157997928559777
1761476354246114800,10.63611474609375,0.014960253244638443,-0.0038904315672814846,-0.012802371957851572
1761476354256147700,10.646147705078125,0.021715572723746298,-0.012688655050843954,-0.01831655053575523
1761476354266181600,10.656181640625,0.034168227061629294,-0.03159881496503949,-0.02434756519515067
1761476354276214500,10.666214599609376,0.028956629893183705,-0.021160423059016466,-0.011569176901085302
1761476354286247700,10.67624755859375,0.018946692532300947,-0.01911021253094077,0.006194488992262631
1761476354296280600,10.686280517578124,0.007881108638644219,-0.017267434208467602,0.012357797394972295
1761476354306313500,10.6963134765625,0.005331424155831337,0.001996069188043475,0.018570379166351632
1761476354316346600,10.7063466796875,-0.008303133442997932,0.009190510736778379,0.02760527008315548
1761476354326379500,10.716379638671874,-0.024471593433618544,-0.0028138883769512177,0.020822770336177198
1761476354336412700,10.72641259765625,-0.013715221619606017,-0.014819602664932608,0.019477913332171738
1761476354346446600,10.736446533203125,0.018732172998785972,-0.018465557951852677,0.02743102776110172
1761476354356479700,10.746479736328125,0.028712299743294714,-0.023593860751017926,0.021594448828417805
1761476354366512600,10.7565126953125,0.029126725763082503,-0.03509783606193959,0.0004904686643742024
1761476354376545800,10.7665458984375,0.02148410205543041,-0.024544366408884525,-0.013355777190066873
1761476354386578400,10.776578369140625,0.022567221117019653,-0.02192702351734042,-0.028552560870628803
1761476354396611600,10.786611572265626,0.056844753772020334,-0.01468224002085626,-0.03750719875860959
1761476354406644500,10.79664453125,0.2507125444024801,0.041809024138376116,-0.05761598473968915
1761476354416678700,10.8066787109375,0.30668109986186026,0.041595454452931876,-0.0726618430417031
1761476354426711600,10.816711669921874,0.09842822552621364,-0.004001125400140882,-0.06060291899545118
1761476354436744700,10.82674462890625,-0.14371931962668894,-0.050183323121443385,-0.020151246016472578
1761476354446777600,10.836777587890625,-0.3231897515922785,-0.07918065035119652,0.0135539209775161
1761476354456810800,10.846810791015624,-0.31809155167043207,-0.05195289007723331,0.05514678161456249
1761476354466843600,10.85684375,-0.1638590213358402,0.0034675299800932405,0.08302675871956161
1761476354476876800,10.866876708984375,-0.031602175965905185,0.05972476618774235,0.08270784722981042
1761476354486910500,10.876910400390624,-0.032356793725490565,0.017611498405784368,0.06375940113184042
1761476354496943600,10.886943603515626,-0.004792494973540306,-0.008444660805538295,0.051355198178719724
1761476354506976500,10.8969765625,0.1373211430221796,0.032622605054825546,0.013727734041307121
