time,seconds_elapsed,z,y,x
1761476357577481500,0.1194814453125,-0.07550035440325736,-0.05368468230590224,0.00972931205490604
1761476357587514400,0.129514404296875,-0.15127601861655712,0.02216740814447403,0.05149743792731314
1761476357597547500,0.139547607421875,-0.1475029298186302,0.0694126319874078,0.07516317660445347
1761476357607580400,0.149580322265625,-0.061896776464581485,0.08426452948674559,0.07076932555967941
1761476357617613600,0.159613525390625,0.05605857183039188,0.07985460409000515,0.053999045484699304
1761476357627647500,0.1696474609375,0.14716215355694293,0.05536160254217684,0.020919143382739275
1761476357637680600,0.1796806640625,0.1736941866517067,0.01966426621712744,-0.006559669042844325
1761476357647713500,0.189713623046875,0.129800684389472,-0.020479674253240227,-0.02403566796807572
1761476357657746400,0.199746337890625,0.049855625537037845,-0.048099721780419345,-0.039101628343202174
1761476357667779300,0.209779296875,-0.01471416952908039,-0.06877448021434247,-0.030517960925772785
1761476357677813500,0.2198134765625,-0.045231472867727274,-0.05721439080201089,-0.015118457747343926
1761476357687846400,0.229846435546875,-0.029841011512279508,-0.023845716620236632,-0.0031635785974562167
1761476357697879600,0.239879638671875,0.01636369030177593,0.004584551311284303,-0.005731675519794225
1761476357707912400,0.249912353515625,0.056173138120770454,0.01997822753712535,0.006166139680612832
1761476357717945600,0.259945556640625,0.06831774942278862,0.04213964433223009,0.012730557963810861
1761476357727979500,0.2699794921875,0.06190437524914741,0.013078385020792484,0.01563619801113382
1761476357738012700,0.2800126953125,0.031847090637683866,-0.00006553951688110828,0.01821989436140284
1761476357748045600,0.290045654296875,0.002068038445711136,0.0004279430884867906,0.02111623685741797
1761476357758078500,0.300078369140625,-0.0166612119436264,-0.0222441997077316,0.012414185491017997
1761476357768111400,0.310111328125,-0.004884264910221099,-0.028797420743480323,0.006012775749806314
1761476357778145500,0.3201455078125,0.022768296647071837,-0.04433605839796364,-0.002100899535696953
1761476357788178400,0.330178466796875,0.0531383004695177,-0.0491295762848109,-0.013542897260002792
1761476357798211600,0.340211669921875,0.0702045860826969,-0.047180780304595826,-0.012912326005194335
1761476357808244500,0.350244384765625,0.06857610809803008,-0.027310397056117652,-0.015726908501889555
1761476357818277600,0.360277587890625,0.04360767105817794,-0.010630991868674755,-0.017306670240312814
1761476357828311600,0.3703115234375,0.017893384087085722,0.003892623524367809,-0.009091781336348503
1761476357838344400,0.380344482421875,0.017760113096237182,0.013548048359155655,0.0035655104618519543
1761476357848377300,0.39037744140625,0.0231663560539484,0.008756795494630933,0.008117967868130654
1761476357858410500,0.400410400390625,0.04456745600104332,0.019756182284280655,0.015420801694784313
1761476357868444400,0.4104443359375,0.03812193312346935,0.00986892145499587,0.03228140866803005
1761476357878477600,0.4204775390625,0.012962357425689696,-0.01563566828817129,0.021079539842531084
1761476357888510500,0.430510498046875,0.006349661287665367,-0.012263561506569385,0.01645354227600619
1761476357898543600,0.440543701171875,0.025627777731418607,-0.004005874640494585,0.0031935170779936015
1761476357908576500,0.450576416015625,0.04190729688107967,-0.01537022228501737,-0.003386500633135438
1761476357918610700,0.460610595703125,0.04905658411383629,-0.009610051323100924,-0.01334293597480282
1761476357928643600,0.4706435546875,0.06640519379973411,-0.013589768609032033,-0.011875110178254544
1761476357938676500,0.480676513671875,0.06253098271489144,-0.013747662584483622,-0.014370160130690783
1761476357948709400,0.49070947265625,0.0453612367272377,-0.01983903826214373,-0.024265074543468653
1761476357958742300,0.5007421875,0.04987549928128719,0.000863046570122242,-0.02316858454365283
1761476357968776400,0.5107763671875,0.03644143269062042,0.017884689323976636,-0.008470489366538821
1761476357978809600,0.5208095703125,0.016999650117754936,0.01602532519288361,-0.0014158398809842765
1761476357988842500,0.530842529296875,0.015052607703208922,0.009969824546203017,0.006656261285115033
1761476357998875400,0.54087548828125,0.014293313768506049,0.00533968052752316,0.018312778542935847
1761476358008909600,0.55090966796875,0.0319371070086956,-0.01550510071106255,0.009365611575357615
1761476358018942700,0.560942626953125,0.03686754914820194,-0.03201411776766181,0.004197013298422098
1761476358028975400,0.570975341796875,0.06094049865305423,-0.04130816194415092,0.0009526062834076583
1761476358039008300,0.58100830078125,0.06692950993478297,-0.048151744228601454,-0.013057269167527556
1761476358049041400,0.59104150390625,0.04943243168890476,-0.04859013564586639,-0.014835366489645093
1761476358059075600,0.60107568359375,0.031772271835803986,-0.03532864914312959,-0.010437423791643231
1761476358069108500,0.6111083984375,0.0260813667178154,-0.009408391271159052,-0.006277984290942549
1761476358079141400,0.621141357421875,0.016487608942389487,-0.006417319696396589,0.00576809854004532
1761476358089174500,0.631174560546875,0.026643676775693893,0.008605038999021052,0.01620976011538878
1761476358099208700,0.641208740234375,0.03082826898396015,0.000028349311649799347,0.011466200583800672
1761476358109241600,0.65124169921875,0.04820376667678356,-0.019139292494952678,0.018840492211468517
1761476358119274500,0.6612744140625,0.05586801769435405,-0.025371684078499674,0.012347002006322145
1761476358129307400,0.671307373046875,0.03555003680884838,-0.038576691153645516,0.014281641597021371
1761476358139340300,0.68134033203125,0.005764554876089096,-0.04147182807326317,0.009946681132633238
1761476358149374500,0.69137451171875,-0.007286065354943275,-0.0537586973901838,0.01885240184497088
1761476358159407600,0.70140771484375,0.0028436989933252332,-0.060847632737830275,0.020959164865873754
1761476358169440500,0.7114404296875,0.020460019704699513,-0.0557994825027883,0.000024221125803887843
1761476358179473400,0.721473388671875,0.042134675896167754,-0.025584596176818013,0.004918916098494082
1761476358189507600,0.731507568359375,0.05348609099388122,-0.03269610868245363,-0.005157254899013787
1761476358199540700,0.741540771484375,0.05019055657982826,-0.04961253749616444,-0.013993728033732621
1761476358209573600,0.75157373046875,0.055737669312953944,-0.051612406076490876,-0.006185045310482382
1761476358219606300,0.761606201171875,0.057094929140806196,-0.03105184860676527,-0.014836809528060256
1761476358229640400,0.771640380859375,0.05485387221574783,-0.023371888563409448,-0.014413451283145695
1761476358239673600,0.781673583984375,0.04933247844576835,-0.02150982101857662,-0.028349293383490293
1761476358249706500,0.79170654296875,0.04681435814499855,-0.021752616798505185,-0.02794253921350464
1761476358259739400,0.801739501953125,0.04579845910072326,-0.008873626807332039,-0.029718444578535855
1761476358269772500,0.8117724609375,0.04120177896022796,0.013836509911715984,-0.02444718964472413
1761476358279806700,0.821806640625,0.03764379421770572,0.025080665242671964,-0.016690584168583152
1761476358289839600,0.831839599609375,0.03464928857684135,0.019283084879815577,-0.0036092034731060266
1761476358299872500,0.84187255859375,0.020281740528345107,0.007725552750751376,-0.0030169732009992
1761476358309905400,0.851905517578125,0.010398644417524337,0.007815349926054477,0.0020994016983546314
1761476358319939600,0.861939697265625,0.02072247003316879,-0.004575564287230372,0.0021280250046402213
1761476358329972500,0.871972412109375,0.04466039498150348,-0.018417407961189746,-0.01380732034984976
1761476358340005400,0.88200537109375,0.057684127205610274,-0.02588971660323441,-0.02020575268268585
1761476358350038500,0.89203857421875,0.0601011252194643,-0.016268194038048387,-0.013714819760806858
1761476358360072700,0.90207275390625,0.0463590155929327,-0.0003078238401561975,-0.007977408619970082
1761476358370105600,0.912105712890625,0.021985621836781502,-0.00007233458384871482,0.007374949214793741
1761476358380138500,0.922138427734375,0.0173497787296772,0.0014250643670558928,0.024353794006537643
1761476358390171600,0.932171630859375,0.006699205377697944,0.00525185611359775,0.024044052203930914
1761476358400204500,0.94220458984375,0.005168927070498466,0.017240400071069598,0.035297925211302934
1761476358410238500,0.952238525390625,0.018892331996560097,0.00931399098597467,0.0420705428850837
1761476358420271400,0.962271240234375,0.02511573655605316,-0.004997223765403032,0.03341832200977951
1761476358430304500,0.972304443359375,0.026539047357439994,-0.019180866614356636,0.029888997106160966
1761476358440337400,0.98233740234375,0.02781798125207424,-0.03592749181911349,0.022955617646407335
1761476358450371600,0.99237158203125,0.04677461065649986,-0.04187653641663491,0.01456308888690546
1761476358460404500,1.002404541015625,0.04495557853579521,-0.044952436730638146,0.005188179760240018
1761476358470437600,1.012437744140625,0.05586743317246437,-0.0306578077878803,-0.0019097243451513348
1761476358480470500,1.022470458984375,0.049123804131150244,-0.031161665656790134,0.0005022869663313031
1761476358490504400,1.03250439453125,0.03818564600944519,-0.016518588602542877,0.01003735509077087
1761476358500537300,1.042537353515625,0.026046879926323888,-0.020786036788672208,0.009508563710004091
1761476358510570500,1.052570556640625,0.02602817522585392,-0.012633125471323729,0.020996720397286117
1761476358520603400,1.062603271484375,0.01777940231859684,-0.01561528308726847,0.013084011043980716
1761476358530638300,1.072638427734375,0.02405482932627201,-0.015143062465637921,0.01551206017481163
1761476358540671200,1.082671142578125,0.033927988564968106,-0.000051291795819997785,0.022619882886018603
1761476358550704000,1.0927041015625,0.047076223951578136,0.022493644424155353,0.01872515873610973
1761476358560737000,1.102737060546875,0.03073591452538967,0.043762130967527624,0.015348832437116652
1761476358570771200,1.112771240234375,0.01243453415930271,0.040482817035913464,0.0038538624165579674
1761476358580804400,1.122804443359375,0.023472645524144173,0.023728739177063106,-0.016030549357272685
1761476358590837200,1.132837158203125,0.04154840044081211,-0.0014372662615031004,-0.03243603297416121
1761476358600870100,1.1428701171875,0.049774376994371414,-0.009163038207963109,-0.040354459682200104
1761476358610904300,1.152904296875,0.0641530309587717,-0.03322911958061159,-0.04641072751386091
1761476358620937500,1.1629375,0.05551262838542461,-0.02836743182837963,-0.05481191450385377
1761476358630970000,1.17297021484375,0.03908580971956253,-0.026604952200502154,-0.05130016178954393
1761476358641003000,1.1830029296875,0.03866612300276756,-0.016591434643045067,-0.038468152745254336
1761476358651037200,1.193037109375,0.014577975928783416,0.0016061930876225233,-0.0324724559944123
1761476358661070300,1.2030703125,0.007992752319574355,0.008440276891365646,-0.03141275434102863
1761476358671103200,1.213103271484375,0.018912790262699125,0.001219385727122426,-0.03091002898328006
1761476358681136000,1.22313623046875,0.028190321695804595,0.0020502835933119056,-0.03285223082592711
1761476358691170300,1.23317041015625,0.04690729712545871,-0.014352277414128183,-0.030029720751103012
1761476358701203500,1.243203369140625,0.04139934735894203,-0.020150150037929415,-0.029230350534338503
1761476358711236400,1.253236328125,0.05055296015143394,-0.010612506363913416,-0.031612423365283755
1761476358721269200,1.263269287109375,0.049402621072530746,-0.00812193165719509,-0.028303335349913684
1761476358731303200,1.27330322265625,0.029541736304759977,0.004078209224343299,-0.022050522032845764
1761476358741336300,1.28333642578125,0.022229367464780807,0.014708616571128368,-0.017010189778078347
1761476358751369200,1.293369140625,0.01895195322930813,-0.0024194091666489836,-0.014818287490680813
1761476358761402000,1.303402099609375,0.024223756152391432,-0.015069997229427099,-0.018134608964435753
1761476358771436300,1.313436279296875,0.03518412610590458,-0.01986833742186427,-0.014726353157218545
1761476358781469400,1.323469482421875,0.05498363607525825,-0.023771043948829174,-0.02320886175511405
1761476358791502300,1.33350244140625,0.055043257308006285,-0.013566095472499727,-0.017708510773163287
1761476358801535200,1.34353515625,0.03175941235423088,-0.0067795040722936385,0.005938705866597592
1761476358811568400,1.353568359375,0.011003624573349953,0.00030658173114061354,0.019766082623787224
1761476358821602300,1.363602294921875,-0.01815232728421688,0.014455591658130287,0.03844051581965759
1761476358831635200,1.37363525390625,-0.03583469896912574,0.0010338730923831463,0.058169389971904455
1761476358841668000,1.383668212890625,-0.02601940739750862,-0.0210364313531667,0.06429028400499373
1761476358851701200,1.393701171875,0.01459434254169464,-0.03251782950609922,0.05334544041417539
1761476358861735400,1.4037353515625,0.04716857841014862,-0.02894968869574368,0.026785076274070885
1761476358871768300,1.413768310546875,0.06661153002679347,-0.024816680544242263,0.0077052771477028725
1761476358881801200,1.42380126953125,0.06632979047596455,-0.01971307379491627,0.005746982686780392
1761476358891834400,1.43383447265625,0.048392567247152324,-0.009752893859893082,-0.0017743892613798378
1761476358901868300,1.443868408203125,0.03150339176654816,-0.00851056564860046,0.0036835656172595917
1761476358911901200,1.453901123046875,0.017314707416296003,-0.016612696626782417,0.0159975969357416
1761476358921934300,1.463934326171875,0.025412089154124257,-0.012231851194053888,0.01187839811388403
1761476358931967200,1.47396728515625,0.035760464689135546,-0.019749606413021682,0.01994529338190332
1761476358942001400,1.48400146484375,0.04296294341385364,-0.011035700212046503,0.02443274099426344
1761476358952034300,1.494034423828125,0.03623217385411262,-0.01897854897528887,0.03474427338391542
1761476358962067500,1.5040673828125,0.020372925943136215,-0.00488433797545731,0.03978005732772871
1761476358972100400,1.514100341796875,0.006290040054917335,0.002393251812085509,0.04589751729471609
1761476358982134300,1.52413427734375,-0.002731470790505409,0.0015928221493959427,0.05235825600773096
1761476358992167200,1.534167236328125,0.008143558967113494,-0.004848682140186428,0.04044464044999331
1761476359002200300,1.544200439453125,0.034440029740333555,-0.008576397426426411,0.013329820764902979
1761476359012233200,1.554233154296875,0.05836743329465389,-0.006502879087999462,-0.015747439833264796
1761476359022267400,1.564267333984375,0.07348375388383865,-0.0002659574598073959,-0.027979583288263526
1761476359032300300,1.57430029296875,0.0622796383023262,-0.005903524955362081,-0.026730405211076138
1761476359042333400,1.58433349609375,0.03073766809105873,-0.007312953361868858,-0.022870496646221726
1761476359052366300,1.594366455078125,0.014427753803133964,-0.021537512743100524,-0.011186050201859324
1761476359062400300,1.604400146484375,0.003943184667825699,-0.0321436624314636,-0.014737386007886379
1761476359072433200,1.61443310546875,0.01724047313630581,-0.034047669421881435,-0.005745576180983335
1761476359082466300,1.62446630859375,0.02514671621620655,-0.020208675292134284,-0.017899192773364485
1761476359092499200,1.634499267578125,0.034278701698780056,-0.016524726082384585,-0.02113601927012205
1761476359102533400,1.644533447265625,0.039217327144742006,0.005415814503654837,-0.021347908455133437
1761476359112566300,1.654566162109375,0.042971711242198944,-0.0007076368127018213,-0.019240926238521933
1761476359122599400,1.664599365234375,0.026512743872404095,-0.004947174078598618,-0.020416673753317443
1761476359132632300,1.67463232421875,0.017369067952036858,-0.00701039021871984,-0.015702870039176194
1761476359142666200,1.684666259765625,0.01660685140788555,-0.02021532422862947,-0.022094817832298577
1761476359152699100,1.69469921875,0.034411972689628596,-0.026491993345320222,-0.01685792182581499
1761476359162732300,1.704732177734375,0.044286885493993754,-0.016078224423900247,-0.02111778949368745
1761476359172765200,1.71476513671875,0.04788929390013218,-0.004967632344737649,-0.013971406604070216
1761476359182799400,1.72479931640625,0.040563481056690213,0.0017564152132719755,-0.002307783752027899
1761476359192832300,1.734832275390625,0.025747604718804357,0.004501768398657441,0.004568915350735187
1761476359202865400,1.744865478515625,0.011667641440033912,0.004350377229228615,0.0020416618954390287
1761476359212898300,1.754898193359375,-0.0003127192109823227,0.0005715162776410579,0.0016908391637727618
1761476359222932200,1.76493212890625,0.022128245177865026,-0.0025069413196295498,0.00794423700273037
1761476359232965000,1.774965087890625,0.044589667832851405,-0.019304200733080507,0.0036553259034641083
1761476359242998300,1.784998291015625,0.0492389549434185,-0.014102321241050958,-0.0016973237034864723
1761476359253032200,1.7950322265625,0.0341243879199028,-0.018157076524570583,-0.005302124996110796
1761476359263065300,1.8050654296875,0.007470189750194549,-0.005010010181739926,0.0005986965455114841
1761476359273098200,1.81509814453125,0.005053776258230209,-0.01416822608411312,0.004585044501628726
1761476359283131400,1.82513134765625,0.02075871039032936,-0.015958835827931762,0.004907883247826248
1761476359293164300,1.835164306640625,0.03469137415289879,-0.022352628518268466,0.0036982151971198616
1761476359303198500,1.845198486328125,0.06046177522540092,-0.0283888399425894,0.003283131590206176
1761476359313231000,1.855231201171875,0.059765025132894514,-0.035634938613325354,0.009921893751248717
1761476359323264300,1.86526416015625,0.04603986664116382,-0.03184219526685774,0.011298187073133886
1761476359333297200,1.875297119140625,0.009689619365334511,-0.014660466580465435,0.01702661118991673
1761476359343331300,1.885331298828125,-0.008868950632214545,-0.017495543875917792,0.03122395377065986
1761476359353364200,1.8953642578125,-0.017121230670809746,-0.01779167727828026,0.03286149184461683
1761476359363397400,1.9053974609375,-0.007715104421973228,-0.024584260027855635,0.020199761333316562
1761476359373431300,1.915431396484375,0.024129063606262206,-0.022433438669517636,0.01191714095538482
1761476359383464400,1.92546435546875,0.061679334321618075,-0.023825112223625183,0.004765442569833248
1761476359393497300,1.935497314453125,0.07516250075101852,-0.023500629509612916,-0.005485865798871964
1761476359403530200,1.9455302734375,0.06831190420389174,-0.018307152519747613,-0.01118082603747025
1761476359413564200,1.955564208984375,0.0324292744398117,-0.010718597086891532,0.0001727627510204911
1761476359423597300,1.965597412109375,0.008197919502854346,-0.00880889100804925,0.010759952010586857
1761476359433630200,1.975630126953125,-0.019792495706677436,-0.012297609906643628,0.00865726237660274
1761476359443663400,1.985663330078125,-0.005441314271092414,-0.016862141343206166,-0.0018784524240531026
1761476359453697300,1.995697265625,0.04079378268122673,-0.015399959836155176,-0.010544226900674402
1761476359463730400,2.00573046875,0.060714288681745526,-0.009046572221443056,-0.015259875512029975
1761476359473763300,2.015763427734375,0.05610825619101524,-0.010102145688980817,-0.011292195723764598
1761476359483796500,2.02579638671875,0.03923720088899135,-0.0030961393844336268,-0.006723243840411305
1761476359493830100,2.035830078125,0.001107084459066391,-0.004115253299102187,0.006953198405075818
1761476359503863300,2.04586328125,-0.021933599388599394,0.0015966946069151163,0.020782328727934507
1761476359513896200,2.055896240234375,-0.02062660844326019,-0.0110505324549973,0.02932579199913889
1761476359523929300,2.065929443359375,-0.0001876315265893936,-0.023165771532058715,0.016787194677162914
1761476359533962800,2.075962646484375,0.0253624047935009,-0.025601620376855132,0.00899873275803402
1761476359543996000,2.085995849609375,0.05108370602726936,-0.017934446749836207,-0.010678246810194105
1761476359554028800,2.09602880859375,0.06918810251653194,-0.004132715890556573,-0.01893671912755817
1761476359564062000,2.10606201171875,0.050802550998330115,-0.021614815763011573,-0.024156061211042103
1761476359574095600,2.116095703125,0.040488662254810334,-0.008904460337013006,-0.02708530132966116
1761476359584128800,2.126128662109375,0.021040449941158293,0.0001650543686002493,-0.02718244156120345
1761476359594161700,2.13616162109375,0.02091419321298599,0.007126271683350205,-0.021154979698918757
1761476359604194800,2.14619482421875,0.020637714359164238,0.007362491592019796,-0.024018753365892917
1761476359614228700,2.156228759765625,0.03682897070348263,0.0030178134512156246,-0.025320593212079256
1761476359624262000,2.166261962890625,0.044212651214003564,-0.006190452137961983,-0.013742219224385916
1761476359634294800,2.176294677734375,0.032574820390343665,-0.0157741269107908,-0.0000013334405608475208
1761476359644328000,2.186327880859375,0.031231589087843892,-0.0008884732723236083,0.018169552413653582
1761476359654361600,2.196361572265625,0.0013023147702217101,0.0027470336858183143,0.020553031750395894
1761476359664394800,2.206394775390625,-0.014881342789530754,-0.0015719985570758581,0.030333982660993932
1761476359674427600,2.216427734375,0.010687982752919196,-0.0029381723437458276,0.02107203238951042
1761476359684460800,2.226460693359375,0.03505202415883541,-0.013506108913570642,0.018160254862345755
1761476359694494700,2.23649462890625,0.05269581739902496,-0.0166902188424021,-0.0019117519054561852
1761476359704528000,2.24652783203125,0.04657002799510956,-0.01866802172139287,-0.0038085619701072574
1761476359714560800,2.256560791015625,0.04390928435325622,-0.018639453214034436,-0.0005053009073249995
1761476359724595000,2.266594970703125,0.036307577177882196,-0.020579554431140422,0.004654712204355746
1761476359734627800,2.2766279296875,0.02631517547369003,-0.027468802488222716,0.00915164003111422
1761476359744660700,2.28666064453125,0.012111878076195716,-0.026409868019819257,0.029894604863040148
1761476359754693600,2.296693603515625,0.005352466943860054,-0.01748202680721879,0.03374620225727558
1761476359764727800,2.306727783203125,-0.0038145898520946502,-0.008762567648291588,0.03633435558695346
1761476359774760700,2.3167607421875,0.0034749826341867445,-0.01421622994430363,0.03000363646177575
1761476359784793900,2.3267939453125,0.019154197803139685,-0.020347133914753793,0.013858904406614601
1761476359794826800,2.33682666015625,0.04323533061444759,-0.031077129178494214,0.008808744877576827
1761476359804861000,2.34686083984375,0.055956865021586415,-0.03670169106200337,0.0017593195564113556
1761476359814893800,2.356893798828125,0.05926818152666091,-0.04217091625332832,-0.0002803330450318754
1761476359824927000,2.366927001953125,0.04611994614005088,-0.02853957352489233,0.004424118318874389
1761476359834960000,2.3769599609375,0.026221651971340177,-0.014015008283779024,0.014981606559921055
1761476359844993800,2.386993896484375,0.0049731122374534606,-0.0021177228063344955,0.021093111710157243
1761476359855026700,2.397026611328125,-0.012702829706668852,-0.0035140725355595347,0.014314393089152872
1761476359865059800,2.407059814453125,0.007329904496669769,-0.01895122257694602,0.005866572212148457
1761476359875092700,2.4170927734375,0.033065818777680396,-0.023302184328064322,-0.004721420765016228
1761476359885127000,2.427126953125,0.05131985287070274,-0.01665222491957247,-0.003200184280797839
1761476359895159800,2.437159912109375,0.05221943205893039,-0.0028212679658085106,-0.003499112428445369
1761476359905193000,2.44719287109375,0.027960604593157766,0.011293912756815553,-0.010447652924712747
1761476359915225900,2.457225830078125,0.015661094990372656,0.004229965719953179,-0.002785539065301418
1761476359925259800,2.467259765625,-0.0030821839243173597,0.007952639504894613,0.0003688881113193929
1761476359935292700,2.477292724609375,0.006016483810544013,-0.0002874386392533779,-0.017408486646972594
1761476359945325800,2.487325927734375,0.03652852645218372,-0.011718787105381488,-0.03164901078231633
1761476359955358700,2.497358642578125,0.05629004249870777,-0.028525033542886373,-0.035350185121502724
1761476359965393000,2.507392822265625,0.06753449009060859,-0.02271094043664634,-0.03262697070268914
1761476359975425800,2.51742578125,0.03958206880390644,-0.01298478845320642,-0.026903423690423367
1761476359985459000,2.527458984375,0.014459902507066726,-0.007404650233313441,-0.00854872396821156
1761476359995492900,2.537492919921875,-0.0003542202651500702,-0.005173091788962483,-0.011456227179057895
1761476360005525800,2.54752587890625,0.003531681257486343,-0.005270195487886667,-0.008705028774775565
1761476360015558700,2.55755859375,0.018637480452656743,-0.011189648664742707,0.0032348172027617693
1761476360025591800,2.567591796875,0.034067104774713516,-0.022918226511776447,-0.004164426203072071
1761476360035626000,2.5776259765625,0.04932955583631992,-0.02386493277736008,0.0011673632789403199
1761476360045659000,2.587658935546875,0.04514963980317115,-0.021889248790219425,0.002221493708062917
1761476360055691800,2.59769189453125,0.039321956562995905,-0.014966975246369838,0.00457622187435627
1761476360065725000,2.607724853515625,0.009102174866199493,-0.00949694633744657,0.013363741300813853
1761476360075758800,2.6177587890625,0.0005716624081134796,-0.014382380291447042,0.0098934348417446
1761476360085791700,2.627791748046875,0.021529694762825964,-0.02015314571261406,0.006726732705440372
1761476360095824600,2.63782470703125,0.031097733575105667,-0.019303250885009764,0.012895338337775319
1761476360105857800,2.64785791015625,0.0340764571249485,-0.02396335165053606,0.012371442327834666
1761476360115892000,2.65789208984375,0.025973814690113065,-0.022627938328310847,0.008307827884424477
1761476360125924900,2.6679248046875,0.02416939561665058,-0.015878683263808487,0.008828600355517118
1761476360135957800,2.677957763671875,0.028801147070527076,-0.014809738858044147,0.011565532772429287
1761476360145991000,2.687990966796875,0.035846973928809166,-0.012737462628632783,0.006235624720249325
1761476360156024800,2.69802490234375,0.027629180681705473,-0.00770107589662075,-0.002892122978623956
1761476360166057700,2.7080576171875,0.041406946143507956,-0.019597119265049694,-0.005025189484562724
1761476360176090600,2.718090576171875,0.037078561550378794,-0.010840835227072238,-0.005511767425108701
1761476360186124800,2.728124755859375,0.028116671937704084,-0.01002520799525082,0.0004069003004580736
1761476360196158000,2.738157958984375,0.03290741334557533,-0.005936404311656951,0.007444178526103496
1761476360206190800,2.74819091796875,0.01628477984666824,-0.007399900992959737,0.01287840546928346
1761476360216223700,2.7582236328125,0.01745557719171047,-0.01572005863599479,0.013199636780284345
1761476360226258000,2.7682578125,0.016842413729429243,-0.005027838099375367,0.020158205480221656
1761476360236290800,2.778290771484375,0.011608604729175567,-0.012979162430018185,0.014281385868694632
1761476360246323700,2.78832373046875,0.009666823011636733,-0.017792334865406153,0.021766718389093876
1761476360256356600,2.798356689453125,0.01234042613506317,-0.020176161262020466,0.034717641105316575
1761476360266390800,2.808390869140625,0.02171732628941536,-0.023256080164015293,0.026812603601813315
1761476360276424000,2.818423828125,0.01133095683157444,-0.024530849340185523,0.023518841019738463
1761476360286456800,2.828456787109375,0.011294131952524185,-0.02314034482985735,0.003804945240914821
1761476360296489700,2.83848974609375,0.028193244305253027,-0.028532997653633353,-0.016271975164022297
1761476360306524000,2.84852392578125,0.04481470876038074,-0.035019144802540536,-0.029073132412321862
1761476360316557000,2.85855712890625,0.051420390635728834,-0.032752953436225654,-0.03500107942288741
1761476360326589700,2.868589599609375,0.07434650819301605,-0.025766601680219173,-0.034419388811104
1761476360336623900,2.878623779296875,0.06106675538122654,-0.012792992208153008,-0.028401809022016822
1761476360346656800,2.88865673828125,0.039703064835071564,-0.0014564824186265467,-0.030516353490576145
1761476360356690000,2.89868994140625,0.01579553502500057,0.004082520073279738,-0.021856826091650874
1761476360366722800,2.908722900390625,0.006987959191203117,-0.0016750205401331185,-0.0015781725695356726
1761476360376757000,2.918757080078125,0.014467501291632651,-0.0037660745352506636,0.006640095601603388
1761476360386790000,2.928789794921875,0.026576456758379934,-0.003846007903665304,0.006067209350783378
1761476360396823000,2.938822998046875,0.044370472124218935,-0.007256985390931368,-0.0005536518273875118
1761476360406856000,2.94885595703125,0.043029578909277916,-0.005701207316294312,0.0038410942665301263
1761476360416889900,2.958889892578125,0.04826864860653877,-0.018165259831026195,-0.002419445699267089
1761476360426922800,2.9689228515625,0.046328620454669,-0.027416341648623346,-0.006087758948467671
1761476360436956000,2.978955810546875,0.035247254469990726,-0.0156269735250622,-0.012210351748298853
1761476360446988800,2.98898876953125,0.023712299498915672,-0.006537365879490971,-0.01959121924722567
1761476360457023000,2.99902294921875,0.01591886914372444,-0.006691387397423386,-0.012624540306068957
1761476360467055900,3.009055908203125,0.02593406720161438,-0.013545125749707222,-0.006225596516579389
1761476360477089000,3.019089111328125,0.032521628898382185,-0.01039360291622579,-0.0125434926928021
1761476360487122700,3.029122802734375,0.04555938964784145,-0.016365078541263938,-0.004739504410978406
1761476360497155800,3.03915576171875,0.0500666379392147,-0.028811814595013856,0.005634480489324778
1761476360507188700,3.049188720703125,0.032875849163532256,-0.03239595669209957,0.016349259917624294
1761476360517222000,3.059221923828125,0.01013268695771694,-0.03114851391427219,0.007935816234257072
1761476360527256800,3.0692568359375,-0.008726911813020705,-0.028969854700937867,0.018196257757488638
1761476360537289700,3.079289794921875,-0.004857961425185203,-0.034385961465537546,0.019324165808875114
1761476360547322600,3.089322509765625,0.01277004972398281,-0.03677095690593123,0.01698503707051277
1761476360557355500,3.09935546875,0.027115970462560653,-0.038976211865246295,0.019146946078445762
1761476360567389700,3.1093896484375,0.05300152234733104,-0.026115268987417218,0.01636206460027024
1761476360577422600,3.119422607421875,0.04147299711704254,-0.023737214744463563,0.012022647156473248
1761476360587455500,3.12945556640625,0.04266892890334129,-0.007594327586516738,0.01225293051470071
1761476360597489700,3.13948974609375,0.01694587410390377,-0.00501483248732984,0.01604024876737967
1761476360607522800,3.149522705078125,0.02383914074897766,-0.01731068882830441,0.0035388599169440564
1761476360617555700,3.1595556640625,0.021468319964408872,-0.018742329066619275,0.006212481306679546
1761476360627588600,3.169588623046875,0.024310265392065048,-0.02135455739162862,0.012277991890721021
1761476360637622500,3.17962255859375,0.029222587352991103,-0.023124197412654757,0.017854239386785774
1761476360647655700,3.18965576171875,0.018117255970835685,-0.009153174401074647,0.011839289946202189
1761476360657688600,3.1996884765625,0.005514379507303237,0.002334653492644429,0.0036976672078482807
1761476360667721500,3.209721435546875,0.013410685715079307,0.00906454626955092,-0.006441814816836268
1761476360677755600,3.219755615234375,0.025955109989643094,0.005302051930874586,-0.004969605106115341
1761476360687788800,3.229788818359375,0.04913607909083366,-0.0035133418831974268,-0.013793565819133073
1761476360697821700,3.23982177734375,0.05409224019348621,-0.008934417083859444,-0.02152067120615393
1761476360707855600,3.249855712890625,0.04695464339852333,-0.015181713975593447,-0.02137837665863335
1761476360717888500,3.259888427734375,0.04280044632852077,-0.03170651312321424,-0.027094397951569406
1761476360727921700,3.269921630859375,0.028903438401222226,-0.03246332283988595,-0.014598744722176342
1761476360737954600,3.27995458984375,0.005706687209010124,-0.024549188714474438,-0.008502291010599582
1761476360747988700,3.28998876953125,-0.0009095160603523254,-0.007863792177662253,-0.003845934838429093
1761476360758021600,3.300021728515625,0.0038368016839027404,-0.005448401599004864,0.00791325734257698
1761476360768054800,3.3100546875,0.01547580155134201,-0.0036580841161310673,0.00391288086110726
1761476360778087700,3.320087646484375,0.03282791836857796,-0.007767492196336388,0.00022964403741061685
1761476360788121600,3.33012158203125,0.05857260047793388,-0.018773162596300245,-0.011861702707409858
1761476360798154500,3.340154541015625,0.06070435180962085,-0.031424335180968044,-0.015468184500467032
1761476360808187600,3.350187744140625,0.06150456227660179,-0.03619140345230698,-0.011449870503507554
1761476360818221600,3.3602216796875,0.03326221813261509,-0.03325125834718346,-0.004449271026439964
1761476360828254700,3.370254638671875,-0.003395487657189369,-0.020102949895337223,0.01709850738234818
1761476360838287600,3.38028759765625,-0.022729133680462837,-0.00705035690292716,0.017744422336760907
1761476360848320800,3.39032080078125,-0.01348550451695919,-0.018025047642737626,0.012885164003632961
1761476360858354700,3.400354736328125,0.014020342046022415,-0.00572319995239377,0.00546045736297965
1761476360868387600,3.4103876953125,0.04917582657933235,-0.00967354501336813,-0.002774378350470215
1761476360878420500,3.42042041015625,0.05846329488456249,-0.027063874949142336,-0.005730926601123064
1761476360888454700,3.43045458984375,0.05743804349005222,-0.016981822200119494,-0.009177249396406113
1761476360898487600,3.440487548828125,0.02963525980710983,-0.00645648266300559,-0.0069152044822461895
1761476360908520700,3.450520751953125,0.010336100575327873,-0.003882321326062083,-0.0041983650052919985
1761476360918553600,3.4605537109375,-0.00418926838338375,-0.014568258252367376,0.003930507849343121
1761476360928587800,3.470587890625,0.0038712884753942488,-0.014358049567788838,0.0033606355395168065
1761476360938620700,3.48062060546875,0.02032207253873348,-0.019571254171431064,-0.001802501111011952
1761476360948653800,3.49065380859375,0.041862288695573804,-0.017354747165739537,-0.005972370674181729
1761476360958686500,3.5006865234375,0.04933598557710647,-0.016023133235797286,-0.006793313401937485
1761476360968720600,3.510720703125,0.054578562405705446,-0.006329422217234969,-0.002167060107085854
1761476360978753500,3.52075341796875,0.04125964662730693,-0.009453472521901131,-0.0016067776095122098
1761476360988786700,3.53078662109375,0.02884673977792263,-0.0033425153609365223,-0.00796294170320034
1761476360998820600,3.540820556640625,0.024365210449695585,-0.010565379286557436,-0.0019748072043061257
1761476361008853800,3.550853759765625,0.030218612653017042,-0.022846111123636364,0.006873429433442652
1761476361018886700,3.56088671875,0.030821839243173596,-0.010197568887472152,0.005247143405862152
1761476361028919800,3.570919921875,0.037564883762598034,-0.01790317482873797,0.008870539801102131
1761476361038953500,3.580953369140625,0.033984687188267707,-0.019460633403807878,0.015110292707197368
1761476361048986600,3.590986572265625,0.02006897456049919,-0.012705094728991388,0.025139738486148415
1761476361059019500,3.60101953125,0.0046510406762361525,-0.01013078726157546,0.03532442962573841
1761476361069052700,3.611052734375,-0.004495557853579521,-0.010923033617809413,0.039144937761966134
1761476361079086600,3.621086669921875,-0.007234042906761169,-0.0271203543767333,0.045197241804562506
1761476361089119700,3.63111962890625,-0.0024959084689617156,-0.036342575426027174,0.03664528469964862
1761476361099152600,3.641152587890625,0.027074469408392903,-0.04569127239920199,0.01824387802518904
1761476361109186600,3.6511865234375,0.04095686428844929,-0.04335055449195206,0.00333230449417606
1761476361119219500,3.661219482421875,0.041398178315162654,-0.02522036597430706,-0.006602740999590605
1761476361129252600,3.671252685546875,0.04693535417616367,-0.03273651375807821,-0.020985176089964804
1761476361139285500,3.681285400390625,0.045318566629290576,-0.02175641619078815,-0.027318123704846948
1761476361149319700,3.691319580078125,0.04248948068320751,-0.010672712118551135,-0.024464177312143145
1761476361159352600,3.7013525390625,0.033980011013150214,-0.013376564249768852,-0.030871030413452533
1761476361169385700,3.7113857421875,0.04554945277571678,-0.020871084723621605,-0.029497294374834743
1761476361179419400,3.72141943359375,0.05262625929415226,-0.013017960070446134,-0.022287143800314515
1761476361189452500,3.73145263671875,0.03350362567305565,-0.019512509721517562,-0.019203279375564306
1761476361199485400,3.7414853515625,0.02259703173339367,0.007456672681495547,-0.004613412079587579
1761476361209518600,3.7515185546875,0.009727613288164138,0.008158025883883237,0.009143858583457768
1761476361219552500,3.761552490234375,0.0002758943319320679,0.01306749830059707,0.018771226367540656
1761476361229585700,3.771585693359375,0.0035386955201625824,0.012158274501189588,0.01606697237752378
1761476361239618600,3.78161865234375,0.027771804022789,-0.0016816694766283035,0.0024972601758316156
1761476361249651700,3.791651611328125,0.05021802910864353,-0.002441547933220863,-0.012700053227692841
1761476361259685600,3.801685546875,0.06115384914278984,-0.014096841348335146,-0.028703385784476995
1761476361269718500,3.811718505859375,0.05697510215342044,-0.014802213138714432,-0.026644791020546107
1761476361279751400,3.82175146484375,0.028396657922863958,-0.006279007204249501,-0.019916633542999624
1761476361289785600,3.83178564453125,0.02106850699186325,-0.013871873486042022,-0.015549633972533046
1761476361299818500,3.841818603515625,0.01030219830572605,-0.014292436985671519,-0.013021101875603198
1761476361309851600,3.8518515625,0.011672902137041091,-0.016448080649599434,-0.004278919428214431
1761476361319884500,3.861884521484375,0.03848433669507503,-0.02366714518293738,0.007577924440987408
1761476361329918700,3.871918701171875,0.04582943876087665,-0.026924466478452085,0.009233710557688027
1761476361339951600,3.88195166015625,0.024888357540965078,-0.024942937272414565,0.01726736114323139
1761476361349984800,3.89198486328125,0.00931494083404541,-0.024640154933556913,0.025546273460425435
1761476361360018700,3.902018798828125,-0.004167056551575661,-0.02784012001864612,0.026148276207875458
1761476361370051600,3.912051513671875,0.0008902268379926681,-0.0319249781794846,0.02843353760084137
1761476361380084500,3.92208447265625,0.030644144588708875,-0.03837152397036552,0.024928561687190084
1761476361390117600,3.93211767578125,0.04110299476087093,-0.03420855907201767,0.01764123595692217
1761476361400151800,3.94215185546875,0.0518704724907875,-0.034373540375381706,0.017024108705576507
1761476361410184700,3.952184814453125,0.04243453562557697,-0.032370968381315465,0.012601981414388865
1761476361420217600,3.962217529296875,0.030147885504364966,-0.020158041083440183,0.018785802882164717
1761476361430250800,3.972250732421875,0.022205986589193344,-0.013813202101364731,0.010647997802402824
1761476361440284700,3.98228466796875,0.010363573104143143,-0.008586553494259715,0.010258541827090083
1761476361450317600,3.992317626953125,0.01319791974723339,-0.00349587929174304,0.012247048763185739
1761476361460350500,4.0023505859375,0.02021978120803833,-0.011573825676739214,0.011521036043576896
1761476361470384600,4.012384521484375,0.025746435675024985,-0.020840981846302748,0.004605338370986283
1761476361480415500,4.02241552734375,0.03277297331094742,-0.029450843150913713,0.000325487361010164
1761476361490448600,4.03244873046875,0.03607493746578693,-0.02677051802575588,-0.0073286989202722905
1761476361500481500,4.0424814453125,0.0386164386421442,-0.019891937493160365,-0.017215685754921287
1761476361510514700,4.0525146484375,0.026178981873393056,0.005801160559430718,-0.009266023658402263
1761476361520548600,4.062548583984375,0.016417466315627096,0.018598463616520164,0.004671736404392868
1761476361530581200,4.072581298828125,0.006656535279750824,0.020360285657271743,0.006480831652972847
1761476361540614100,4.0826142578125,0.009461655828356742,0.005312061868235469,0.005256404424551874
1761476361550647000,4.09264697265625,0.03473170616328716,-0.01030665528513491,-0.0014027246710844336
1761476361560681200,4.10268115234375,0.05344166733026504,-0.02507043610960245,-0.02037458817726001
1761476361570714000,4.112714111328125,0.05915244619250297,-0.032203648990392686,-0.024392390717566013
1761476361580747000,4.1227470703125,0.052150458475947375,-0.03762910810522735,-0.018350553270056844
1761476361590781200,4.13278125,0.024915245547890662,-0.006918693347275256,0.00127476917617023
1761476361600814000,4.14281396484375,-0.0009895955592393875,-0.0008075169906020164,0.012475213229563086
1761476361610847200,4.15284716796875,-0.019269933137297628,0.004971650932729244,0.0177008206570521
1761476361620880100,4.162880126953125,-0.00402852486371994,-0.013540887966006993,0.01224286577841267
1761476361630914300,4.172914306640625,0.030070728614926337,-0.017580226484686136,-0.007343037972878664
1761476361640947200,4.182947265625,0.053124856466054915,-0.02643478326536715,-0.011595069394167512
1761476361650980400,4.19298046875,0.06585457417964935,-0.03654715808741748,-0.009875424261018633
1761476361661014000,4.203013916015625,0.06529284864366054,-0.03878134688027203,-0.005937573355436325
1761476361671047200,4.213047119140625,0.030908348482847212,-0.025664237284287808,-0.0037837745887227352
1761476361681080000,4.223080078125,0.004138414978981018,-0.01707381133250892,-0.001255699149519205
1761476361691113200,4.23311328125,-0.013369184660911559,-0.005476166388764977,0.01478403816120699
1761476361701147100,4.243147216796875,-0.016854688689112662,-0.007735051231458782,0.02240344539005309
1761476361711180300,4.25318017578125,0.0038970074385404584,-0.005037336580082774,0.021388149133976547
1761476361721213200,4.263213134765625,0.029881928044557568,-0.007246902388334274,0.016063282583095133
1761476361731246300,4.273246337890625,0.047049335944652555,-0.013796835488453507,0.007095584284141659
1761476361741280000,4.283280029296875,0.05303659366071224,-0.017380319998413322,-0.00883272854136303
1761476361751313200,4.293313232421875,0.04825286651551723,-0.01729132654070854,-0.014886840948555618
1761476361761346000,4.303345947265625,0.03779635443091392,-0.01419474876485765,-0.02165449018627405
1761476361771380200,4.313380126953125,0.02119008754491806,-0.014566577751934527,-0.01719093490615487
1761476361781413000,4.3234130859375,0.01175882685482502,-0.009380772611871362,0.0013682926785200833
1761476361791446300,4.3334462890625,0.011295885518193244,-0.0034819238316267727,0.004801171470340341
1761476361801479200,4.343479248046875,0.005882628297805786,0.0053492520734667775,0.010039930640347302
1761476361811513000,4.35351318359375,0.01797054097652435,-0.004894786304235458,0.01577325012795627
1761476361821546000,4.3635458984375,0.036195348975062366,-0.010349690709263086,0.00986729575349018
1761476361831579100,4.3735791015625,0.04441898744106292,0.0006972615491598844,0.009384425873681903
1761476361841613000,4.383613037109375,0.05848667576014995,-0.018633242668956516,-0.008492920394055544
1761476361851646200,4.393646240234375,0.05926233630776405,-0.010329451638832688,-0.014803363916184753
1761476361861679000,4.40367919921875,0.051968087646365166,-0.021698475458472966,-0.009100640496239066
1761476361871712300,4.413712158203125,0.016385902133584023,-0.01729044975787401,-0.004167549741920083
1761476361881746200,4.42374609375,0.005924129351973533,-0.02102780965529382,0.0027488420504145324
1761476361891779000,4.433779052734375,0.010109890604019164,-0.024334815311431883,0.008589001179672777
1761476361901812000,4.44381201171875,0.014890695139765738,-0.022094635169208048,0.007312935095559805
1761476361911845000,4.45384521484375,0.025808394995331763,-0.020732260774821043,0.02222575073558837
1761476361921879000,4.463879150390625,0.017570143482089042,-0.021236849296092986,0.023806754583027213
1761476361931912200,4.473912109375,0.01756488278508186,-0.012315218628570436,0.03420432128831744
1761476361941945000,4.483945068359375,-0.008933832561969756,-0.008833440927416086,0.03049658934418112
1761476361951979300,4.493979248046875,-0.007929039433598517,-0.02379668984673917,0.0336356545548886
1761476361962012200,4.50401220703125,0.013575520887970923,-0.028363632436096665,0.030046288293413815
1761476361972045000,4.514045166015625,0.046156771019101143,-0.03448123853355646,0.007327584675420076
1761476361982078000,4.524077880859375,0.04360416392683983,-0.0343863267917186,-0.011716394218895584
1761476361992112000,4.534112060546875,0.04046878851056099,-0.030080592421814798,-0.027797979643661527
1761476362002145000,4.54414501953125,0.04168167143166065,-0.03383307682313025,-0.022726941723376512
1761476362012178200,4.55417822265625,0.018650924456119537,-0.02923997687920928,-0.02692300517372787
1761476362022212000,4.564212158203125,0.013255202892422675,-0.014574176536500453,-0.022397198312357067
1761476362032245200,4.574245361328125,0.022823241704702377,0.009282865195348858,-0.013132234099879861
1761476362042278100,4.584278076171875,0.03045885114967823,0.008869827415049075,-0.017106855085585265
1761476362052311300,4.594311279296875,0.047672436279058455,0.005256166962534189,-0.019122743218950924
1761476362062345000,4.604344970703125,0.05234744235277176,-0.012451046902686357,-0.019239720662124454
1761476362072380200,4.614380126953125,0.05716156463623046,-0.014207681311666965,-0.017668745018355546
1761476362082414000,4.6244140625,0.04312310241162777,-0.007104132916778326,-0.004519687647838146
1761476362092447000,4.634447021484375,0.013059972581267357,-0.000032733225822448726,0.008781144484598189
1761476362102480100,4.644480224609375,0.0024257658421993253,0.004722936868667602,0.030602424338832496
1761476362112513000,4.654512939453125,-0.023956045126914977,-0.0016361498344689607,0.02546774659780785
1761476362122547200,4.664547119140625,-0.0018652093499898909,0.0040312282774597405,0.01797342705335468
1761476362132580000,4.674580078125,0.025482816302776334,-0.0024164865572005507,0.0017510814510285854
1761476362142613200,4.68461328125,0.05959200665354728,-0.001901084380969405,-0.015178133779019116
1761476362152646100,4.694646240234375,0.0795247876137495,-0.007465294379368424,-0.026695699223875997
1761476362162680000,4.70468017578125,0.07373509829640389,-0.012848083396255969,-0.02565356975980103
1761476362172713000,4.714712890625,0.04028232602775097,-0.016929507490992545,-0.009403221905697137
1761476362182746000,4.72474609375,0.009181669843196868,-0.023629078194871544,0.005239964746404439
1761476362192780000,4.734780029296875,-0.02344926464855671,-0.02735891237296164,0.025146131694316863
1761476362202813200,4.744813232421875,-0.010911270114779471,-0.03037643356323242,0.02918382624518126
1761476362212846000,4.75484619140625,0.0010229133069515229,-0.022254136579856275,0.02736784459808841
1761476362222879200,4.764879150390625,0.012066285368800162,-0.03891052621789277,0.023595888311322775
1761476362232913000,4.774912841796875,0.04121814557313919,-0.0336808819361031,0.01954113302780315
1761476362242946000,4.784946044921875,0.041803836506605144,-0.03996551516354084,0.0061647879737429315
1761476362252979000,4.79497900390625,0.050639469391107556,-0.04017959630563855,0.0014736892817541955
1761476362263013000,4.80501318359375,0.04647241283953189,-0.039831221259385347,-0.004363949096854776
1761476362273046000,4.8150458984375,0.032742578172683716,-0.02927037201747298,-0.003053487552795559
1761476362283079200,4.8250791015625,0.037864743492007254,-0.021547449615225193,-0.0011512341280467808
1761476362293112000,4.835112060546875,0.023501287096738814,-0.00728913409486413,0.01507277370840311
1761476362303146200,4.845146240234375,0.0035749358773231503,-0.0021192571762949225,0.02527642527678981
1761476362313179100,4.85517919921875,0.005348375290632247,-0.0070752721484750505,0.0198303982979618
1761476362323212000,4.8652119140625,0.012066285368800162,0.006384732601046562,0.027705405989382415
1761476362333245000,4.875244873046875,0.027163316735625265,-0.004239025809243321,0.01512285992782563
1761476362343279000,4.885279052734375,0.034189854371547694,-0.006689195440337061,-0.00013193755028769374
1761476362353312000,4.89531201171875,0.04047346468567848,0.0032053719125688072,0.0007558050696738063
1761476362363345200,4.90534521484375,0.038814007040858266,0.0014496142864227294,-0.0078033489610068495
1761476362373379300,4.91537939453125,0.021297639572620392,0.005176014398410916,-0.010511694604251533
1761476362383412200,4.925412109375,0.02338730532824993,0.0031013270162045955,-0.01311948421616107
1761476362393445000,4.935445068359375,0.017088497444987295,-0.01057743505053222,-0.013932590697333215
1761476362403478300,4.945478271484375,0.026065000104904174,-0.017461349345371125,-0.021041728582791984
1761476362413512200,4.95551220703125,0.03267126650214195,-0.027416122452914714,-0.026616934899240732
1761476362423545000,4.965545166015625,0.050958033820986744,-0.03470072650313377,-0.038591285934578626
1761476362433578000,4.975577880859375,0.052797524207830425,-0.03753974932134151,-0.0238053298109211
1761476362443612200,4.985612060546875,0.04206979396641254,-0.02984035392515361,-0.01335157593898475
1761476362453645300,4.995645263671875,0.014103344154357909,-0.006398834191635251,0.0026020905234850943
1761476362463678200,5.00567822265625,-0.0034054245293140407,-0.009325681423768401,0.01911324473824352
1761476362473711000,5.015711181640625,-0.005206336471438407,-0.00977919734492898,0.019115217499621213
1761476362483745000,5.0257451171875,0.012751929545402526,-0.023452479518949985,0.015834241333883253
1761476362493778200,5.035778076171875,0.03294599179029464,-0.03269778918288648,0.020401823244057593
1761476362503811000,5.04581103515625,0.05210252768099308,-0.024880101169273257,0.019623240086995064
1761476362513844000,5.055843994140625,0.05675941357612609,-0.017126710563525556,0.019123492137622086
1761476362523878100,5.065878173828125,0.03745616269111633,-0.00909311477690935,0.02041771493293345
1761476362533911600,5.07591162109375,0.009456395131349563,-0.01213080197237432,0.01894473803723231
1761476362543944400,5.0859443359375,-0.008360416588187217,-0.0066281129028648135,0.020722086440678685
1761476362553978400,5.095978271484375,0.00030979660153388974,-0.030085780053585767,0.0069634823370724915
1761476362564011300,5.10601123046875,0.028152327772974967,-0.018976503148674963,-0.0038690599856898186
1761476362574044400,5.11604443359375,0.049267596516013146,-0.022571897292137145,-0.009578596738912164
1761476362584077300,5.126077392578125,0.05676525879502296,-0.008740721142664552,-0.004354432349838316
1761476362594111500,5.136111572265625,0.03491524603664875,0.009944909300655126,0.009470204460993408
1761476362604144400,5.146144287109375,-0.002211246308684349,0.010325286920368671,0.01594486210150644
1761476362614177500,5.156177490234375,-0.01614800172448158,-0.006035846098139882,0.01221754867406562
1761476362624210400,5.16621044921875,-0.0010498013138771057,-0.016465835501998663,-0.00245988730750978
1761476362634244400,5.176244384765625,0.039057752668857575,-0.018385113126784564,-0.01594250574763864
1761476362644277200,5.18627734375,0.06735913352370261,-0.02031914992928505,-0.019944526196923107
1761476362654310400,5.196310302734375,0.07788345014750957,-0.024177871184051035,-0.02138749154685065
1761476362664344300,5.20634423828125,0.053091538718342775,-0.004886456867307425,-0.009596132395602763
1761476362674377500,5.21637744140625,0.02543079385459423,-0.0007917348995804786,0.005513502724468708
1761476362684410400,5.226410400390625,-0.008826280534267424,-0.0012909165933728218,0.02237250226251781
1761476362694443500,5.236443603515625,-0.025319150173664092,-0.011803177453204989,0.03601197349848226
1761476362704477200,5.246477294921875,-0.016684592819213865,-0.026009105199202895,0.0412350967079401
1761476362714510300,5.25651025390625,0.0006494038194417953,-0.0245421744517982,0.03992717418083921
1761476362724543200,5.266543212890625,0.01514730024933815,-0.021865940979868173,0.02766089099422097
1761476362734576400,5.276576416015625,0.03428630048334598,-0.02689991655908525,0.02435638782242313
1761476362744610300,5.2866103515625,0.05640343974530697,-0.03422894427292049,0.017591222802735864
1761476362754643500,5.2966435546875,0.03528700195848942,-0.03460596089176833,0.012543967616837471
1761476362764676400,5.30667626953125,0.012069792500138283,-0.02744162222035229,0.010621219393331558
1761476362774710500,5.31671044921875,0.009811784440279006,-0.03420234852693975,-0.003259842046163976
1761476362784743400,5.326743408203125,0.014453472766280173,-0.03110533235967159,-0.008556560214795172
1761476362794776300,5.3367763671875,0.027182021436095237,-0.024772768337279556,-0.010054598486516624
1761476362804809200,5.346809326171875,0.05248363595306873,-0.02894720447771251,-0.014881068794894963
1761476362814843400,5.356843505859375,0.052940147548913956,-0.023854411383345722,-0.01274493354903534
1761476362824876300,5.366876220703125,0.026631401816010473,0.0006979191362857818,-0.005366258007194847
1761476362834909400,5.376909423828125,0.011836568266153334,-0.005270341618359088,0.008886084430105985
1761476362844943400,5.386943359375,-0.0007329904496669769,-0.0170817754432559,0.005806001131329685
1761476362854976500,5.3969765625,0.004790741407871246,-0.009437909626588225,0.00805063825296238
1761476362865009400,5.407009521484375,0.019876082336902617,-0.006403656497225165,0.01454087705509737
1761476362875042600,5.41704248046875,0.028220716834068297,0.014007920955866575,0.005933993158861994
1761476362885076200,5.427076171875,0.03282441123723984,0.018258344941958785,0.003851907921489328
1761476362895109400,5.437109375,0.03892506619989872,0.0174706286303699,-0.018973050816264003
1761476362905142300,5.447142333984375,0.04984335057735443,0.03139730104357004,-0.023740283484384415
1761476362915175400,5.457175537109375,0.061682256931066506,0.023273250494524837,-0.037577231787517665
1761476362925209300,5.467209228515625,0.06142156016826629,0.015336173884943127,-0.046096382601372894
1761476362935242500,5.477242431640625,0.05399345599412918,0.01349266491010785,-0.03816686824373901
1761476362945275400,5.487275390625,0.04267418960034847,-0.004402765003591776,-0.021046587421000004
1761476362955309300,5.497309326171875,0.018026070556044577,-0.021725801856815812,-0.0103842140333727
1761476362965342200,5.50734228515625,0.007722703206539154,-0.029868776302039622,0.00030351299121975897
1761476362975375400,5.517375244140625,0.006221066471934318,-0.03908011063113809,0.015345745430886744
1761476362985408300,5.527408203125,0.0067991586208343505,-0.027551147009432314,0.013393040460534394
1761476362995442400,5.5374423828125,0.004079378268122673,-0.025010741811618206,0.008543408472277223
1761476363005475300,5.547475341796875,0.01137362692952156,-0.01737462090998888,0.01466583687532693
1761476363015508500,5.557508544921875,0.017186112600564955,-0.022665128533542155,0.013798424657341091
1761476363025541400,5.567541259765625,0.030041502520442007,-0.03078910601735115,0.00718172819763422
1761476363035575300,5.5775751953125,0.046210547032952305,-0.04414886526279151,-0.01033716002125293
1761476363045608200,5.587608154296875,0.04774842412471771,-0.04763042376823723,-0.014144205887708813
1761476363055641300,5.597641357421875,0.045264206093549725,-0.049615167844668025,-0.016537567297648638
1761476363065675300,5.60767529296875,0.029155951857566833,-0.042248365403711796,-0.002275854243803769
1761476363075708400,5.61770849609375,0.014828151297569274,-0.039918095825240016,0.00749888612171635
1761476363085741300,5.6277412109375,-0.003704699736833572,-0.028086276799440382,0.020537231393065302
1761476363095774500,5.6377744140625,0.007829670712351798,-0.028716756722703574,0.029147311893384903
1761476363105808400,5.647808349609375,0.019506664502620695,-0.01413446994498372,0.0315138035627082
1761476363115841300,5.65784130859375,0.02368131983876228,-0.01065364209190011,0.024278938672039656
1761476363125874200,5.667874267578125,0.023662030616402624,-0.007247559975460172,0.02313616184508428
1761476363135907300,5.6779072265625,0.026814357167482376,0.00036934476904571054,0.016983594032097607
1761476363145941200,5.687941162109375,0.03372223685979843,-0.012232654911652206,0.004131711243558675
1761476363155974400,5.697974365234375,0.03389467081725597,-0.014724325596913694,0.0020115042191930113
1761476363166007300,5.70800732421875,0.031366613644361496,-0.011324527090787887,0.004273695263825357
1761476363176041500,5.71804150390625,0.022395371681451795,-0.005129910234361886,0.003815320504456758
1761476363186074400,5.728074462890625,0.0035229134291410442,0.004611512383446097,0.017451430739555508
1761476363196107300,5.738107177734375,0.0021387655943632127,0.021142668206617234,0.017581432061083615
1761476363206140200,5.74814013671875,0.006139233407378196,0.02180091291964054,0.013897227123007177
1761476363216174300,5.75817431640625,0.021819033098220825,0.01814326719492674,-0.0038783940696157514
1761476363226207200,5.768207275390625,0.05189911406338214,0.0109971948325634,-0.018394903868436813
1761476363236240400,5.778240478515625,0.059097501134872436,-0.001866816785186529,-0.011787030036002398
1761476363246273300,5.788273193359375,0.050309214523434634,-0.01721153930276632,-0.017658132292795926
1761476363256307500,5.798307373046875,0.04228431349992752,-0.008594663735479116,-0.014721804846264421
1761476363266340400,5.80834033203125,0.036788638693094254,-0.01897182697355747,-0.0009483137007802725
1761476363276373500,5.81837353515625,0.01032265657186508,-0.010090528316423297,0.01534214696800336
1761476363286406400,5.828406494140625,-0.007188450199365615,-0.00636149785593152,0.025047530158050356
1761476363296440300,5.8384404296875,-0.010341945794224738,-0.017349632599204776,0.027917331707011907
1761476363306473200,5.84847314453125,0.010583353334665297,-0.03282777223810553,0.025959274708107112
1761476363316506400,5.85850634765625,0.02567863113582134,-0.03974164327979088,0.014705949690006673
1761476363326540500,5.86854052734375,0.030919454398751257,-0.03312624372802674,0.009652538757957518
1761476363336573400,5.878573486328125,0.03810615103244781,-0.011569660958275198,0.012823679607361554
1761476363346606300,5.8886064453125,0.03077157036066055,-0.002912380315363407,0.007450334272254258
1761476363356639500,5.898639404296875,0.009218494722247124,-0.004319105308130383,0.004504526611324399
1761476363366673400,5.90867333984375,0.0009662146836519241,-0.0004468669846653938,0.005242394165508449
1761476363376706300,5.918706298828125,-0.005502689069509506,-0.0055151832249015565,-0.008896404894720763
1761476363386739200,5.9287392578125,0.003610591712594032,-0.022495471055060622,-0.01733743070475757
1761476363396772400,5.9387724609375,0.050013446447253224,-0.03290916691124439,-0.030390918746311217
1761476363406806500,5.948806640625,0.06772913587987422,-0.03687894732505083,-0.04735420064274221
1761476363416839400,5.95883935546875,0.07632803739905357,-0.03222220756039023,-0.04085135808736086
1761476363426872300,5.968872314453125,0.048262803387641905,-0.031107597381994128,-0.03453132475297898
1761476363436906200,5.97890625,-0.005856324812769889,-0.020632453662157057,-0.008057360254693776
1761476363446939400,5.988939453125,-0.04070844248533249,-0.01407937875688076,0.00869629747904837
1761476363456972300,5.99897216796875,-0.0598614712446928,-0.012037351535260676,0.025427378054801372
1761476363467005400,6.00900537109375,-0.04733224453926086,-0.015790566588938234,0.03211984316445887
1761476363477039400,6.019039306640625,0.0018406594306230545,-0.025841347416862843,0.022130126607697455
1761476363487072500,6.029072509765625,0.03995324020385742,-0.04892324005775153,0.007528568873926997
1761476363497105400,6.03910546875,0.06359598159790039,-0.043134208327531814,-0.023459968705661593
1761476363507138600,6.049138671875,0.05569909086823463,-0.030264205360412594,-0.024461729626730083
1761476363517172200,6.059172119140625,0.043484336939454075,-0.035075916491076345,-0.02785396588090807
1761476363527205400,6.069205322265625,0.01360007080733776,-0.034115620091557504,-0.019050993156991897
1761476363537238300,6.07923828125,-0.008676642930507659,-0.01809818594418466,-0.015119608524814247
1761476363547271200,6.089271240234375,-0.006272504398226738,-0.011190452382341027,-0.000808722566999495
1761476363557305300,6.099305419921875,0.003924479967355728,-0.006874123553186655,0.0016639511568471788
1761476363567338200,6.109338134765625,0.0245867442458868,0.007174056347832083,-0.000902647928148508
1761476363577371400,6.119371337890625,0.025183541095256803,0.005720861864835024,0.007704637826886028
1761476363587405300,6.1294052734375,0.037171500530838966,-0.00022752514556050298,0.007136519082728773
1761476363597438200,6.139438232421875,0.03495440900325775,-0.005213277668878436,0.007530267640668898
1761476363607471000,6.14947119140625,0.013145897299051284,0.0014885580573230982,0.007830912821367383
1761476363617504300,6.159504150390625,0.027114801418781278,-0.013013356960564852,0.008305161003302782
1761476363627538200,6.1695380859375,0.014581483060121535,-0.012328443436324596,0.013607176401559262
1761476363637571300,6.1795712890625,0.017139350849390028,0.006249488848820328,0.020702870283555237
1761476363647604200,6.189604248046875,-0.0008534019589424133,0.0107575408577919,0.022661895396839826
1761476363657637400,6.199637451171875,-0.01421089618206024,0.009595876667276024,0.01563479150533676
1761476363667671300,6.20967138671875,0.0008902268379926681,-0.008760229560732842,0.01055507708825171
1761476363677704400,6.219704345703125,0.029471593677997586,-0.02093713569715619,0.008158701737318188
1761476363687737300,6.2297373046875,0.051036359754204744,-0.028555867072567343,0.005526690999604761
1761476363697770200,6.239770263671875,0.041328620210289956,-0.03095160310268402,0.005498076826473698
1761476363707804200,6.24980419921875,0.014102759632468223,-0.03928805429339409,0.013781318258913234
1761476363717837300,6.25983740234375,-0.011037526842951773,-0.03622150632962584,0.020073641602462156
1761476363727870200,6.2698701171875,-0.02946808654665947,-0.04099938825592398,0.024334988841367883
1761476363737903400,6.2799033203125,-0.020222119295597075,-0.03363748118579388,0.014584497001115231
1761476363747937300,6.289937255859375,0.005350128856301308,-0.0294791193973273,0.01506177739035338
1761476363757970400,6.299970458984375,0.024192191970348356,-0.028713541852310297,0.01068389109969139
1761476363768003300,6.31000341796875,0.04199088351130485,-0.023395269438996908,0.01309645040044561
1761476363778036500,6.320036376953125,0.026410452541708946,-0.021766133867204187,0.01819899770384654
1761476363788070100,6.330070068359375,0.022207155632972715,-0.021723317638784646,0.01696499892948195
1761476363798103300,6.340103271484375,0.012770634245872497,-0.03192673174515366,0.001182743511162698
1761476363808136200,6.35013623046875,0.010983750829100608,-0.03512538165599108,0.00014876082092523573
1761476363818169300,6.36016943359375,0.025215689799189565,-0.02814202557466924,-0.002819459601212293
1761476363828203300,6.370203369140625,0.032570728737115855,-0.018993819609656928,-0.0017935323532670736
1761476363838236400,6.380236328125,0.014169395127892493,-0.01512165435142815,0.003244333949778229
1761476363848269300,6.390269287109375,0.006375380250811576,0.0008409078035503625,0.005803169853426516
1761476363858302500,6.400302490234375,-0.015939327409863473,-0.009805135503783821,0.004249638534802943
1761476363868336000,6.410336181640625,-0.00953881271779537,-0.004404153243079781,-0.0011896116433665156
1761476363878369300,6.420369384765625,0.01633504872918129,-0.0003759206403046846,-0.008914981731027364
1761476363888402200,6.430402099609375,0.03533259466588497,0.001844166561961174,-0.024045276046637445
1761476363898435300,6.440435302734375,0.05269757096469402,-0.0033507717326283454,-0.030731238350272177
1761476363908469200,6.45046923828125,0.048829205098748205,0.013046382447332142,-0.025902046361844986
1761476363918502400,6.46050244140625,0.024305004695057867,-0.0008780249435454607,-0.020695856020879
1761476363928535300,6.470535400390625,0.006076689565181732,-0.004161430528387427,-0.02648674178146757
1761476363938568400,6.480568359375,0.0034007483541965483,-0.009696779758483171,-0.024668422046815974
1761476363948602000,6.49060205078125,0.013159925824403762,-0.013957213681936264,-0.015267720891768113
1761476363958635300,6.50063525390625,0.018707623079419134,-0.028859745389968154,-0.012259223258169367
1761476363968668200,6.510668212890625,0.02812953141927719,-0.02049662538804114,-0.007768177182925865
1761476363978701300,6.520701416015625,0.013908698365092276,-0.023951368951797485,0.0024555855917278674
1761476363988735200,6.5307353515625,0.014664485168457031,-0.03078384532034397,0.0020324648088309912
1761476363998768400,6.540768310546875,0.019634674796462057,-0.0287466404043138,0.012721141681494191
1761476364008801300,6.55080126953125,0.012466682863235472,-0.02988200110979378,0.0012555347527377306
1761476364018834400,6.56083447265625,0.013664368215203284,-0.01818257629200816,0.019765251506725326
1761476364028868000,6.5708681640625,0.0030178865164518353,-0.02304652906656265,0.024758548015682027
1761476364038901200,6.5809013671875,-0.0032931963264942166,-0.02632050923593342,0.03278112921793945
1761476364048934100,6.59093408203125,-0.007348609197139739,-0.03170088710002601,0.023347521307133138
1761476364058967300,6.60096728515625,0.018982932889461516,-0.031033728428184984,0.010863932974869385
1761476364069001200,6.611001220703125,0.0502758967757225,-0.02506232586838305,0.012220918808085844
1761476364079034400,6.621034423828125,0.05135492418408394,-0.01121924008540809,0.003613486922578886
1761476364089067300,6.6310673828125,0.022488310661911964,-0.007306377490609884,0.011973629516130313
1761476364099100400,6.641100341796875,-0.001900280663371086,-0.007949863025918602,0.013685292272223159
1761476364109134000,6.651134033203125,-0.016867548170685767,-0.008844400712847708,0.015314007718907669
1761476364119167200,6.661167236328125,-0.01717500668466091,-0.01094736434146762,0.013830171502474694
1761476364129200000,6.6712001953125,0.0012163900524377821,-0.01677365934215486,-0.0035752555377315727
1761476364139233300,6.6812333984375,0.032789924445748325,-0.017305647327005864,-0.0038057306922040877
1761476364149267200,6.69126708984375,0.04400806855261326,-0.014264672195911406,-0.00694237561696209
1761476364159300400,6.70130029296875,0.03129062579870224,-0.009079451577737927,0.0058859162334352726
1761476364169333200,6.711333251953125,-0.004311433458328247,0.0016329349640756845,0.014055322027858346
1761476364179366400,6.721366455078125,-0.021816695010662076,0.004712415474653244,0.02133109431765042
1761476364189399300,6.7313994140625,-0.03650397653281688,-0.005750014894083142,0.022713707782467826
1761476364199433200,6.74143310546875,-0.026389994275569914,-0.01153597788438201,0.027892416461464016
1761476364209466000,6.751466064453125,0.012765958070755003,-0.030848434989154336,0.019930662068352104
1761476364219499300,6.761499267578125,0.029181670820713042,-0.03321794059947133,0.005597527746111154
1761476364229532200,6.7715322265625,0.04352934512495994,-0.029995179160684345,-0.002454407414793968
1761476364239566300,6.78156640625,0.04398761028647422,-0.02809767497628927,-0.015147848238609731
1761476364249599200,6.79159912109375,0.023804069435596466,-0.032360958443954584,-0.024874018488358705
1761476364259632400,6.80163232421875,0.02068681419789791,-0.032826237868145106,-0.021945052364375443
1761476364269665300,6.811665283203125,0.015613164195418357,-0.02006992440856993,-0.014736618822906165
1761476364279699200,6.82169921875,0.009778466692566871,-0.008164601755142211,-0.006724467683117836
1761476364289732000,6.831732177734375,0.01547054085433483,-0.0015351006127893923,0.006304324308596551
1761476364299765200,6.84176513671875,0.020419103172421453,-0.010566402199864386,0.0021862397315911947
1761476364309798100,6.851798095703125,0.01324585054218769,-0.01247355099543929,-0.004378708274569362
1761476364319832300,6.861832275390625,0.03241115426123142,-0.008686945128813385,0.005405329642258584
1761476364329865200,6.871865234375,0.014757424148917198,0.00007620704136788844,0.013414978297706692
1761476364339898400,6.8818984375,0.013109656941890716,0.0018068302262574433,0.005429906961089
1761476364349931300,6.89193115234375,0.01774491552710533,-0.008326368188112974,0.01903495533764362
1761476364359964200,6.901964111328125,0.00201426243185997,-0.010860270579904317,0.004934533792734146
1761476364369998300,6.911998291015625,0.013807576078176497,-0.016397884832322598,-0.005330255112051963
1761476364380031200,6.92203125,0.030557050827145573,-0.019089681199565528,-0.02255620653266087
1761476364390064000,6.932064208984375,0.03938800753653049,-0.019491539998725056,-0.022765666298568247
1761476364400097000,6.942096923828125,0.05348199934065342,-0.007082140280678868,-0.02614970097998157
1761476364410131200,6.952131103515625,0.025821254476904868,0.0005924129351973533,-0.011968588014831767
1761476364420164400,6.962164306640625,0.01625263114273548,-0.003806771871820092,-0.00529938504975289
1761476364430197200,6.972197265625,-0.008285013264417648,-0.019389979320392013,0.01179946939246729
1761476364440230100,6.982230224609375,-0.015339607951045036,-0.021667641928792,0.014565381308691575
1761476364450263300,6.99226318359375,-0.007884615769982338,-0.03182064102217555,0.0014809044738300144
1761476364460297500,7.00229736328125,0.008874211329221724,-0.02531790806464851,0.006577606558334082
1761476364470330000,7.012330078125,0.02773205653429031,-0.014029329070076346,0.010360285168513655
1761476364480363000,7.022363037109375,0.027720950618386267,-0.009302300548180938,0.013190083500649779
1761476364490396200,7.032396240234375,0.0060106385916471475,-0.021113442112132907,0.023810060784965753
1761476364500430300,7.042430419921875,-0.0059796589314937585,-0.022265680887177584,0.021462986202165482
1761476364510463200,7.052463134765625,0.012866495835781097,-0.029889307633414863,0.012654058661498128
1761476364520496000,7.06249609375,0.028277999979257583,-0.027145854144170877,0.0037618550178594883
1761476364530529500,7.072529541015625,0.03337386181354522,-0.034997298296913504,0.0036326208813115953
1761476364540562400,7.0825625,0.027256255716085434,-0.021645137836039066,0.009267758957762271
1761476364550596400,7.092596435546875,0.02248012735545635,-0.010453151083737611,0.017290869882982222
1761476364560629200,7.102629150390625,0.001813186901807785,0.0038910891544073818,0.0330537264810875
1761476364570662400,7.112662353515625,-0.02918868508338928,-0.004883753453567624,0.035887689531687646
1761476364580695300,7.1226953125,-0.018308394628763196,-0.004333864485844969,0.027271033160109072
1761476364590729500,7.1327294921875,-0.0008346972584724426,-0.00380304554477334,0.023518841019738463
1761476364600762400,7.142762451171875,0.02218260571360588,-0.014746464363485574,0.00765509959673509
1761476364610795500,7.15279541015625,0.04236380847692489,-0.016545038218051193,-0.005559552089590579
1761476364620828400,7.162828369140625,0.048943771389126776,-0.015734744748473167,-0.011678436828684061
1761476364630861600,7.172861572265625,0.028589550146460533,-0.015983020421117544,-0.009213197492621839
1761476364640895500,7.1828955078125,0.011534370449185372,-0.0176258922573179,-0.011821717756893484
1761476364650928400,7.192928466796875,0.004216156390309334,-0.019434549114480615,-0.019888083301950243
1761476364660961300,7.202961181640625,0.012458499556779861,-0.016767156536132095,-0.012579915713053195
1761476364670994400,7.212994384765625,0.03431669562160969,-0.016970570153743026,-0.010455817964859306
1761476364681028400,7.2230283203125,0.024306758260726927,-0.010084829227998852,-0.003565638326015323
1761476364691061500,7.2330615234375,0.02235211706161499,-0.00997735026553273,0.001672572854720056
1761476364701094400,7.243094482421875,0.012926701590418815,-0.008429463236406445,0.007776881079189479
1761476364711127600,7.25312744140625,-0.0020481647014617918,-0.008768266736716032,0.013390373579412697
1761476364721160400,7.263160400390625,-0.001924246060848236,-0.013544102836400269,0.009309917599055915
1761476364731194600,7.273194580078125,0.013460954597592353,-0.018056173433363437,0.008593147631827742
1761476364741227300,7.283227294921875,0.022875848674774168,-0.02949862781539559,0.0016998079215176402
1761476364751260400,7.293260498046875,0.04203472265303135,-0.028270620390400288,-0.0038730420410633083
1761476364761293300,7.303293212890625,0.03650982175171375,-0.025261647832766174,-0.008253047223575413
1761476364771326500,7.313326416015625,0.03218903594315052,-0.026480668233707545,-0.01471572216534987
1761476364781360400,7.3233603515625,0.013508885392546653,-0.0020185732807964083,-0.0013057488363236189
1761476364791393500,7.3333935546875,0.00033200843334198,-0.004225874066725373,0.01519112112475559
1761476364801426400,7.343426513671875,-0.015696166303753853,-0.000778802352771163,0.013024517675396054
1761476364811459600,7.35345947265625,-0.01107084459066391,-0.010331132139265536,0.012122709997463971
1761476364821492500,7.363492431640625,0.024408465069532394,-0.018322277023643255,0.006777713974006474
1761476364831526400,7.3735263671875,0.04554126946926117,-0.015247107362002134,-0.0005590038559399545
1761476364841559300,7.383559326171875,0.035113398957252503,-0.02519216279312968,-0.01286651410209015
1761476364851592400,7.393592529296875,0.019257658177614212,-0.011598960117995738,0.010275492961890995
1761476364861625300,7.403625244140625,-0.015015198302268981,0.0033409079257398842,0.025914421786228194
1761476364871658500,7.413658447265625,-0.05558978527486324,0.0023746201768517494,0.03518065550718456
1761476364881692400,7.4236923828125,-0.0486029951274395,-0.0031491116806864738,0.0388581384435296
1761476364891725600,7.4337255859375,-0.0016664719074964522,-0.013700681637600064,0.024496673075947908
1761476364901758500,7.443758544921875,0.03616436931490898,-0.024963614734262226,0.00024915245547890664
1761476364911791600,7.45379150390625,0.06026829847991466,-0.02775485288798809,-0.014271887387987226
1761476364921824500,7.463824462890625,0.04174129266440868,-0.027413857430592176,-0.016314827925059942
1761476364931858400,7.4738583984375,0.03309270678460598,-0.03565861174985766,-0.01427961403671652
1761476364941891300,7.483891357421875,0.0048334115058183665,-0.025922084502875805,-0.01916941363858059
1761476364951924500,7.493924560546875,-0.014298574465513228,-0.02638977507986128,-0.021120529440045357
1761476364961957400,7.503957275390625,0.003525836038589477,-0.0188153943028301,-0.005308974862005562
1761476364971991600,7.513991455078125,0.0215063138872385,-0.007685513001307845,-0.0004813355098478496
1761476364982024400,7.5240244140625,0.031411037307977674,-0.0017886369824409484,0.006760598442424088
1761476364992057600,7.5340576171875,0.027536241701245308,0.008441884326562284,0.01799916428280994
1761476365002090500,7.544090576171875,0.013327099084854126,0.016043226175755262,0.03495413500862196
1761476365012123400,7.554123291015625,0.0004489128112792969,0.01918115887530148,0.038735808971803634
1761476365022156500,7.564156494140625,-0.014072949016094207,0.016503975555300712,0.029550431067869067
1761476365032190500,7.5741904296875,-0.006454875227808952,-0.008334770690277219,0.019589757942501455
1761476365042223400,7.584223388671875,0.019727613776922226,-0.017730302479863166,0.00038773894226178525
1761476365052256300,7.59425634765625,0.04876432316899299,-0.022049992309883235,-0.022832155663520096
1761476365062289400,7.604289306640625,0.0612035335034132,-0.019635843840241432,-0.024994795323815194
1761476365072322300,7.614322265625,0.03699497492015361,-0.003789820737019181,-0.020923600362148135
1761476365082356500,7.6243564453125,0.014589081844687461,-0.013291589380055665,-0.022421446837624533
1761476365092389400,7.634389404296875,-0.007238719081878662,-0.015432254670560358,-0.002836109341913834
1761476365102422500,7.644422607421875,-0.021147417446970938,-0.020393530339747667,0.008828280695108697
1761476365112455400,7.654455322265625,-0.00919160671532154,-0.01748494941666722,0.01700732196755707
1761476365122488600,7.664488525390625,0.01234744039773941,-0.024985022848471997,0.020333991305390372
1761476365132522200,7.674522216796875,0.022660744619369507,-0.02713715938106179,0.012146830658568069
1761476365142555400,7.684555419921875,0.014867314264178276,-0.03410626774132251,0.011921817130502313
1761476365152588300,7.69458837890625,0.0045341362982988355,-0.04282404639981687,-0.0009061185268685221
1761476365162621400,7.704621337890625,0.001995557731389999,-0.059431409264355896,-0.0008240662666037679
1761476365172654300,7.714654296875,0.017570728003978728,-0.05748356313221156,0.0007180668751709163
1761476365182688500,7.7246884765625,0.043318332722783084,-0.04007788949683309,0.0019470058819279074
1761476365192721400,7.734721435546875,0.031364860078692436,-0.030006577337533234,0.005198956882581114
1761476365202754600,7.744754638671875,0.018816928672790525,-0.013332578977569938,0.011020648773387074
1761476365212787500,7.754787353515625,-0.003915712139010429,0.0014819091208279132,0.015618753685988486
1761476365222820600,7.764820556640625,-0.013938508981466292,0.0032562253169715403,0.02850357976290397
1761476365232854300,7.774854248046875,-0.00032850130200386043,0.013213117316365241,0.031305083582317456
1761476365242887400,7.784887451171875,-0.0007885200291872024,0.01026566568762064,0.03590206511691212
1761476365252920300,7.79492041015625,-0.006499883413314819,0.004183203968778252,0.027959883073950184
1761476365262953500,7.804953369140625,0.013372691792249678,-0.013157295475900173,0.021636223877221344
1761476365272986400,7.814986328125,0.0119949736982584,-0.01927007926777005,0.00436198546863161
1761476365283019500,7.82501953125,0.023648586612939834,-0.02401595862060785,-0.009774119311012327
1761476365293053400,7.835053466796875,0.031442016968131065,-0.025035218665748833,-0.026640242709591984
1761476365303086600,7.845086669921875,0.03596680091619491,-0.022394714094325897,-0.03574806186528876
1761476365313119500,7.855119384765625,0.037361470144987106,-0.014564897251501679,-0.026937563422042874
1761476365323152600,7.865152587890625,0.030055531045794486,0.0020345745675265786,-0.01643344020289369
1761476365333185500,7.875185546875,0.007020692417025565,0.0007780717004090547,-0.004777388735953719
1761476365343219500,7.885219482421875,-0.0025508535265922547,-0.006282441270351409,0.000011215513758361339
1761476365353252400,7.89525244140625,0.005699088424444198,-0.027872634048759937,0.00484652671571821
1761476365363285500,7.905285400390625,0.013036591705679893,-0.03259586317837238,0.00989311518133618
1761476365373318400,7.915318359375,0.01843114422559738,-0.036980654133856296,0.0030144707166589796
1761476365383351600,7.9253515625,0.025173604223132133,-0.03956351023390889,0.0002844338314142078
1761476365393384400,7.935384521484375,0.02607961315214634,-0.020908347994089124,0.002779118457669392
1761476365403418600,7.945418701171875,0.011719663888216018,0.007657894342020154,0.00321092487052083
1761476365413451500,7.955451416015625,-0.0007107786178588867,0.012997282608598469,0.022536314522102474
1761476365423484700,7.965484619140625,-0.0025222119539976117,0.006298880948498844,0.019267056193621828
1761476365433517600,7.975517578125,0.012297171515226364,-0.015286270328611134,0.010800457550911233
1761476365443550500,7.985550537109375,0.016505729120969773,-0.034866073132678865,-0.002185362948756665
1761476365453584400,7.99558447265625,0.04138648787736893,-0.04759074934497475,-0.018111620814492926
1761476365463617500,8.005617431640625,0.05476034871339798,-0.03318213863372803,-0.010897816978162153
1761476365473650400,8.015650390625,0.05840484269559383,-0.019580021999776362,-0.002742467108555138
1761476365483681500,8.025681640625,0.010548282021284102,0.00292509366646409,0.01079001835528761
1761476365493714700,8.035714599609374,-0.03104921825826168,0.023844182250276208,0.02652447997597046
1761476365503747600,8.04574755859375,-0.05592120918631553,0.017723142086714504,0.04645779979228973
1761476365513780500,8.055780517578125,-0.05311316602826118,0.006934767699241637,0.047086416552029546
1761476365523814400,8.065814453125,-0.011997311785817146,-0.018165917418152093,0.03302085625794716
1761476365533847600,8.07584765625,0.041107086414098735,-0.03936550344377756,0.007072888395143672
1761476365543879700,8.085879638671875,0.08838789302706718,-0.051415933656319975,-0.016723061666078863
1761476365553912600,8.09591259765625,0.08167641268968581,-0.04478884366676211,-0.03027095476160757
1761476365563945700,8.10594580078125,0.040564650100469585,-0.027375571246817706,-0.02163278067796491
1761476365573978600,8.115978515625,-0.017606968361139296,-0.02173610405512154,-0.01081971937380731
1761476365584012800,8.1260126953125,-0.024930443117022513,-0.005162351199239492,-0.013814334612525998
1761476365594045700,8.136045654296876,-0.010722469544410704,-0.007631225530803203,-0.014419488298287614
1761476365604078800,8.146078857421875,0.014115619114041328,-0.012946063878014683,-0.012275480273226275
1761476365614111700,8.15611181640625,0.048103813433647155,-0.015365911436080931,-0.01499747084933333
1761476365624145000,8.166144775390626,0.0608592501103878,-0.01756210630610585,-0.008478252547886223
1761476365634177800,8.176177734375,0.028723990181088444,-0.002673749253898859,0.005284260545857251
1761476365644211700,8.186211669921875,0.009890694895386696,0.010002411641553044,0.015484952972177415
1761476365654244600,8.19624462890625,-0.01959668087363243,0.010378770673274994,0.029037248248187823
1761476365664277800,8.20627783203125,-0.025905425629019735,0.011495572808757423,0.04012336347321979
1761476365674310700,8.216310546875,0.002205401089787483,-0.004503083572909235,0.03493090026350692
1761476365684343800,8.22634375,0.031219898650050162,-0.022728403028100728,0.013646841691667213
1761476365694376700,8.236376708984375,0.044831075373291965,-0.029977497373521327,-0.006046595821017399
1761476365704411000,8.246410888671875,0.05891103865206241,-0.03211100227087736,-0.024489074291381984
1761476365714443800,8.25644384765625,0.05490706370770931,-0.01103182775452733,-0.026567615864798427
1761476365724477000,8.266476806640625,0.029210312393307684,0.0024690204620361326,-0.013289105162024497
1761476365734509800,8.276509765625,-0.009673252752423285,0.001983355836942792,0.009715329195326194
1761476365744542700,8.286542724609374,-0.03691489542126655,0.005800649102777242,0.01645862944307737
1761476365754576600,8.29657666015625,-0.03305763547122478,-0.007608356111869215,0.027533638752205297
1761476365764609800,8.30660986328125,0.004027355819940567,-0.021168241039291023,0.019495193260535598
1761476365774642700,8.316642578125,0.026306407645344733,-0.03306479586437344,0.002007302968110889
1761476365784675600,8.326675537109375,0.0447206007361412,-0.03527940317392349,-0.007448142315167933
1761476365794708700,8.336708740234375,0.04308627753257751,-0.03502279806435108,-0.015921170698665082
1761476365804741600,8.34674169921875,0.027836101430654524,-0.0328369784578681,-0.011842504816595465
1761476365814775800,8.35677587890625,-0.0017903905481100081,-0.02388166471645236,-0.0010266122345346956
1761476365824808700,8.36680859375,-0.008223638466000556,-0.020001243086531756,0.004257465648232027
1761476365834841900,8.376841796875,0.00014905308187007903,-0.02889130957201123,0.0044293516164179885
1761476365844874500,8.38687451171875,0.01061900916993618,-0.014028452287241816,0.0076896137876901775
1761476365854907600,8.39690771484375,0.029922844576835632,-0.012966376013681292,0.0004082611404825002
1761476365864940500,8.4069404296875,0.039813539472222326,-0.013034253618121147,-0.002698134776484221
1761476365874974700,8.416974609375,0.035649990051984784,-0.009667188337817788,0.010427066794410347
1761476365885007600,8.427007568359375,0.023865444234013555,-0.0042450171586126085,0.0048177390126511455
1761476365895040800,8.437040771484375,0.001886252138018608,0.010478723916411399,0.016157207944244144
1761476365905073700,8.44707373046875,-0.013386720317602158,0.014957769026607275,0.027876689169369636
1761476365915106800,8.45710693359375,-0.024646365478634833,0.017456673170253633,0.03811487319502048
1761476365925139700,8.4671396484375,-0.014504326170682907,0.006330445130541921,0.02873319640085101
1761476365935172900,8.4771728515625,0.0001233341187238693,-0.008747297013923525,0.011979328604554756
1761476365945206500,8.48720654296875,0.03152852620780468,-0.011207403517141938,-0.00161045827078633
1761476365955239700,8.49723974609375,0.044542321559786796,-0.01976787272207439,-0.013123575869388877
1761476365965272600,8.5072724609375,0.04560264426767826,-0.021183803934603927,-0.017601963392458855
1761476365975305700,8.5173056640625,0.03634031040370464,-0.015155045164376496,-0.020067330592684448
1761476365985338600,8.527338623046875,0.02185585797727108,-0.018507205136492847,-0.024552969840448347
1761476365995371800,8.537371826171874,0.011716156756877899,-0.014170564171671866,-0.012050265815760939
1761476366005405700,8.54740576171875,0.013837386694550513,-0.018623232731595635,-0.006790071132080629
1761476366015438800,8.55743896484375,0.015942250019311904,-0.014260872803628444,0.0013580270128324627
1761476366025471700,8.5674716796875,0.004118541234731674,-0.008771773868054151,0.013817723012855276
1761476366035505000,8.5775048828125,-0.016541384956240652,-0.012980039212852715,0.019508573331916704
1761476366045537800,8.587537841796875,-0.016112930411100387,-0.012747545631229876,0.028518211076455188
1761476366055570700,8.59757080078125,-0.0065676879525184625,-0.016044833610951898,0.021211121199792248
1761476366065604600,8.6076044921875,0.019142507365345954,-0.021912191274389623,0.013958254861552267
1761476366075639800,8.617639892578126,0.03963935194909572,-0.014268690783903002,0.001976058446476236
1761476366085672700,8.627672607421875,0.05280921464562416,-0.021807050399482247,-0.0059177087443415075
1761476366095705900,8.637705810546874,0.04624211121499538,-0.02143361397720873,-0.008340999501664191
1761476366105738800,8.64773876953125,0.023968320086598396,-0.01874094082713127,-0.007772104439372196
1761476366115772700,8.657772705078125,0.012311784562468528,-0.01385660285167396,-0.004006751423329115
1761476366125805600,8.6678056640625,-0.0014537059396505356,-0.007771145458146929,0.009157028592284767
1761476366135838700,8.677838623046876,-0.0014595511585474012,-0.009803601133823394,0.017662269611796365
1761476366145871600,8.68787158203125,0.0068967737764120095,0.000057721536606550215,0.015302920069312676
1761476366155904800,8.69790478515625,0.017945991057157516,-0.004169175443425774,0.018415791392838582
1761476366165937700,8.707937744140626,0.016145663636922835,0.000524389200285077,0.016188616862660272
1761476366175971800,8.717971923828125,-0.00360240840613842,-0.010636910152807832,0.009607694969233124
1761476366186004700,8.728004638671875,-0.007498831322789192,-0.009637816112861037,0.011967912161396815
1761476366196038000,8.738037841796874,-0.011868716970086096,-0.020367884441837666,0.019608033384708685
1761476366206070800,8.74807080078125,0.00827449187040329,-0.02721796953231096,0.00808271389165893
1761476366216103700,8.758103759765625,0.010767477729916573,-0.032941534810885784,-0.002544140658015385
1761476366226136600,8.768136474609374,0.023911621463298796,-0.019849267395213244,-0.00980761972181499
1761476366236169700,8.778169677734375,0.032602292919158934,-0.027889219857379792,-0.024696269034966824
1761476366246203600,8.78820361328125,0.04535597603023052,-0.027300971640646456,-0.030823446678370236
1761476366256236800,8.79823681640625,0.044029111340641976,-0.02559161043949425,-0.02402700973758474
1761476366266269700,8.808269775390626,0.03387771968245506,-0.016151581921055914,-0.02386793758519925
1761476366276302800,8.818302734375,0.02688157718479633,-0.002933423103392124,-0.01046532557872124
1761476366286335700,8.828335693359374,0.00791325734257698,-0.01489880538098514,-0.00026281565465033054
1761476366296368600,8.83836865234375,-0.00537701686322689,-0.012530176553502678,0.0067089139209594575
1761476366306402600,8.848402587890625,0.0013584288716316222,-0.00652399494126439,0.007586144280061126
1761476366316435700,8.858435791015625,0.00776946495771408,-0.0016045125871896743,0.011647000510804355
1761476366326468600,8.868468505859376,0.0064162967830896376,-0.005090162745863199,0.01709392253877595
1761476366336501500,8.87850146484375,0.01462707576751709,-0.013186813831329344,0.02069883342925459
1761476366346534700,8.88853466796875,0.021052724900841712,-0.005557926388084888,0.009594241832615808
1761476366356567600,8.898567626953126,0.020160744497179982,-0.007924436323717235,-0.004331745593994856
1761476366366600700,8.9086005859375,0.039328970825672147,-0.009409341119229793,-0.013914616649225353
1761476366376634600,8.918634521484375,0.03547463348507881,-0.005593216897174715,-0.01752196609196253
1761476366386667800,8.928667724609374,0.03400046927928924,0.0025960078425705433,-0.02429473902937025
1761476366396700700,8.93870068359375,0.01664952150583267,0.0029245822098106144,0.0020705957289785144
1761476366406733800,8.94873388671875,0.0004974281281232833,-0.002624576349928975,-0.0003697922936175018
1761476366416766700,8.9587666015625,-0.007872340810298918,-0.011677870573103427,0.014878465845854952
1761476366426799900,8.9687998046875,0.007103110003471374,-0.028246581927686927,0.01907573487260379
1761476366436832800,8.978832763671875,0.025061376020312307,-0.022923852534964678,0.007847663026768713
1761476366446866700,8.98886669921875,0.03643149581849575,-0.033259441653639074,0.0032873876402154563
1761476366456899600,8.998899658203126,0.0323947876483202,-0.03275222278386354,0.002182175477826968
1761476366466932700,9.0089326171875,0.010539514192938804,-0.018298384691402315,0.007627106478111818
1761476366476965600,9.018965576171874,-0.007732640078663825,-0.014393193946406244,0.015543733954709022
1761476366486998800,9.028998779296876,-0.013888240098953246,-0.025020386422798035,0.01602792814192362
1761476366497031700,9.03903173828125,0.008682488149404526,-0.03148286043517291,0.014534273784374817
1761476366507064800,9.04906494140625,0.023940263035893437,-0.030736425982043146,0.009181898172060027
1761476366517098800,9.0590986328125,0.04206336422562599,-0.018903657108172774,0.007364436953933909
1761476366527132000,9.0691318359375,0.04657295060455799,-0.0104814273301512,0.0020088464712258425
1761476366537165000,9.0791650390625,0.03986965357363224,-0.012893822234123945,0.0005088719707448035
1761476366547198000,9.089197998046876,0.009667992055416106,-0.007730521186813712,0.015374551400262861
1761476366557231000,9.099231201171875,-0.011288286733627318,0.0038773528899997472,0.017809468663297592
1761476366567264000,9.109263916015625,-0.022839023795723914,0.00036751813814043995,0.01910874209306203
1761476366577297200,9.119297119140626,-0.005647065976262093,-0.016787322541326283,0.019006925686402245
1761476366587331000,9.1293310546875,0.01722644461095333,-0.01722542169764638,0.015560703355818986
1761476366597364200,9.1393642578125,0.019903554865717887,-0.004058773871511221,0.0015459142677485941
1761476366607397000,9.149397216796874,0.03545943591594696,-0.00654438014216721,-0.0053469048527535045
1761476366617430300,9.15943017578125,0.042507016339898104,-0.009984949050098658,-0.00741727225286886
1761476366627463200,9.169463134765625,0.025620178946852683,-0.003789893802255392,-0.007869765260722488
1761476366637496300,9.179496337890624,0.01575987918972969,-0.003816270352527499,-0.006247388223279267
1761476366647529200,9.189529296875,0.004223755174875259,-0.01086231640651822,0.005886911747278645
1761476366657563100,9.199563232421875,0.004367547559738159,-0.02125475027896464,-0.00046474970122799275
1761476366667596000,9.209595947265624,0.011845336094498634,-0.02910970156304538,0.00020016221459954976
1761476366677629200,9.219629150390626,0.028158172991871833,-0.03095006873272359,-0.010796301965601742
1761476366687662000,9.229662109375,0.0346124636977911,-0.030938012968748808,-0.010303266884805633
1761476366697695000,9.239695068359374,0.026692192092537877,-0.027151772428303956,-0.009461244836403057
1761476366707728100,9.24972802734375,0.014737550404667853,-0.019227993691712617,-0.004903353203181177
1761476366717761000,9.259760986328125,-0.0030699089646339414,-0.009365209716558456,0.0031608660505618898
1761476366727795200,9.269795166015625,-0.006522679767012596,-0.015159648274257777,0.01308518008776009
1761476366737828000,9.279828125,-0.009523030626773834,-0.009647752984985708,0.018998002594429998
1761476366747861200,9.289861328125,0.010507950010895729,-0.005531622903048991,0.016771476518223062
1761476366757894100,9.29989404296875,0.01708265222609043,-0.0047365270026028155,0.004453600141685456
1761476366767927300,9.30992724609375,0.042374329870939254,0.0011180442444980144,0.006749392061820254
1761476366777960000,9.3199599609375,0.03715630296170711,-0.006630377925187349,-0.003976073157275095
1761476366787993000,9.3299931640625,0.024146599262952803,0.00015168343037366867,-0.0040437406991608435
1761476366798026000,9.34002587890625,0.0055979661375284194,-0.011482274935767053,-0.006089320717891678
1761476366808060200,9.35006005859375,0.005022212076187134,-0.02193513375855982,-0.0033450087121222167
1761476366818093000,9.360093017578125,0.021797990310192108,-0.022176102907583116,-0.0059678771621547635
1761476366828126200,9.370126220703124,0.02660451380908489,-0.016879603934660554,-0.012441740218224003
1761476366838159000,9.3801591796875,0.026454291683435438,0.0008992138620465993,0.007385150948399677
1761476366848192300,9.390192138671875,0.002655482944846153,0.012936273136362433,0.02027711915215477
1761476366858225200,9.40022509765625,-0.0256412217348814,0.01191949730925262,0.02892364093903452
1761476366868258300,9.41025830078125,-0.040944589328765865,-0.003405497594550252,0.04020708710076287
1761476366878292000,9.4202919921875,-0.03217500741779804,-0.01602802860662341,0.040470505543611944
1761476366888325000,9.4303251953125,0.0036713819891214367,-0.035992081487923856,0.019137246668338773
1761476366898358000,9.44035791015625,0.048531098935008045,-0.05015950385443866,0.0006667750793509185
1761476366908391200,9.45039111328125,0.0658913990586996,-0.03973017203770578,-0.011260896403202787
1761476366918424000,9.460424072265624,0.060384618335962294,-0.027766031869128346,-0.013785154183814301
1761476366928457000,9.47045703125,0.03257365134656429,-0.02634432850293815,-0.012116481186076998
1761476366938490000,9.480489990234375,-0.009610124388337134,-0.02168093980178237,-0.006330189402215182
1761476366948523000,9.49052294921875,-0.0021247370690107344,-0.010812266719713807,-0.0033697504277341067
1761476366958557200,9.50055712890625,0.018232406783103942,-0.0009073241032660007,0.0005322345800232142
1761476366968590000,9.510590087890625,0.027974633118510246,0.004914075526595115,0.004195369330607354
1761476366978623200,9.520623291015625,0.03502221354246139,0.005426043636724352,0.008011621416825801
1761476366988656000,9.53065625,0.041620881155133245,0.0069527417473495,0.007487761939503252
1761476366998689300,9.540689208984375,0.009894786548614502,-0.002333995905518532,0.017859198689693583
1761476367008722200,9.55072216796875,-0.00014788403809070586,-0.01317132400125265,0.018561976664187387
1761476367018755000,9.560755126953126,-0.002850713256001472,-0.013582169824466108,0.021133781647263095
1761476367028788000,9.5707880859375,0.0058066404521465295,-0.011115633580461144,0.007998542739544064
1761476367038822100,9.580822265625,0.018204349732398987,-0.017676745661720634,-0.007492182386294007
1761476367048855000,9.59085498046875,0.02611877611875534,-0.017424816727265716,-0.017532597083831206
1761476367058888200,9.60088818359375,0.04752279867529869,-0.018416458113119004,-0.029873854335956275
1761476367068921000,9.610921142578125,0.04440671248137951,-0.01016103626936674,-0.03461989808557555
1761476367078954200,9.620954345703124,0.02736789939701557,-0.0006382248383015394,-0.019883681121468544
1761476367088987100,9.630987060546875,0.005381693038344383,0.0075134443700313564,-0.002121860125334933
1761476367099020000,9.64102001953125,-0.01737374412715435,0.00029971359893679616,0.011454427947616204
1761476367109054200,9.65105419921875,-0.019798340925574302,-0.01747303978316486,0.020882327636843546
1761476367119087000,9.661087158203125,-0.004121463844180107,-0.028323592686653135,0.01929384373584762
1761476367129120000,9.6711201171875,0.017851883032917976,-0.016907953246310354,0.007170293488167226
1761476367139153000,9.68115283203125,0.0402852486371994,-0.020841054911538957,-0.002834072648454457
1761476367149186000,9.69118603515625,0.038490181913971896,-0.02504398649409413,-0.014634373157983644
1761476367159219000,9.701218994140625,0.038054128584265705,-0.02105681655406952,-0.008719669221481308
1761476367169252000,9.711252197265624,0.026415128716826438,-0.013746493540704249,0.00704482221128419
1761476367179285000,9.721284912109375,-0.002018354085087776,-0.014294409747049212,0.015858106266660614
1761476367189318100,9.731318115234375,-0.024193945536017416,-0.006745090346038341,0.026440728948963804
1761476367199352000,9.74135205078125,-0.017788754668831824,-0.008385770225152373,0.028144710722099987
1761476367209385200,9.75138525390625,0.0008896423161029815,-0.027757264040783047,0.018059223906975237
1761476367219418000,9.761418212890625,0.026766426372528074,-0.019785189183056353,0.0002899959225207567
1761476367229451300,9.771451171875,0.027224691534042358,-0.01734451803267002,0.0010656108043622225
1761476367239484200,9.781484130859376,0.04009820163249969,-0.024360753470286725,0.00821674293433316
1761476367249517300,9.791517333984375,0.021835984233021737,-0.016221213091164827,0.007480099222855642
1761476367259550200,9.80155029296875,-0.010061959809064864,-0.004772255903109908,0.010337698877369985
1761476367269583000,9.8115830078125,-0.025354806008934975,-0.0033801439575850962,0.015881112682912497
1761476367279617000,9.821616943359375,-0.007731471034884452,-0.008832783340290189,0.006924355903081596
1761476367289650200,9.831650146484375,0.012153963652253151,-0.007776479220390319,0.001140374807314947
1761476367299683000,9.84168310546875,0.021713234636187552,-0.0032247342001646756,-0.005749211176484823
1761476367309716200,9.85171630859375,0.04879588735103607,-0.004011354533210397,-0.006543640356650575
1761476367319749000,9.8617490234375,0.02948445315957069,-0.0033010873720049857,-0.0066076911693438885
1761476367329782000,9.871781982421876,0.014814122772216796,-0.012001622634753585,-0.007370437436457723
1761476367339815200,9.881815185546875,0.007331073540449142,-0.006225815712288022,0.005294973736116662
1761476367349848000,9.89184814453125,-0.004047814086079597,-0.013304594992101192,0.002649473329167813
1761476367359882200,9.90188232421875,0.008365677285194396,-0.012449220271781086,-0.0039857360347639766
1761476367369915100,9.9119150390625,0.024069442373514174,-0.0030760464444756505,-0.000564894740609452
1761476367379948000,9.921947998046875,0.030789690539240834,-0.019197817749157547,-0.0043952575505711135
1761476367389981000,9.93198095703125,0.028694764086604117,-0.016067776095122097,0.004058728205738589
1761476367400014000,9.94201416015625,0.018233575826883314,-0.008414484862983226,0.0017650551774539053
1761476367410047000,9.952046875,0.012253916895389556,-0.005034779296815395,0.005063092075847089
1761476367420080000,9.962080078125,0.0041653029859066,0.0014723375748842953,0.013616857545357196
1761476367430113000,9.972113037109375,0.007888707423210144,-0.010047200631350279,0.0173735888635274
1761476367440146200,9.982146240234375,0.01219663375020027,0.0061295157309621566,0.007878313893359154
1761476367450180000,9.99218017578125,0.022810382223129273,-0.0040700989831238986,0.002452388987643644
1761476367460213200,10.002213134765626,0.024459318473935125,-0.008751607862859964,-0.006642862947424873
1761476367470246100,10.01224609375,0.031955227187275885,-0.02073744840659201,-0.016662280522705988
1761476367480279300,10.022279296875,0.03317804698050022,-0.02966185555309057,-0.022113084141351283
1761476367490312200,10.032312255859376,0.034410803645849225,-0.024975524367764592,-0.024731495611974966
1761476367500345300,10.042345458984375,0.03564882100820541,-0.01679872071817517,-0.017686856063781304
1761476367510378200,10.052378173828124,0.02207154655456543,0.0062224547114223235,0.005272862369008362
1761476367520411100,10.0624111328125,-0.008608838391304016,0.018838044526055454,0.026176515921670942
1761476367530445000,10.072445068359375,-0.04289981504976749,0.019154928455501794,0.036365700573287904
1761476367540478200,10.082478271484375,-0.04338438369631767,-0.004983560566231608,0.03687533972901292
1761476367550511000,10.092510986328126,-0.014234277057647704,-0.011092033509165048,0.021772773670544848
1761476367560544000,10.1025439453125,0.0188093298882246,-0.02503317283913493,0.01701559660555795
1761476367570577200,10.1125771484375,0.048128363353013986,-0.039818946299701924,0.008703238676488399
1761476367580610000,10.122610107421876,0.05846621749401092,-0.030254487683996557,-0.005298398669064045
1761476367590643200,10.132643310546875,0.03663666300177574,-0.021022987349703908,-0.007788187924493104
1761476367600676000,10.142676025390625,0.0215326173722744,-0.009823986334726214,-0.006606467326637357
1761476367610709200,10.152709228515626,-0.008390227204561233,-0.012428908136114478,-0.011286569700576364
1761476367620743000,10.162742919921875,-0.013346972829103469,-0.0194290692217648,-0.005021645820606499
1761476367630776000,10.172776123046875,0.015065467184782027,-0.01430938812047243,-0.006278221752960235
1761476367640809000,10.18280908203125,0.037519291055202485,-0.011890928801894187,-0.013856913378927856
1761476367650842000,10.192842041015625,0.058662616848945616,-0.01029408806450665,-0.02217760074492544
1761476367660875000,10.202875,0.056176060730218885,-0.0016582155358046292,-0.008800360641721636
1761476367670908200,10.212908203125,0.033466216272115705,0.010339169315248727,0.005761312606232241
1761476367680941000,10.222941162109375,-0.005588613787293434,0.01677365934215486,0.02492572127613239
1761476367690974200,10.23297412109375,-0.026564766320586203,0.016373554108664392,0.029237410462787373
1761476367701007000,10.243007080078126,-0.023742694637179373,0.00765044168792665,0.025001206798292694
1761476367711041300,10.253041259765626,-0.0021913725644350053,-0.013154738192632794,0.013423508664034306
1761476367721074200,10.26307421875,0.03506371459662914,-0.017026976516097782,-0.002074486452806741
1761476367731107300,10.273107421875,0.05932488014996051,-0.02635419230982661,-0.02186721962150186
1761476367741140200,10.28314013671875,0.058301382321119304,-0.016038184674456713,-0.027791714299656448
1761476367751173000,10.293173095703125,0.030949265015125273,0.001085530214384198,-0.030404134420910847
1761476367761206300,10.303206298828124,0.0031599253356456754,-0.0023058657895773647,-0.006294789295271039
1761476367771239200,10.3132392578125,-0.011321604481339453,-0.016604659450799225,0.0016680062774568796
1761476367781272000,10.32327197265625,-0.012656652477383613,-0.023477394764497873,0.005846625402662902
1761476367791305000,10.333304931640624,0.01203939736187458,-0.030977322065830228,0.010108986421721056
1761476367801339100,10.343339111328126,0.030747604963183402,-0.03641929392404854,0.00943010991262272
1761476367811372000,10.3533720703125,0.01773965483009815,-0.027979455424100158,0.008247065007360652
1761476367821405200,10.3634052734375,0.005021043032407761,-0.019183935354277492,0.0038248007188551128
1761476367831438000,10.37343798828125,-0.0023246435552835465,-0.01952997231297195,0.017366465002996847
1761476367841471200,10.38347119140625,0.0063397244155406944,-0.015838278188183903,0.011343788913683966
1761476367851504000,10.393504150390624,0.016664719074964522,-0.01875686904862523,0.001953572620032355
1761476367861537300,10.403537353515626,0.028347558084130284,-0.03139883541353047,0.0034063469779212025
1761476367871570200,10.413570068359375,0.03750467800796032,-0.020284151681140065,-0.012867372618615626
1761476367881603300,10.423603271484374,0.04936170454025268,-0.02264145539700985,-0.013861342958873138
1761476367891636200,10.43363623046875,0.03578559913039207,-0.01716631192155182,-0.00017796864910051225
1761476367901670100,10.443670166015625,0.013814590340852737,-0.0027862697176635263,0.010871367362653836
1761476367911703000,10.453703125,-0.007889876466989517,0.01158931550681591,0.019810780282039194
1761476367921736200,10.463736083984376,-0.02466273209154606,0.020331351823732257,0.033446260329475626
1761476367931769000,10.47376904296875,-0.0034288054049015043,0.021925927538797258,0.031930275409109886
1761476367941802000,10.483802001953125,0.011814356434345245,0.0009626344870775937,0.019611440051347018
1761476367951835100,10.493835205078126,0.02436988662481308,-0.008271715391427278,0.009558969589835032
1761476367961868000,10.503867919921875,0.03409223921597004,-0.014745879841595887,-0.00817873074519448
1761476367971901200,10.513901123046875,0.024223756152391432,-0.02078179900497198,-0.013136837209761143
1761476367981934000,10.52393408203125,0.018250526961684225,-0.01670731610767543,-0.019969952899124472
1761476367991967200,10.53396728515625,0.011971008300781249,-0.014554668118432163,-0.013153888809261842
1761476368002001200,10.544001220703125,0.014224340185523033,-0.011618249340355396,-0.003251530875544995
1761476368012034300,10.554034423828124,0.016485855376720426,-0.007892726011201738,-0.0031401246566325424
1761476368022067000,10.56406689453125,0.026092472633719443,-0.015103314977139234,0.0017388247576542197
1761476368032100000,10.57410009765625,0.02475800915956497,-0.009195552238076925,-0.005049246213585138
1761476368042133000,10.584133056640624,0.014893617749214171,-0.008248699842020868,0.0005869513087905943
1761476368052166100,10.594166259765625,0.019843933632969855,-0.020237243799492717,0.015359134635422378
1761476368062199000,10.604198974609375,-0.001861117696762085,-0.0160948102325201,0.01518511150907725
1761476368072232000,10.61423193359375,-0.0018570260435342787,-0.018521014466136694,0.009192876223800703
1761476368082265000,10.62426513671875,0.00696866996884346,-0.016380349175631997,0.010941619587270543
1761476368092299300,10.63429931640625,0.019695465072989464,-0.01366224932335317,0.0005144340618513524
1761476368102332200,10.644332275390624,0.030029227560758587,-0.02427672844864428,-0.00035990108726546166
1761476368112365000,10.654364990234376,0.03020049247443676,-0.022222864658758043,-0.009531487927865236
1761476368122398200,10.664398193359375,0.03187047151327133,-0.02291333114095032,0.0000449899191968143
1761476368132431000,10.67443115234375,0.020821254232525826,-0.004159603897482157,-0.005547651589242741
1761476368142464300,10.68446435546875,0.009321370574831962,-0.0024971505779772993,-0.0004946333828382194
1761476368152497200,10.6944970703125,0.003953706061840057,0.0063327101528644555,0.005217515452578664
1761476368162530300,10.7045302734375,0.01698679063618183,0.0023491934746503827,0.007347083960333838
1761476368172563200,10.714563232421876,0.022552023547887802,-0.003732829852774739,0.004872309610946104
1761476368182596000,10.72459619140625,0.016733108136057852,-0.004497603680193424,0.010979869238426908
1761476368192629000,10.73462890625,-0.008089198431372641,-0.011202362015843391,0.007947680201986804
1761476368202663200,10.7446630859375,-0.005227379259467125,-0.010661240876466036,0.01500263108164072
1761476368212696000,10.754696044921875,-0.020497429105639457,-0.01783098637536168,0.02358784200218506
1761476368222729200,10.764729248046875,0.00028349311649799344,-0.0221158971529454,0.02011114233494736
1761476368232762000,10.77476220703125,0.014773790761828422,-0.00353672275878489,-0.009473309733532368
1761476368242795300,10.784795166015625,0.0224082311630249,-0.023350334318727253,-0.021096107384841887
1761476368252828200,10.794828125,0.045642976278066634,-0.017393544806167484,-0.013699759188992902
1761476368262861000,10.804861083984376,0.062463762697577474,-0.03247048323303461,-0.010657797677209601
1761476368272894200,10.814894287109375,0.022989830443263054,-0.03469984972029924,-0.012576783041050657
1761476368282927000,10.824927001953125,-0.010821838265657423,-0.022777722062543033,-0.012909458194673061
1761476368292960300,10.834960205078126,-0.003926233533024788,-0.0038153935696929693,-0.005864909978024661
1761476368302994000,10.844993896484375,0.029018589213490483,0.014286591766774654,0.0039398419332690535
1761476368313027000,10.855027099609375,0.025924714851379392,0.010515548795461654,0.0023851324377115813
1761476368323060000,10.86506005859375,0.032579496565461157,-0.018837898395583034,0.017425547379627822
1761476368333093000,10.875093017578125,0.06379238095283508,-0.04937449095658958,-0.011704192324448377
1761476368343126000,10.8851259765625,0.06602057839632033,-0.035062326357141134,-0.029068739364994687
1761476368353159200,10.8951591796875,0.05990647943019867,0.008373349134996533,-0.014926058714091778
1761476368363192000,10.905192138671875,0.043012627774477,0.02294862165004015,0.0033657135734334585
1761476368373225200,10.91522509765625,0.005445405924320221,0.01831570115238428,0.010342758644977584
1761476368383258000,10.925258056640626,-0.03337853798866272,0.01804937836639583,0.019206539911730214
1761476368393291300,10.935291259765625,-0.08351473403275013,0.009896905440464615,0.006990489075006916
1761476368403324200,10.94532421875,-0.13434417303800583,-0.031209742582216857,-0.010591280912794172
1761476368413358300,10.9553583984375,-0.12449673276245593,-0.03833199567757547,-0.0038429756963625546
1761476368423391000,10.965390869140625,-0.08596680335998534,-0.034123072745651004,0.019878155562980098
1761476368433424100,10.975424072265625,0.006146247670054435,-0.011944704815745354,0.04879968674331903
1761476368443457000,10.98545703125,0.09519640399813652,0.023382556087896227,0.05196361240064725
1761476368453490000,10.995489990234375,0.17115619260668755,0.047491380623728034,0.030462677941424772
1761476368463523000,11.005523193359375,0.14347908113002777,0.054563730162754655,-0.0033657683723606166
