time,seconds_elapsed,z,y,x
1761470271520136000,0.041135986328125,-0.009648118311166763,-0.019323645219067112,0.00521567055536434
1761470271530113000,0.051113037109375,-0.002918517795205116,0.002844621441932395,0.004659753705654293
1761470271540088800,0.0610888671875,-0.001426233410835266,0.01615451366365887,-0.008916132508497685
1761470271550066000,0.07106591796875,-0.005023965641856193,0.011075493366317822,-0.003520283080637455
1761470271560042000,0.0810419921875,-0.013110825985670089,-0.01342387399021536,-0.00975355144701898
1761470271570019000,0.09101904296875,0.0027542671442031858,-0.025179988298146053,0.015480751721095292
1761470271579995000,0.100994873046875,-0.000989011037349701,-0.01563031625961885,0.004065952530968934
1761470271589972000,0.110971923828125,-0.0005400982260704041,-0.007418039437849074,0.000005772153660655021
1761470271599948000,0.120947998046875,0.0023100305080413818,0.002900114488834515,-0.018973945865407585
1761470271609925000,0.130925048828125,0.0008148235142230987,0.030100868024863302,-0.01498312266357243
1761470271619901000,0.14090087890625,0.0005196399599313736,0.019342541715782136,0.01074937581764534
1761470271629878000,0.1508779296875,-0.007558452555537223,0.011540644926344976,0.02011776387197897
1761470271639854000,0.16085400390625,-0.018929741397500036,-0.0038171836679801343,0.02640508224684745
1761470271649831200,0.1708310546875,-0.012055179452896117,-0.013863032592460512,0.013042363859340548
1761470271659807000,0.180806884765625,-0.00997018987238407,-0.005931965598557144,-0.011407602264359593
1761470271669784000,0.1907841796875,-0.007427519652247428,-0.011788445674953981,-0.03669929817551747
1761470271679760000,0.200759765625,0.007072130343317985,0.004102768276864663,-0.016515519862622022
1761470271689737000,0.210737060546875,0.008116086438298226,-0.012980925128841771,-0.008966584054101258
1761470271699713000,0.220713134765625,0.004755670094490051,-0.013350059835333376,-0.010688311546482145
1761470271709690000,0.230690185546875,0.003249357184767723,-0.0037624304065946488,-0.008631671277619898
1761470271719666000,0.240666015625,-0.0014858546435832975,-0.012624567705532535,0.0057733409707434475
1761470271729642800,0.250642822265625,0.0112368488073349,-0.00549451489620842,0.006365096318814903
1761470271739619000,0.260619140625,-0.003807575589418411,-0.0051900246574543415,0.016081238364893943
1761470271749596000,0.270595947265625,-0.008334697625041007,-0.006878927592467516,0.024726244048122317
1761470271759572000,0.280572021484375,-0.0012345102310180663,0.008244379859929905,0.01736773451147601
1761470271769548800,0.290548828125,-0.001785129851102829,0.007203611235879362,0.009314520708937197
1761470271779525000,0.300525146484375,-0.005196399599313736,-0.007513910160912201,0.009624773968197406
1761470271789502000,0.310501953125,0.006775777745246887,-0.0007261314506176858,-0.012045534841716289
1761470271799478000,0.32047802734375,-0.007471358793973922,-0.015011481108376756,-0.0043587797313928605
1761470271809454800,0.330454833984375,-0.0009235445857048034,-0.008164939681859686,-0.009678988373465836
1761470271819431200,0.34043115234375,0.008304302486777305,-0.00010389876589179038,0.007782306172978133
1761470271829408300,0.350408203125,-0.0032920272827148436,0.0013314404000062494,-0.00394090137919411
1761470271839384000,0.360384033203125,-0.0011158522874116898,0.0006592676263302564,-0.01754142884425819
1761470271849361200,0.370361083984375,0.006805588361620903,0.008501806953409687,0.005804083168879151
1761470271859337200,0.380337158203125,0.004271101447939872,0.002551301051164046,-0.00007244418170303105
1761470271869314000,0.39031396484375,-0.0038958383947610854,-0.00847074509486556,-0.006688683983683586
1761470271879290000,0.4002900390625,0.00018529343903064726,-0.008012406868115067,-0.008019932587444783
1761470271889267000,0.410266845703125,0.00187222361266613,-0.008994494974333793,-0.001074479097407311
1761470271899243000,0.420242919921875,-0.0072737903952598566,-0.0053445758983492846,-0.010152706832438707
1761470271909220000,0.43022021484375,-0.005777414357662201,-0.020707957450626417,-0.0013755992021411657
1761470271919196200,0.440196044921875,-0.011439677903056144,-0.014933557033957913,-0.0066367163344286375
1761470271929173000,0.450173095703125,0.00888531724512577,0.0006376859821844846,-0.0015750672969967127
1761470271939149000,0.460149169921875,0.0064817632347345345,-0.0024938261097297073,-0.005586549694370478
1761470271949126000,0.4701259765625,0.014725275444984436,0.005294571877317503,-0.0011507592040114103
1761470271959102200,0.480102294921875,0.0027688801914453505,0.012305409620609133,0.0018942162487655878
1761470271969079000,0.4900791015625,-0.0035042087286710735,0.0004980857152491807,0.007451941707450896
1761470271979055000,0.50005517578125,-0.010523732101917265,-0.017169462859863413,0.008622830384038388
1761470271989032000,0.510031982421875,-0.008119009047746657,-0.008245302308537065,0.004288710169866681
1761470271999008300,0.52000830078125,-0.0021188918501138685,-0.000816668411437422,-0.01231368425861001
1761470272008985000,0.529985107421875,0.004167056551575661,-0.007026811630558222,-0.027145415752753616
1761470272018961000,0.5399609375,0.006712649381160736,-0.015023016282543539,-0.01523587358193472
1761470272028938000,0.54993798828125,0.0020686229676008224,-0.0147245356594678,0.0038493323719128963
1761470272038914000,0.5599140625,0.06954115373790264,-0.01400940966005437,0.025997633957117794
1761470272048891100,0.56989111328125,-0.03191781778633594,-0.016203814431792123,0.04919339876864105
1761470272058867000,0.579866943359375,-0.09984744467437266,0.04147185547272674,0.01456659601824358
1761470272068844000,0.589843994140625,0.026453122639656067,0.047746935420529914,-0.03993009679028764
1761470272078820000,0.599820068359375,0.06430676021575928,0.030784384176461024,-0.0431604387473315
1761470272088797200,0.609797119140625,0.029439444974064824,0.028666022049309684,-0.011821589892730116
1761470272098773000,0.61977294921875,-0.09400397934317588,0.023681402037153017,0.03623666736613959
1761470272108750000,0.62975,0.05488602091968059,0.011154769147606566,0.04013310854909941
1761470272118726000,0.639725830078125,0.10650105734467506,-0.009514555059373379,0.01481225960869342
1761470272128703200,0.649703125,-0.04509060309231281,-0.009474588375166059,0.0202921705908142
1761470272138679000,0.659678955078125,-0.10883271516263485,-0.016580520523386075,-0.01125690521467477
1761470272148656000,0.66965625,0.03766191439628601,-0.04780337831550278,-0.0455573620875366
1761470272158632000,0.6796318359375,0.07656301519870758,-0.054500711396522815,-0.027660288206022232
1761470272168609000,0.689609130859375,-0.04599018228054046,-0.032621344679500903,-0.002392338496632874
1761470272178585000,0.699585205078125,-0.05451660308539867,-0.01758480219510384,-0.010000749407429248
1761470272188562200,0.709562255859375,0.03002396686375141,0.012106151588307693,-0.0010655286059714853
1761470272198538000,0.7195380859375,0.07565642174780368,0.032633692704420535,0.004859550594072789
1761470272208515000,0.72951513671875,-0.05003974993228912,0.08034497228967957,-0.0034706900515593586
1761470272218491100,0.7394912109375,-0.06993629053533076,0.08285224240287206,-0.008565090581122784
1761470272228468200,0.74946826171875,0.03121522247493267,0.025991112884785977,0.009760675307549536
1761470272238444000,0.759444091796875,0.028515315866470336,-0.02479151870352216,0.014177377504948525
1761470272248420900,0.7694208984375,-0.05273965654075145,-0.05297277117688209,0.030205223448481408
1761470272258397200,0.779397216796875,-0.030141455763578413,-0.07209736842620186,0.03456741897966713
1761470272268374000,0.7893740234375,0.0451215827524662,-0.08570156741938553,0.0021317695979960263
1761470272278350000,0.79935009765625,0.04810965865254402,-0.05842928301710635,-0.017044493906479326
1761470272288327000,0.809326904296875,-0.03314005305767059,-0.02509803650258109,-0.01323147495696321
1761470272298303200,0.81930322265625,-0.026256723284721374,0.004298994101863354,-0.033642961078509684
1761470272308280000,0.829280029296875,0.03374503321349621,0.051495666095335034,-0.03310604119021445
1761470272318256000,0.839256103515625,0.023714637586474418,0.08361324423747137,-0.007378839938621967
1761470272328233000,0.84923291015625,-0.03134790894389152,0.06733743314854801,0.008119246509764344
1761470272338209300,0.859209228515625,-0.010847557228803635,0.038646121394354846,0.017768113739602267
1761470272348186000,0.86918603515625,0.033897593426704405,0.005633165315072983,0.013614702120888977
1761470272358162200,0.879162109375,0.019237784433364866,-0.012941342037124558,0.008055442292243241
1761470272368139000,0.889138916015625,-0.024902970588207243,-0.00924845146909356,-0.0002835479154251516
1761470272378115000,0.899114990234375,-0.019665654456615448,-0.024588242083229125,-0.016473945743218064
1761470272388092200,0.909092041015625,0.016391747352480886,-0.04278403404983692,-0.016874580699671057
1761470272398068000,0.91906787109375,0.005619008925557136,-0.06360798256294802,-0.010919142893981187
1761470272408045000,0.929045166015625,-0.0156330379396677,-0.04636182860452682,-0.008604454477131367
1761470272418020900,0.939020751953125,-0.0029167642295360565,-0.029708699502656234,-0.002743581353407353
1761470272427998000,0.948998046875,0.016983868026733396,0.001903048009192571,0.0021387473280541597
1761470272437974000,0.95897412109375,0.0032177930027246474,0.03522418412165716,-0.005155227338708937
1761470272447951000,0.968951171875,-0.014434183543920516,0.05433947468651458,-0.0024696415165439247
1761470272457927000,0.978927001953125,-0.0035077158600091934,0.05141875580106862,-0.006065309654641896
1761470272467904000,0.988904052734375,0.011308160477876663,0.04076376200229861,0.019526519980560986
1761470272477880000,0.998880126953125,-0.0029050737917423247,0.025159347368916497,0.00976151555776596
1761470272487857200,1.008857177734375,-0.011280103427171706,0.016284770713513717,0.021708394064288584
1761470272497833000,1.0188330078125,-0.00020575170516967773,-0.024500362870376557,0.007067782961763441
1761470272507810000,1.02881005859375,0.019396189865469933,-0.0430585492754355,0.00643339404836297
1761470272517786000,1.0387861328125,0.00862169787287712,-0.031660408959165214,-0.003106258919648826
1761470272527763200,1.04876318359375,-0.014272270980477331,-0.036621447166334836,-0.012505717965681106
1761470272537739000,1.058739013671875,-0.0017079729616641998,-0.02842766498248093,-0.015316701999492942
1761470272547716000,1.068716064453125,0.01579728859066963,-0.01863967240974307,-0.01786035860031843
1761470272557692200,1.078692138671875,-0.0072474869102239605,-0.0016678236143663524,-0.0003812178699299693
1761470272567669200,1.088669189453125,-0.000218026664853096,-0.0014749222576152532,-0.006063537822663783
1761470272577645000,1.09864501953125,0.0166962832570076,0.008800333242258056,-0.006826411953940987
1761470272587622100,1.1086220703125,0.0030798458367586132,0.01964531492148526,0.0014078209713101386
1761470272597598000,1.118597900390625,-0.009190437671542167,0.016753721665823833,0.0018107757490128278
1761470272607575300,1.1285751953125,-0.006049217036366463,0.016736204275442285,0.007320954005233943
1761470272617551000,1.138551025390625,0.0008446341305971145,0.01953850267929956,0.022707652501016855
1761470272627528000,1.14852783203125,0.014915829581022262,-0.004654429076565429,0.01344148271214217
1761470272637504000,1.15850390625,-0.007380173379182815,-0.010663798159733414,-0.0032027598303742705
1761470272647481000,1.168481201171875,0.003546294304728508,-0.018445209283567965,-0.00046661286475136875
1761470272657457200,1.17845703125,-0.0033387890338897703,-0.022204452219232916,-0.016381719148810953
1761470272667434000,1.18843408203125,-0.0006517419070005417,-0.027785531154042108,-0.0070513067509979
1761470272677410000,1.19841015625,0.010866261929273605,-0.012999081840040162,0.003648969227913767
1761470272687387000,1.208386962890625,0.002475450202822685,0.009694569535087794,-0.005291841064114123
1761470272697363200,1.21836328125,0.005298106408119201,0.010571434568008407,-0.010402991799078882
1761470272707340000,1.228340087890625,0.013818681994080543,0.012362181309144944,-0.020780593428574502
1761470272717316000,1.238316162109375,-0.0026367782443761823,0.018769098342536015,-0.016389427531231193
1761470272727292200,1.248292236328125,-0.0020329671323299405,0.00047007433031685645,-0.02594179385034367
1761470272737269200,1.258269287109375,0.0021650690793991088,-0.008542011099634692,-0.026708284710813313
1761470272747245000,1.2682451171875,0.002775309932231903,-0.005083860869240016,0.010582147758267818
1761470272757222100,1.27822216796875,-0.006951134312152862,-0.01831457777437754,0.0077417549668811255
1761470272767198200,1.2881982421875,-0.004108019840717315,-0.009624591305106877,0.005617090963106602
1761470272777175000,1.298175048828125,0.0006809680014848708,-0.004691646681260317,0.009034224196523428
1761470272787151000,1.308151123046875,-0.008437573477625847,-0.002756906625861302,-0.0005347461975179612
1761470272797128000,1.3181279296875,0.001595160236954689,-0.0026923717559780925,0.011847929910384117
1761470272807104000,1.32810400390625,0.005801379755139351,0.007725507084978744,0.007968311998061835
1761470272817081000,1.3380810546875,0.011807926693558693,0.007517179830232635,-0.007001677189301699
1761470272827057000,1.348056884765625,0.005066635739803314,0.0015653770200442522,-0.01437406912082806
1761470272837034000,1.358033935546875,0.0005745850175619125,-0.000880363031104207,-0.0032054267114959654
1761470272847009800,1.368009765625,-0.0019698387682437896,-0.00849015304823406,-0.006979501890111714
1761470272856987000,1.37798681640625,-0.00317278481721878,-0.014408400648692622,-0.012288020094390957
1761470272866963000,1.387962890625,-0.016038111609220505,-0.002274895262578502,-0.004607018871419131
1761470272876940000,1.39793994140625,0.0077472531259059904,0.000009964271588250995,0.014051139043085276
1761470272886915800,1.407915771484375,-0.005724222865700721,0.0017396467415615915,-0.004423095405567437
1761470272896893000,1.417892822265625,-0.015300444984436034,-0.004421789364470169,-0.00493024121010676
1761470272906869000,1.427868896484375,0.0022147534400224684,0.010764893047185614,0.014829028080403804
1761470272916846000,1.43784619140625,-0.012451485294103622,0.01800665346952155,0.018686105367355047
1761470272926822000,1.44782177734375,0.003266308319568634,0.015146039874013513,0.0044238625905476505
1761470272936799000,1.457799072265625,-0.000016366612911224363,0.009377585140941664,0.004902604284510016
1761470272946775000,1.467775146484375,0.0026817864298820495,0.004163229759829119,-0.0069532714703120285
1761470272956752000,1.477751953125,0.008810498443245888,0.004767305733356625,-0.0049546632653102276
1761470272966728000,1.48772802734375,-0.01184065991938114,-0.006870534223457798,-0.001200881956052035
1761470272976704800,1.497704833984375,-0.008394318857789039,-0.012628869421314448,0.005665131355915219
1761470272986681000,1.50768115234375,-0.0015197569131851195,-0.031171867390396072,0.00795612836992368
1761470272996658000,1.517657958984375,-0.0072165072500705715,-0.019548384752497077,-0.006208718447014689
1761470273006634000,1.527634033203125,-0.006623802053928375,-0.005340201117331161,-0.008246891477424651
1761470273016610800,1.53761083984375,-0.0028910452663898465,-0.007489689035108313,0.012253167976718396
1761470273026587100,1.547587158203125,-0.004987140762805938,0.01981825120244175,0.0019763598405756057
1761470273036564000,1.55756396484375,0.012969371688365936,0.03924409642065875,-0.004246131403464823
1761470273046540000,1.5675400390625,-0.0022907412856817246,0.03243559458274394,-0.014797902289777993
1761470273056516900,1.577516845703125,-0.015760463711619377,0.015791717366408557,-0.0028040245700627566
1761470273066493000,1.587492919921875,-0.0066296472728252405,0.01555127794034779,0.0009677125209942459
1761470273076470000,1.597469970703125,0.005940495964884758,-0.011799779919721186,-0.0030763204391114412
1761470273086446000,1.607446044921875,-0.005885550907254219,-0.015960205801110714,-0.004377594029717147
1761470273096423000,1.6174228515625,-0.004985387197136879,-0.05731450844192877,0.0031986133782193065
1761470273106398700,1.627398681640625,0.0005535422295331955,-0.09297954079941846,0.008687730580102651
1761470273116375800,1.637375732421875,0.008030161720514297,-0.08003488342720083,0.010089176609553396
1761470273126352000,1.647351806640625,0.005480477237701416,-0.04387466056444682,0.001731043309997767
1761470273136329000,1.657328857421875,-0.000654079994559288,-0.006240163898048922,-0.019534356227144598
1761470273146304800,1.6673046875,0.018947277054190633,0.03265369431283325,-0.014713237947318701
1761470273156281900,1.67728173828125,0.0033808746099472046,0.06524964882275089,-0.0055846682645380495
1761470273166258000,1.6872578125,-0.00021159692406654356,0.046637942132167515,0.008618702198192477
1761470273176235000,1.697235107421875,0.007866495591402053,0.03939978017271496,0.0002706519012339413
1761470273186210800,1.7072109375,0.006368365988135337,0.025534427759004757,-0.008702818551380187
1761470273196188000,1.71718798828125,-0.011292378386855125,0.018739196394616738,-0.009699885031022131
1761470273206164000,1.7271640625,0.007560206121206283,-0.003587046440225094,-0.005121836525760591
1761470273216141000,1.73714111328125,-0.00007306523621082306,-0.027439941719919442,-0.01922991165416315
1761470273226116900,1.747116943359375,0.002168576210737228,-0.027306433267053214,-0.01259695817939937
1761470273236094000,1.757093994140625,-0.007259177348017692,-0.0348248095405288,0.0019853468646295366
1761470273246070000,1.767070068359375,-0.0030687399208545684,-0.041640681834146376,-0.01726648436039686
1761470273256047000,1.777047119140625,0.01772971795797348,-0.01234345834236592,-0.009752291071694343
1761470273266023000,1.78702294921875,0.00710720165669918,-0.001914099126169458,0.002286028577946126
1761470273276000000,1.797,-0.007860065850615501,0.004374159963615239,0.018226689428370444
1761470273285975800,1.806975830078125,-0.00037760114073753353,0.019290354870818555,0.013425645822193473
1761470273295953200,1.816953125,0.00036941783428192136,0.01565380673306063,0.015144395906198769
1761470273305929000,1.826928955078125,-0.004421908095479011,0.03995086558368057,-0.0025913864663802085
1761470273315906000,1.836906005859375,-0.005620762491226196,0.03215099635454826,-0.00562295444831252
1761470273325881900,1.8468818359375,-0.0020288754791021346,0.01215787264239043,-0.02000065856464207
1761470273335859000,1.85685888671875,0.014582067582011223,0.006276002396410331,-0.006781988290324807
1761470273345835000,1.8668349609375,-0.014297405421733855,-0.018963981593819335,0.0013728592557832597
1761470273355811800,1.876811767578125,-0.008611176478862762,-0.029150435432232915,0.0016630378413945435
1761470273365788000,1.886787841796875,0.012189034965634345,-0.012393599360715598,0.006922163945995271
1761470273375764700,1.8967646484375,0.014728782576322555,-0.016289026763522996,0.0018410795557312666
1761470273385741000,1.906740966796875,0.0009568623334169388,-0.012354792587133123,-0.005323587909247726
1761470273395718000,1.9167177734375,-0.005777414357662201,-0.007382200939487666,-0.0057442610067315394
1761470273405694000,1.92669384765625,-0.008916881427168845,0.003261248551961034,-0.006579469721857458
1761470273415670800,1.9366708984375,0.008439911565184593,0.014536904132878408,0.006722513188049197
1761470273425647000,1.946647216796875,-0.0011357260316610335,0.014277102419221773,-0.009474478777311742
1761470273435624000,1.9566240234375,-0.009365794238448142,0.012369560898002237,-0.009931921954918653
1761470273445600000,1.96660009765625,-0.005924129351973533,0.014461665205890312,0.001692610995750874
1761470273455576800,1.976576904296875,-0.009363456150889396,-0.001453486743941903,-0.0073047700554132455
1761470273465553200,1.98655322265625,-0.009062427377700804,0.006286414192570373,-0.0020442557113245128
1761470273475530000,1.996530029296875,-0.009507248535752296,-0.000035025647608563304,-0.007190587357524782
1761470273485506000,2.006506103515625,0.010398644417524337,0.006492978748492896,-0.021977675992343574
1761470273495483000,2.01648291015625,-0.009656886139512062,-0.0008408347383141517,-0.006596146862022578
1761470273505459000,2.026458984375,0.0009714753806591034,-0.018562077128887175,0.0003686871819198131
1761470273515436000,2.03643603515625,-0.0029167642295360565,-0.007460855666268616,-0.012660725864302367
1761470273525411800,2.046411865234375,0.0014186346262693404,-0.01623763450300321,0.001354465082567185
1761470273535389000,2.056388916015625,0.006057984864711761,-0.0013313399353064596,-0.003150591251719743
1761470273545364700,2.06636474609375,0.008449263915419577,-0.007053370843920857,0.002432433045003563
1761470273555342000,2.076342041015625,-0.005765723919868469,-0.01408558930195868,-0.008004241827968507
1761470273565318000,2.08631787109375,-0.0021697452545166016,-0.003838034659763798,-0.01006354897795245
1761470273575294000,2.0962939453125,0.00037467853128910064,-0.005081066123954952,-0.012713899089954793
1761470273585270800,2.106270751953125,-0.011145078870654105,0.00030082784378901125,-0.004756053686980158
1761470273595247000,2.1162470703125,-0.0038110827207565303,-0.010606944272806867,0.011604001619294285
1761470273605224000,2.126223876953125,0.007258008304238319,-0.0025589089688844977,0.0005647394769825041
1761470273615200000,2.136199951171875,-0.004114449581503868,0.012842055514268577,-0.012898096550442278
1761470273625176800,2.1461767578125,-0.001720247921347618,0.006899623320624232,0.005126165641006082
1761470273635153200,2.156153076171875,-0.012483049476146698,-0.008246179091371595,0.010193824294116348
1761470273645130000,2.1661298828125,0.006076689565181732,0.004290956925880164,-0.00674319064989686
1761470273655105800,2.176105712890625,-0.0021516250759363175,0.01087966940011829,-0.008759608506225048
1761470273665083000,2.186082763671875,-0.006489362019300461,0.0028650979743804783,0.0033952136625535786
1761470273675059000,2.196058837890625,-0.008889408898353577,-0.009859897898323833,-0.001365899792034179
1761470273685036000,2.2060361328125,-0.006494038194417953,-0.023018809942575172,0.00015855156257748603
1761470273695011800,2.21601171875,0.0072702832639217375,-0.016944102271925658,0.0033169790608808397
1761470273704989000,2.225989013671875,0.005619593447446823,-0.028983097775001077,0.004579674206767231
1761470273714965000,2.235965087890625,0.015195231044292448,-0.02008184317522682,-0.013598280709050595
1761470273724942000,2.245942138671875,0.004421908095479011,-0.010231261094519868,-0.0005010083246976137
1761470273734918000,2.25591796875,-0.008744447469711304,-0.001186853430699557,0.008722801893483846
1761470273744895000,2.26589501953125,-0.013681319350004195,0.01332398467916064,-0.006046075231209397
1761470273754870800,2.275870849609375,0.004576806396245956,0.021691187201160936,0.002724712256155908
1761470273764847900,2.285847900390625,0.020893150424957273,0.017842183622810988,0.0037871355895884333
1761470273774824000,2.295823974609375,-0.003944353711605072,0.019005647044768557,0.002216214744746685
1761470273784801000,2.305801025390625,-0.0043897593915462494,0.014950197641504927,0.01021625532163307
1761470273794776800,2.31577685546875,-0.015004092386364937,0.005428162528574467,0.014766612102370708
1761470273804754000,2.32575390625,0.002802197939157486,-0.007239029609132558,-0.008568214119970798
1761470273814730000,2.33572998046875,-0.0046843584239482875,-0.028526841907482593,-0.021242877178080377
1761470273824707600,2.34570751953125,-0.0019908815562725067,-0.02783285916079767,0.005321889142505825
1761470273834683400,2.355683349609375,0.00025368250012397763,-0.032788682336732745,-0.0014941658142022787
1761470273844660500,2.365660400390625,0.002943652236461639,-0.025101698897546154,-0.011755319723486899
1761470273854636500,2.375636474609375,-0.0004985971719026565,-0.020998355231946333,-0.013834811144974082
1761470273864613600,2.385613525390625,0.0021931261301040648,-0.005514233376830816,-0.008032554607000201
1761470273874589400,2.39558935546875,0.010125672695040703,0.00880255259880796,-0.0033694946994073686
1761470273884566500,2.40556640625,-0.00857727420926094,0.007050914025353267,-0.0012325922685675322
1761470273894542300,2.415542236328125,0.001005962172150612,0.019168427257891744,-0.002399919014889747
1761470273904519700,2.425519775390625,-0.008269815695285797,0.03208858950966969,0.0047596704161725935
1761470273914495500,2.43549560546875,-0.004381576085090637,0.0291005592753645,0.0007774141132831573
1761470273924472300,2.445472412109375,-0.0105178868830204,0.017260118551691992,0.014966335925552993
1761470273934448400,2.455448486328125,-0.022190789020061493,-0.010780090616317465,0.014684084918070583
1761470273944425500,2.465425537109375,-0.0013876549661159514,-0.004723411792702973,-0.009921820686012505
1761470273954401500,2.475401611328125,0.005198737686872482,-0.02402770385732874,0.013562752737943082
1761470273964378400,2.48537841796875,-0.0034808278530836104,-0.03223072879356332,-0.0010281009387224911
1761470273974354400,2.4953544921875,-0.0004874912559986114,-0.027767310510762033,-0.012281846081931143
1761470273984331300,2.505331298828125,-0.006171382111310958,-0.019746291077928618,-0.0065496225728653365
1761470273994307600,2.5153076171875,-0.000039162966609001156,-0.001979638643050566,-0.010380597304180264
1761470274004284400,2.525284423828125,0.01042728599011898,0.009467683710344135,-0.0071483008520677686
1761470274014260500,2.535260498046875,-0.00857902777493,0.01034256684873253,-0.007374328160285949
1761470274024237300,2.5452373046875,-0.013667290824651717,0.032329695656010876,-0.013210486967861652
1761470274034213600,2.555213623046875,0.002496492990851402,0.03221323880264535,-0.00017347513707354663
1761470274044190500,2.5651904296875,0.0027981062859296795,0.026872982886387033,-0.012813413941673934
1761470274054166500,2.57516650390625,-0.0033405425995588303,0.019421707899216562,-0.0161872742889449
1761470274064142600,2.585142578125,0.0017453823626041411,-0.0036879038656596093,0.01548842357089743
1761470274074119400,2.595119384765625,-0.010823591831326484,-0.010194463614933192,0.011657649768982082
1761470274084095500,2.605095458984375,-0.014118541723489761,-0.021733683769172056,-0.003055606444645673
1761470274094072300,2.615072265625,-0.0054430678367614746,-0.03432880618451163,0.0030283165789209304
1761470274104048400,2.62504833984375,-0.006792728880047798,-0.017081108722975476,0.003977945453952998
1761470274114025500,2.635025390625,0.0006885667860507964,-0.02206881574136205,-0.006800418996158987
1761470274124001500,2.64500146484375,-0.0002069207489490509,-0.01937965885577723,-0.005517210785206407
1761470274133978400,2.654978271484375,-0.002602291452884674,-0.0045235053064301605,-0.006804766377713531
1761470274143954400,2.664954345703125,0.004729366609454154,0.020207168321637436,-0.017153708168305457
1761470274153931300,2.67493115234375,0.010120411998033523,0.014604096750728785,-0.0007406988320872187
1761470274163907600,2.684907470703125,-0.002893383353948593,0.028229667325504124,-0.0028740393326617776
1761470274173884400,2.694884521484375,-0.00723228934109211,0.01410391954309307,0.01161375582832843
1761470274183860500,2.704860595703125,0.0021948796957731247,0.019371338552003726,0.005327496899385005
1761470274193837300,2.71483740234375,-0.004839256724715232,0.0035718306047841904,0.008022362006548791
1761470274203813600,2.724813720703125,0.005786766707897186,-0.0013981580938212572,0.0036910182713530957
1761470274213790500,2.73479052734375,0.007134089663624763,-0.0059328515145462,0.008760887147858738
1761470274223766300,2.744766357421875,0.002345686343312263,-0.011615518527152017,-0.000011452975776046514
1761470274233743400,2.754743408203125,0.0017453823626041411,-0.02218648730427958,0.012224836931377648
1761470274243719400,2.764719482421875,0.011322773525118826,-0.020068435704382135,-0.02382867415389046
1761470274253696500,2.774696533203125,0.0024929858595132827,-0.008056693534413352,-0.019228870474547147
1761470274263672300,2.78467236328125,-0.0064876084536314,0.005361700563086196,-0.00044482115805149076
1761470274273649400,2.7946494140625,0.008476736444234847,-0.001507682882901281,0.004049110994022339
1761470274283625500,2.80462548828125,0.0030891981869935986,0.018331136183533818,-0.01898267716113478
1761470274293602600,2.8146025390625,0.00563712910413742,0.010274634445365518,-0.001994023361429572
1761470274303578400,2.824578369140625,-0.005284077882766723,0.009751606085104867,0.013259002284705638
1761470274313555500,2.834555419921875,0.005639467191696166,0.00320771913328208,0.002257222608570009
1761470274323531300,2.84453125,0.009087561818957328,0.007475185585720464,-0.004111052048020065
1761470274333508600,2.854508544921875,-0.022025953847169873,-0.003207700866973027,-0.002319894314929843
1761470274343484400,2.864484375,-0.009155950880050659,-0.0013138499443884938,0.010707692100387066
1761470274353461500,2.87446142578125,-0.008702361893653868,-0.010382624864485114,0.019317991796415298
1761470274363437300,2.884437255859375,-0.0004717091649770736,-0.007446881939843297,0.017618859728332607
1761470274373414400,2.894414306640625,-0.01439092892408371,-0.00661627633459866,0.000990234880056232
1761470274383390500,2.904390380859375,0.004756254616379738,-0.003431180025078356,0.0026597572611644863
1761470274393367600,2.914367431640625,0.002963525980710983,-0.016411840292438865,0.0023683365665376184
1761470274403343400,2.92434326171875,-0.0006225158125162124,-0.004188711260957643,-0.008362024023383855
1761470274413320400,2.934320556640625,-0.005555880561470985,0.01195102495867759,-0.006286532923579216
1761470274423296500,2.944296630859375,0.005810732105374336,0.013724701834004371,-0.0009056801354512572
1761470274433273600,2.954273681640625,-0.020379940205812453,0.014922122324490918,-0.017868560173083095
1761470274443249400,2.96424951171875,-0.0025789105772972107,0.005000456902105361,-0.004351655870862305
1761470274453226200,2.974226318359375,-0.005574000740051269,0.003124899688037112,0.004517148630879819
1761470274463202600,2.98420263671875,0.001308159989118576,-0.008504537766613066,0.00475316761014983
1761470274473178400,2.994178466796875,0.0029547581523656843,-0.002296248577861115,-0.006313713191449642
1761470274483155500,3.004155517578125,-0.004670914420485496,-0.002263898944528773,-0.0025255912211723623
1761470274493131500,3.014131591796875,-0.004818213936686516,-0.012576490780105814,0.0031829408850520846
1761470274503108600,3.024108642578125,0.0016185411125421523,-0.0028668972058221694,0.008661628024466335
1761470274513084400,3.03408447265625,-0.0024175825357437134,-0.003691575393779203,-0.0019506043448112903
1761470274523061500,3.0440615234375,0.014044891965389251,0.0008746822089888155,-0.003620857378281653
1761470274533037300,3.054037353515625,0.0023696517407894133,-0.005228712700027972,0.009750409641861916
1761470274543014400,3.064014404296875,-0.0043634559065103525,-0.010834478551521897,-0.017126436568889767
1761470274552990500,3.073990478515625,-0.00017243395745754242,-0.005804064902570098,-0.0013556158600375055
1761470274562967600,3.083967529296875,-0.005561725780367851,0.019842052203137426,-0.020246559617109597
1761470274572943400,3.093943359375,0.0035679216146469114,-0.00428087392328307,-0.02043534192116931
1761470274582920400,3.10392041015625,0.0034159459233283995,-0.006189337893109768,-0.00028975846050307153
1761470274592896500,3.113896484375,0.011944120293855666,-0.023060219665197654,-0.014098540115077048
1761470274602873300,3.123873291015625,-0.0060118076354265205,-0.013758649769378826,-0.0001824804274365306
1761470274612849400,3.133849365234375,0.012692892834544181,0.002875272308522835,0.007081921084970235
1761470274622826200,3.143826171875,0.0014759177714586257,-0.007403855648869648,0.004584898371156305
1761470274632802600,3.153802490234375,0.0046212300598621366,-0.0049385889133438466,0.0034743615796789524
1761470274642779400,3.163779296875,0.018536358165740965,0.013534412559447808,-0.003828307850193232
1761470274652755500,3.17375537109375,0.008807575833797454,0.007130655597522855,0.009466405068710446
1761470274662732300,3.183732177734375,0.0007288987964391708,-0.0025437113997526465,-0.00896915960367769
1761470274672708600,3.19370849609375,0.010162497574090957,-0.009348614774784072,0.007548424351867288
1761470274682685400,3.203685546875,0.01674889022707939,-0.015231480534607544,0.013076832384523004
1761470274692661500,3.21366162109375,-0.0022539164066314697,-0.005500168318860232,-0.01083935565603897
1761470274702638300,3.223638427734375,0.0028337621212005614,-0.020349362404458223,-0.004888594025466591
1761470274712614700,3.23361474609375,0.014504910692572592,-0.007325703245587647,-0.017340152384806424
1761470274722591500,3.243591552734375,-0.0010609072297811507,-0.003413781365705654,-0.0021409575514495373
1761470274732567600,3.253567626953125,-0.0021118775874376296,0.008596736961556599,-0.003874174552224576
1761470274742544400,3.26354443359375,0.0067179100781679145,0.006883713365439325,0.014694898573029785
1761470274752520400,3.2735205078125,-0.005696165814995766,0.00413380273594521,0.0022388101690448818
1761470274762497500,3.28349755859375,0.010015198057889937,0.006207887329952791,0.007493406229000538
1761470274772473300,3.293473388671875,0.0020890812337398526,0.011409246232174337,-0.0021188370511867104
1761470274782450400,3.303450439453125,-0.002546177351474762,0.019206220251321793,0.004841795741673559
1761470274792426200,3.31342626953125,-0.0028442835152149197,0.0013230926967691629,0.007999364723451434
1761470274802403300,3.3234033203125,-0.005389876344799995,0.007032848645700141,-0.013777601065021008
1761470274812379400,3.33337939453125,0.002240472403168678,-0.010443022415367886,-0.00974113035686314
1761470274822355500,3.34335546875,0.007622165441513061,-0.006622021088795736,0.007530852162558585
1761470274832332000,3.35333203125,0.005527238988876342,0.0015808668501209467,-0.000050542877148836846
1761470274842308000,3.36330810546875,-0.00898468596637249,-0.01339159742211923,-0.0002994396043010056
1761470274852285200,3.37328515625,-0.0037467853128910064,-0.003995481110643595,0.00393489176351577
1761470274862261000,3.383260986328125,-0.010184709405899047,0.008926681301975622,0.00848627145756036
1761470274872238000,3.393238037109375,-0.0006067337214946747,0.002918700458295643,0.004699172400590032
1761470274882214100,3.403214111328125,-0.0038917467415332794,0.004973934221360832,0.009311086642835288
1761470274892191200,3.413191162109375,0.0112280809789896,0.008334030904760583,0.006216043236944824
1761470274902167000,3.4231669921875,-0.007025953114032745,-0.002304267487535253,0.014525588154420255
1761470274912144100,3.43314404296875,-0.007023615026473999,0.014130332625983281,0.01956321699544787
1761470274922120200,3.4431201171875,0.007042904248833656,0.0019020250958856194,0.005940477698575705
1761470274932097300,3.45309716796875,0.0032990415453910825,-0.002168877604836598,-0.003362626567203551
1761470274942073000,3.463072998046875,0.005393383476138115,-0.006792929809447378,0.00967361807860434
1761470274952050200,3.47305029296875,-0.0005921206742525101,-0.013128334242897107,0.004014368474204093
1761470274962026200,3.483026123046875,-0.00044423663616180415,-0.017862778886267916,-0.009929054144397377
1761470274972003300,3.49300341796875,0.0005973813712596892,-0.006304780966322868,-0.01128452387396246
1761470274981979100,3.502979248046875,0.020046178206801414,-0.0038480902628973126,-0.018347795057389885
1761470274991956000,3.5129560546875,0.008370937982201575,-0.001109495611861348,-0.017138985523208975
1761470275001932000,3.52293212890625,-0.0036006548404693603,-0.002258556049130857,0.007119275686983019
1761470275011909000,3.5329091796875,0.0004436521142721176,0.01420771784428507,-0.006048449851386249
1761470275021885200,3.54288525390625,0.008075169906020164,0.026071429845690726,0.01636942592281848
1761470275031862000,3.552862060546875,0.007924947780370712,0.0019747524053789676,0.005371299508493394
1761470275041838000,3.562838134765625,-0.004200374299287796,0.002198953082691878,-0.004940671272575855
1761470275051815000,3.57281494140625,0.005376432341337204,0.00618657968044281,-0.0009505969894118607
1761470275061791200,3.582791259765625,0.005528992554545403,-0.004266270009195432,0.005890026152972132
1761470275071768000,3.59276806640625,0.0017857143729925154,-0.01639201221396215,0.0034772841891273854
1761470275081744100,3.602744140625,-0.004352349990606308,-0.018788140969723463,-0.009501458115782587
1761470275091721000,3.612720947265625,0.006268997266888618,-0.013334688736265525,-0.008075060308165847
1761470275101697300,3.622697265625,-0.0034603695869445798,-0.0038196861523203548,0.01601555271754041
1761470275111674000,3.632674072265625,0.002080313405394554,-0.0014787673156708477,-0.0018314897434785961
1761470275121650200,3.642650146484375,-0.012584171763062476,-0.0016384513894096015,-0.01493997764158994
1761470275131627000,3.652626953125,-0.009443535649776458,-0.006664298461098224,-0.010165584580320864
1761470275141603000,3.66260302734375,-0.007200140637159347,-0.0008245868564117699,-0.005623922562692314
1761470275151579100,3.6725791015625,-0.0030120412975549694,0.0058498311399016525,0.0039057570005767046
1761470275161556000,3.682555908203125,-0.010042086064815521,0.00792720366953872,-0.003026928339432925
1761470275171532000,3.692531982421875,-0.010787935996055603,0.008515387954190374,0.00694295100569725
1761470275181509000,3.702509033203125,0.006868716725707054,0.005295439526997506,0.008099756358005106
1761470275191485200,3.712485107421875,-0.00016600421667099,-0.005167173504829406,0.00808176404358819
1761470275201462000,3.7224619140625,0.008059387814998627,-0.0015602898529730735,-0.0020009645588696004
1761470275211438000,3.73243798828125,0.00012801029384136198,-0.016567679308122023,-0.016914638715423643
1761470275221415200,3.742415283203125,0.008511223235726355,-0.017825031558610496,-0.004687354098632931
1761470275231391200,3.75239111328125,0.005371756166219711,-0.0037713260991033165,0.0051939153812825675
1761470275241368000,3.7623681640625,-0.00001695113480091095,0.0016117825781926513,-0.0009273257116787135
1761470275251344100,3.77234423828125,0.008957797959446907,-0.009389595239143818,-0.01757924010399729
1761470275261321000,3.782321044921875,-0.0022667758882045745,-0.0007893420130945742,0.0051413632101379335
1761470275271297300,3.79229736328125,-0.01319090548455715,0.009849193841218948,0.00719246878735721
1761470275281274000,3.802274169921875,-0.005856909334659576,-0.001053774236096069,-0.007352317257877439
1761470275291250000,3.81225,-0.0040618426114320755,0.007932674429100006,-0.002982961333543062
1761470275301227000,3.82222705078125,-0.006605097353458404,0.006303155264817178,0.006027955052629113
1761470275311203000,3.832203125,-0.011393500673770905,0.003162080760113895,0.008269998358376324
1761470275321180200,3.84218017578125,-0.0033089784175157544,0.013114707576343788,-0.0013440167537890374
1761470275331156000,3.852156005859375,-0.0048036008894443505,-0.0023903018031734974,0.012301792891416698
1761470275341133000,3.862133056640625,-0.0031587562918663024,0.002285754583310336,0.002221292778663337
1761470275351109000,3.872109130859375,0.004168225595355034,-0.004380982430046424,0.008047295518405734
1761470275361086200,3.882086181640625,0.007755436432361602,-0.004056901574833318,-0.003227291483432054
1761470275371062000,3.89206201171875,-0.00017184943556785583,-0.009300537849357351,0.007723981848172843
1761470275381039000,3.9020390625,-0.00032207156121730803,0.004685363070946186,-0.015359463428985327
1761470275391015200,3.91201513671875,-0.007809796968102455,-0.008919119050027803,-0.01946821392206475
1761470275400991200,3.9219912109375,-0.00018237082958221434,-0.006213842146703973,-0.008840071597602217
1761470275410968000,3.931968017578125,0.011641922476887702,-0.006704383876314386,0.0004867058047093451
1761470275420944100,3.941944091796875,-0.0022767127603292464,0.003434148300299421,-0.022478465121332555
1761470275430921000,3.9519208984375,0.0034048400074243542,-0.0010603683736640959,0.0018142828803509473
1761470275440897000,3.96189697265625,0.0023567922592163085,-0.008431171136302873,-0.006671842446736991
1761470275450874000,3.9718740234375,-0.005576338827610015,0.0016675222202669829,0.003537946601491421
1761470275460850000,3.981849853515625,-0.008570844468474387,-0.005242796024307608,0.017029369402583688
1761470275470827000,3.991826904296875,-0.0007850128978490829,0.0026561679314356297,-0.00799594892365858
1761470275480803000,4.001802978515625,0.003855506384372711,-0.005435149391787126,-0.002146181715838611
1761470275490780200,4.0117802734375,0.0041524435043334956,-0.012026592679228633,0.0038998021838255225
1761470275500756000,4.021755859375,0.013584873238205909,0.01064084654240869,0.006660882661305367
1761470275510733000,4.031733154296875,0.005502104547619819,-0.0052755201169755305,0.006666819211747497
1761470275520709000,4.041709228515625,-0.00078209028840065,-0.005384542582556605,-0.0048573586369864636
1761470275530686200,4.051686279296875,0.0029559271961450573,-0.004472313975309953,0.007063581710681319
1761470275540662000,4.061662109375,0.01253039574921131,-0.0005003324712626636,-0.0030224165610969063
1761470275550639000,4.07163916015625,0.0059510173588991164,0.0014283979684580116,-0.016079009875189513
1761470275560615200,4.081615234375,-0.005869768816232681,-0.0020539825208950786,-0.000029938480537384746
1761470275570592300,4.09159228515625,-0.00467383702993393,-0.006352629562886431,-0.014747158483229576
1761470275580568000,4.101568115234375,0.005647065976262093,0.0014424173606559633,-0.005622771785221994
1761470275590545200,4.111545166015625,-0.00019172317981719968,-0.005111032003955915,0.0059290795217268166
1761470275600521000,4.12152099609375,-0.004383329650759697,-0.00031309367031790315,0.018879435982368884
1761470275610498300,4.131498291015625,0.007137596794962882,-0.0105789876868017,-0.0020445845048874616
1761470275620474000,4.14147412109375,-0.00034486791491508483,-0.0007659702706616371,0.004338193601090461
1761470275630451200,4.151451171875,0.0011509236007928847,-0.011812730732839553,0.020673753786925226
1761470275640427000,4.161427001953125,0.0029401451051235196,-0.0099970596130006,-0.0037362821851857006
1761470275650403000,4.171403076171875,0.002343348255753517,-0.007071463623037562,-0.010443871798738836
1761470275660380200,4.181380126953125,0.0021919570863246918,0.0006114098966121674,-0.0028884331841953098
1761470275670356000,4.19135595703125,-0.0010994856745004653,0.0009737952019087969,0.010166077770665288
1761470275680333000,4.2013330078125,0.00039396775364875793,0.008642037408007308,0.00018282748730853198
1761470275690309000,4.21130908203125,0.0015910685837268828,-0.0009924359702970832,0.000531531327124685
1761470275700286200,4.2212861328125,0.015806640940904615,-0.0035461847068741915,-0.0180157500914298
1761470275710262000,4.231261962890625,-0.003348725906014442,0.000614688699087128,-0.018360417076945305
1761470275720239000,4.241239013671875,0.017599954098463058,0.0029320074644405393,-0.012080131231062113
1761470275730215200,4.251215087890625,0.010572247418761253,-0.00797728988896124,0.007345741386618465
1761470275740192300,4.261192138671875,0.0071329206198453895,0.013985142868477851,0.011198270362615585
1761470275750168000,4.27116796875,-0.0034931028127670287,-0.0041028504752554,0.008333948706369847
1761470275760145200,4.281145263671875,0.018202596166729926,-0.0027353158485610035,-0.006437339571118354
1761470275770121200,4.291121337890625,0.002642623463273048,0.011759265246242285,0.0030874263550154865
1761470275780098300,4.301098388671875,-0.014112111982703209,-0.001387591034034267,-0.002084733852185309
1761470275790074000,4.31107421875,-0.0034849195063114164,-0.013741452039405702,-0.006059628832526504
1761470275800051200,4.32105126953125,-0.005278232663869857,-0.00029509222274646163,-0.0032849399548023936
1761470275810027000,4.331027099609375,-0.01111526825428009,0.005286205907771364,0.012674279465619474
1761470275820004400,4.34100439453125,-0.006779284876585006,0.0023190266652498392,0.001579633874259889
1761470275829980000,4.35097998046875,0.0005529577076435089,0.004550393313355744,-0.014274262008164076
1761470275839957000,4.36095703125,-0.0037836101919412612,-0.00564529414428398,-0.0007000380281358957
1761470275849932800,4.370932861328125,-0.007224690556526183,-0.009143347126804292,0.0063727316359989345
1761470275859910000,4.380909912109375,-0.003032499563694,-0.01238159839566797,0.01234596082670614
1761470275869886000,4.390885986328125,0.007443301743268967,-0.00960149355730973,0.004486150704417377
1761470275879863000,4.400863037109375,-0.00258241770863533,-0.003537809604173526,0.0012101795073598623
1761470275889838800,4.4108388671875,-0.015600304713845253,0.0008976977583952248,0.002539638012833893
1761470275899816000,4.42081591796875,-0.0012380173623561857,-0.0027932839803397652,0.007780388210527598
1761470275909792000,4.4307919921875,0.01881634415090084,0.002340325181605294,0.0017243030419573186
1761470275919769000,4.44076904296875,-0.0069207391738891596,-0.007431337310839444,-0.0005479344726540148
1761470275929745000,4.450744873046875,-0.014400281274318694,-0.017322041339380666,-0.003150956577900797
1761470275939721000,4.460720947265625,0.005201660296320915,-0.0033297380777541547,-0.0244476645687595
1761470275949698000,4.470697998046875,-0.003629296413064003,-0.006334637248469516,-0.01560461556278169
1761470275959673900,4.480673828125,0.0005582184046506881,-0.004946151165291667,-0.007712839399650693
1761470275969651000,4.49065087890625,-0.011114683732390404,-0.004733595259999856,0.0012637180591933428
1761470275979627000,4.500626953125,0.003099135059118271,-0.010931719247763975,-0.02451274742791429
1761470275989604000,4.51060400390625,0.006840075153112411,-0.01815432744505815,-0.015669935883954166
1761470275999580000,4.520579833984375,-0.02443593759834766,0.0065382791949436065,-0.0032487726628780363
1761470276009557000,4.530556884765625,-0.0051291795819997784,-0.002969161137053743,0.002082432297244668
1761470276019532800,4.54053271484375,-0.002883446481823921,0.004120778857590631,-0.005028203425556421
1761470276029510100,4.55051025390625,-0.010512626186013221,0.0018842245777137576,0.010176306903734802
1761470276039486000,4.56048583984375,-0.005123918884992599,-0.009122605732874944,-0.0021454875960946083
1761470276049463000,4.570463134765625,-0.0036281273692846294,-0.0070384381362702695,-0.0004370945093221962
1761470276059438800,4.58043896484375,0.004755670094490051,-0.014770274497335777,-0.0037422187356278298
1761470276069416000,4.590416015625,0.002358545824885368,-0.005541961633972824,-0.0010610898928716777
1761470276079392000,4.60039208984375,-0.004528875601291656,-0.010406535463035107,0.004300144879333675
1761470276089368800,4.610368896484375,-0.010661679267883301,-0.011611682602250949,-0.007436250947974622
1761470276099345000,4.620344970703125,0.0005628945797681808,-0.010331232603965327,-0.018174173789843914
1761470276109321700,4.63032177734375,0.010739420679211615,0.0017577943196054548,-0.0009666165424510836
1761470276119298000,4.640298095703125,-0.0010784428864717482,0.01262000112826936,-0.00447772993594408
1761470276129275000,4.65027490234375,0.005803717842698097,-0.008647307238169014,-0.0027109577254392204
1761470276139251000,4.6602509765625,-0.00033259295523166654,-0.005303641099762171,-0.01249318727767095
1761470276149227800,4.670227783203125,-0.007063947036862373,-0.0004504563143942505,0.009555873450450598
1761470276159204000,4.6802041015625,-0.00870879163444042,-0.012006728068133816,0.004176116640865803
1761470276169181000,4.690180908203125,0.0013227730363607406,0.003358452715585008,0.017199136478919536
1761470276179157000,4.700156982421875,0.004615384840965271,0.009022214098321274,0.009094539549015462
1761470276189133800,4.7101337890625,-0.0006254384219646454,-0.00685097100646235,0.008129676572233438
1761470276199110100,4.720110107421875,-0.008253449082374572,-0.012215438915370032,0.013737743978668003
1761470276209087000,4.7300869140625,-0.00765139153599739,-0.0060424219693988555,0.004504946736432612
1761470276219063000,4.74006298828125,0.00043020811080932614,0.009967504724953323,-0.007278156043123454
1761470276229038800,4.750038818359375,0.0023731588721275327,0.001090653914073482,-0.004847659226879477
1761470276239016000,4.760015869140625,0.02242518229782581,-0.010316911817668006,0.013531846143025904
1761470276248992000,4.769991943359375,-0.0012228197932243347,-0.016970935479924083,-0.005182224943488836
1761470276258968800,4.77996875,0.006711480337381362,0.007491442600777372,0.0024823183350265025
1761470276268945000,4.78994482421875,0.01329553490281105,0.006033900736225769,-0.0022256036275997756
1761470276278921700,4.799921630859375,0.010150807136297225,-0.007101055043702945,0.0010550620108842848
1761470276288898000,4.80989794921875,-0.004814706805348396,-0.004503658961644396,0.007988642400037497
1761470276298875000,4.819875,-0.000772153416275978,-0.0013382263338193297,0.0015754508894868194
1761470276308851000,4.829850830078125,0.006556582036614417,-0.008937823750497773,0.006283354585804045
1761470276318827800,4.839827880859375,-0.004517185163497924,0.002171699749585241,0.0010109671408310532
1761470276328804000,4.84980419921875,-0.019926351219415665,-0.007855115680862218,-0.002211008846666664
1761470276338781000,4.859781005859375,-0.004516016119718551,-0.007747938112495466,0.0029637451764196157
1761470276348757000,4.869757080078125,-0.000028057050704956055,0.0066045676304958756,0.008224058591108769
1761470276358733800,4.87973388671875,0.005510872375965118,-0.007636449695192277,-0.007910426064673811
1761470276368710100,4.889710205078125,-0.0251619137853384,-0.014165887996554374,0.0076766721077263355
1761470276378687000,4.89968701171875,-0.0063052376240491865,0.0003032572628930211,0.008416987347323447
1761470276388663000,4.9096630859375,-0.011245616635680198,0.0003763407654128969,-0.01384863874092698
1761470276398639900,4.919639892578125,-0.0033130700707435607,-0.00322790340478532,0.0026183292722329497
1761470276408616000,4.929615966796875,-0.02336333993077278,0.006637054261146113,-0.010280954588297754
1761470276418593000,4.939593017578125,-0.005555880561470985,0.010704669026238843,-0.003841824918892234
1761470276428568800,4.94956884765625,0.0070101710230112075,-0.01288256105459295,-0.0004968984051607548
1761470276438546000,4.9595458984375,0.0068611179411411285,0.00029566761148162185,-0.0037747875646688043
1761470276448521700,4.969521728515625,0.006262567526102066,-0.021678263787506147,0.017614731542486696
1761470276458499000,4.9794990234375,-0.0025678046613931654,-0.012457814570190384,0.010783789543900638
1761470276468475000,4.989474853515625,0.0011748889982700348,0.0006937270183581858,0.009161266375984996
1761470276478451000,4.999450927734375,0.002523380997776985,0.004246469330182299,-0.011275299387890845
1761470276488427800,5.009427734375,0.0035696751803159714,-0.0025635668776929376,0.012964768578484654
1761470276498404000,5.019404052734375,-0.0024187515795230864,0.005624771946063265,-0.009356314024049787
1761470276508381000,5.029380859375,0.011048048236966132,0.002158867667475715,-0.007873436788842081
1761470276518357000,5.03935693359375,-0.011551906105875968,-0.0003273139919154346,0.0015732771987095474
1761470276528333800,5.049333740234375,0.0023579613029956815,0.002325237210327759,-0.014654858823586255
1761470276538310100,5.05931005859375,-0.002731470790505409,0.004852426733542233,-0.0009490443531423807
1761470276548287000,5.069286865234375,0.009687281277775763,0.0048946584400720895,-0.003946618733927607
1761470276558262800,5.0792626953125,-0.01170388179719448,0.004032552584866062,-0.001223349516186863
1761470276568239900,5.089239990234375,-0.008854337584972382,-0.0010215433337725699,0.01300605043694377
1761470276578216000,5.0992158203125,0.00610942279100418,-0.007724045780254527,-0.008492938660364598
1761470276588193000,5.109193115234375,0.004762099835276604,0.004027182290004566,-0.0037976021846756335
1761470276598168800,5.1191689453125,-0.004519523251056671,0.0012701751994434742,-0.0027175883956253527
1761470276608146000,5.12914599609375,0.008947861087322234,0.00036992015778087076,0.005750599415972829
1761470276618122000,5.1391220703125,0.0029623569369316097,-0.0017888744444586335,-0.006502550294436514
1761470276628099000,5.14909912109375,-0.007517536023259163,-0.0004473784413188696,0.01417471062382683
1761470276638075000,5.159074951171875,-0.007072714865207672,-0.007996606510784477,-0.006080762952100485
1761470276648052000,5.169052001953125,-0.0015419687449932098,-0.0028750805122777817,-0.011639785318728536
1761470276658027800,5.17902783203125,0.01267243456840515,0.006090727223688737,0.015194372527766972
1761470276668004900,5.1890048828125,-0.00902560249865055,0.003926260932488367,0.009471136042755096
1761470276677981000,5.19898095703125,-0.008424713996052742,0.006384531671646982,-0.007744878505729138
1761470276687958000,5.2089580078125,-0.0022878186762332916,-0.005327113306894898,-0.0008371997428126632
1761470276697933800,5.218933837890625,0.00519055438041687,-0.015505913561815394,-0.001054057363886386
1761470276707910000,5.228909912109375,0.006087795481085777,-0.009510308142518624,-0.009409341119229793
1761470276717887000,5.238886962890625,0.0014449381113052367,-0.0052570894111413505,-0.009763250857125967
1761470276727862800,5.24886279296875,-0.006636661535501479,0.0006336125952657312,0.010823007309436798
1761470276737839900,5.25883984375,-0.004843932899832725,0.00162821312318556,0.0001232427871786058
1761470276747816000,5.26881591796875,-0.0012543839752674102,0.007733608193043619,0.002318907934240997
1761470276757793000,5.27879296875,-0.0005079495221376419,0.001725837411917746,-0.011952340132929383
1761470276767768800,5.288768798828125,0.0024900632500648497,0.005803370782826095,-0.01119014185508713
1761470276777746000,5.298745849609375,-0.006785714617371558,0.017904042478417977,-0.011414452130254358
1761470276787722000,5.308721923828125,-0.002744330272078514,0.0069929184941109265,-0.006651329381670803
1761470276797699000,5.318698974609375,-0.009476268875598907,-0.009180719995126128,-0.009577226765733212
1761470276807675000,5.3286748046875,-0.008285597786307334,-0.05383054791684262,-0.03501194787677377
1761470276817652000,5.33865185546875,0.0012900398105382919,-0.06513043375671841,-0.03252782117715105
1761470276827628500,5.348628662109375,-0.006340308937430382,-0.08581227038539946,-0.03119794254656881
1761470276837605400,5.35860546875,-0.00020516718327999114,-0.049578516495553775,-0.03344720104439184
1761470276847581700,5.368581787109375,-0.0055921209186315535,0.004698861873336136,-0.06439873108183965
1761470276857558500,5.37855859375,0.002485387074947357,0.07289188893791287,-0.011515008161589502
1761470276867534600,5.38853466796875,0.009069441640377044,0.10593808056651614,0.02050701891789213
1761470276877511400,5.398511474609375,0.0030851065337657926,0.1130080189527478,0.04289238066198304
1761470276887487700,5.40848779296875,-0.0072451488226652145,0.09836485056695528,0.06865154795441776
1761470276897464600,5.418464599609375,-0.021156769797205925,0.06798783248183317,0.0836573391075246
1761470276907440600,5.428440673828125,0.002336333993077278,0.022087657439149914,0.09053630323261022
1761470276917416400,5.43841650390625,-0.0029033202260732647,-0.03458663513679057,0.05838323365198448
1761470276927393800,5.448393798828125,-0.0030512042641639707,-0.06986735348496585,0.04121714092614129
1761470276937369600,5.45836962890625,0.0006879822641611098,-0.06858715921500698,0.014692396088689564
1761470276947346400,5.468346435546875,0.006675239980220795,-0.08027305783093906,-0.007592610553465783
1761470276957322500,5.478322509765625,0.011916647765040396,-0.08184838085626252,-0.0306608582614921
1761470276967299600,5.488299560546875,-0.0033452187746763227,-0.03756956907087006,-0.05300364123918116
1761470276977275600,5.498275634765625,0.003088613665103912,0.0005333396917209029,-0.10312653941027819
1761470276987252500,5.50825244140625,0.007874094375967979,0.026976671589724718,-0.11011451686779036
1761470276997228500,5.518228515625,0.0006926584392786026,0.04113897938970476,-0.08854880094351246
1761470277007205400,5.528205322265625,0.00203998139500618,0.03510271316645667,-0.0701053269593045
1761470277017181700,5.538181640625,0.0054833998471498484,0.04682447768021375,-0.0203265843170695
1761470277027158500,5.548158447265625,0.000987257471680641,0.016417831641808153,0.019381978677026925
1761470277037134600,5.558134521484375,0.008019640326499938,0.003369238971080631,0.06605672742193565
1761470277047111400,5.568111328125,0.0020335516542196275,0.007852741060685366,0.10534229749729856
1761470277057087700,5.578087646484375,-0.0026040450185537338,0.000013160875672474503,0.09209794479245319
1761470277067064600,5.588064697265625,0.008769581910967826,0.004413487327005714,0.06314463936751707
1761470277077040600,5.59804052734375,-0.009338321709632873,0.0070733085202518845,0.015801234113425017
1761470277087017500,5.608017578125,-0.007549100205302238,0.006324782574735581,-0.017444453009497374
1761470277096993500,5.61799365234375,-0.004708323821425438,-0.01619566765795462,-0.03574840892516076
1761470277106970600,5.627970703125,0.0018745617002248762,-0.015643093542801214,-0.03891220671832561
1761470277116946400,5.637946533203125,0.006661211454868316,-0.01758946010391228,-0.044954555622488256
1761470277126923500,5.647923583984375,-0.0006704466074705124,-0.025510389296291396,-0.03028939460059628
1761470277136899600,5.657899658203125,-0.005160159242153167,-0.010453607741463929,-0.038654907489009196
1761470277146875600,5.667875732421875,-0.0047129999965429305,0.006666654814966023,-0.057761868616938584
1761470277156852500,5.6778525390625,0.008149988707900046,0.014109974824544042,-0.04682330863643437
1761470277166828500,5.68782861328125,0.005605564922094345,0.019216330653382463,-0.028532376599125563
1761470277176805400,5.697805419921875,0.008297288224101066,-0.008452944576693698,0.027724238554015755
1761470277186781700,5.70778173828125,0.008452771046757698,-0.03100273963487707,0.08376427008071914
1761470277196758500,5.717758544921875,0.009348843103647232,-0.03238409272436984,0.12361523722019045
1761470277206734600,5.727734619140625,0.011294131952524185,-0.021914830756047738,0.12584555355552582
1761470277216711400,5.73771142578125,-0.005015197813510895,0.0068093238218221806,0.078249580046162
1761470277226687700,5.747687744140625,-0.008908113598823547,0.031950825006794185,0.006794244983699172
1761470277236664600,5.75766455078125,-0.013248773151636122,0.05551530439970083,-0.058962202583719044
1761470277246640600,5.767640625,-0.0289613060683012,0.055540064381621776,-0.08473755382597446
1761470277256617500,5.777617431640625,-0.005766892963647842,0.018277077041892333,-0.08487239571940153
1761470277266593500,5.787593505859375,0.011142156261205672,-0.012102534859115258,-0.07798442630395293
1761470277276570600,5.797570556640625,-0.009362287107110023,-0.03485029104165733,-0.07387171202180906
1761470277286546400,5.80754638671875,-0.007421089911460876,-0.05901985105508938,-0.06456250680880621
1761470277296523500,5.8175234375,0.0076899699807167045,-0.060674102801829576,-0.029724618590995667
1761470277306499600,5.82749951171875,0.017564298263192175,-0.03974801822165027,-0.03449919431535527
1761470277316476700,5.8374765625,-0.004134907847642899,-0.02289885509102605,-0.00006172185828909278
1761470277326452500,5.847452392578125,-0.011767594683170318,-0.00039500893326476215,0.03225108659500256
1761470277336428500,5.857428466796875,-0.0033908114820718764,0.002844000387424603,0.06547121915156022
1761470277346405600,5.867405517578125,-0.00025075989067554474,0.015761870217416433,0.08303730751303956
1761470277356381700,5.877381591796875,0.00618657968044281,0.022523792967246842,0.087774053711351
1761470277366358500,5.887358642578125,0.0036433249384164807,0.02220920145958662,0.0539106000162661
1761470277376334600,5.89733447265625,0.00020166005194187164,0.040112887744978065,0.0035148762531578537
1761470277386311400,5.9073115234375,0.021447861698269843,0.033859398574475195,-0.059587768869847055
1761470277396287700,5.917287841796875,-0.009977788656949996,0.043159717228123916,-0.11114018838740884
1761470277406264600,5.9272646484375,-0.01716097815930843,0.030642400156194342,-0.12023914838321506
1761470277416240400,5.937240478515625,-0.007883446726202965,-0.010255692282877862,-0.10810978944925591
1761470277426217500,5.947217529296875,0.00348608855009079,-0.06214445848218165,-0.07897522743958979
1761470277436193500,5.957193603515625,-0.015218611919879912,-0.07896629521446302,0.005819700863119215
1761470277446170600,5.967170654296875,-0.008331775015592575,-0.07200674013383686,0.04768007159624248
1761470277456146400,5.977146484375,0.008428805649280547,-0.04043198189781978,0.08532304383004084
1761470277466123500,5.98712353515625,0.004839841246604919,-0.016384340364160015,0.08349588320180773
1761470277476099600,5.997099609375,0.00393792397081852,0.02764263381832279,0.06573237257208675
1761470277486076700,6.00707666015625,-0.0032476036190986633,0.03168789975428954,0.06822057265862821
1761470277496052500,6.017052490234375,0.00902384893298149,0.05276301001687534,0.04687903914535418
1761470277506029600,6.027029541015625,0.0012426935374736784,0.025284033194510266,0.04512722704196349
1761470277516005600,6.037005615234375,-0.0027986908078193665,0.02265039675529115,0.0024653489339165387
1761470277525981700,6.046981689453125,0.010970306825637816,-0.010586120680486782,-0.022643117631133646
1761470277535958500,6.05695849609375,-0.0014496142864227294,-0.029013684709509834,-0.05830375694129616
1761470277545934600,6.0669345703125,-0.003845569512248039,-0.025722324147075412,-0.09152505854163319
1761470277555911400,6.076911376953125,-0.008034253373742103,-0.02620384232001379,-0.10828940206617116
1761470277565887500,6.086887451171875,-0.017463760498166083,-0.02322538363165222,-0.10014582483274861
1761470277575864600,6.096864501953125,-0.009383914417028426,-0.021705635851621625,-0.040161750121694054
1761470277585840400,6.10684033203125,0.011114683732390404,-0.014347683437401428,0.0037483744817785915
1761470277595817500,6.1168173828125,-0.007137596794962882,-0.0032862459958996624,0.037196890700422224
1761470277605793500,6.12679345703125,0.0027396540969610215,0.00967644935650751,0.07341549268690868
1761470277615770600,6.1367705078125,0.018305472019314765,0.0248989702665247,0.0940574630960822
1761470277625746400,6.146746337890625,0.0025917700588703155,0.029976748454850165,0.10698354363199322
1761470277635723500,6.1567236328125,0.00469078816473484,0.04052387056550942,0.05900839807931334
1761470277645699600,6.166699462890625,0.009035539370775222,0.03284608421293087,0.027228034268599002
1761470277655676700,6.1766767578125,-0.009666238489747047,0.032225331099238246,-0.023604729204904286
1761470277665652500,6.186652587890625,0.0036550153762102125,0.012803577534249051,-0.04068634025137871
1761470277675629600,6.196629638671875,-0.0008323591709136962,-0.021638881625188514,-0.07398275291454047
1761470277685605600,6.206605712890625,-0.012052841365337371,-0.040741696300962936,-0.06809289115834981
1761470277695582700,6.216582763671875,-0.006962824749946594,-0.04740782139296643,-0.0635380043329671
1761470277705558500,6.22655859375,0.003059387570619583,-0.03113538043806329,-0.0636523696939461
1761470277715535600,6.23653564453125,0.0027571897536516187,-0.01968236812939867,-0.0421201724467799
1761470277725511400,6.246511474609375,0.00006546645164489745,0.004188866524584591,-0.02512154524233192
1761470277735488800,6.25648876953125,-0.0009808277308940886,0.01173280649757944,0.011920118363760411
1761470277745464600,6.266464599609375,0.00455225647687912,0.016413593858107922,0.02993999664103612
1761470277755440400,6.2764404296875,-0.003523497951030731,-0.0062381363377440715,0.05998995646256953
1761470277765417500,6.28641748046875,-0.0023240590333938596,-0.01391014140350744,0.09235402017906308
1761470277775393500,6.2963935546875,-0.0029208558827638624,-0.02170095054334961,0.07251005001347512
1761470277785370600,6.30637060546875,0.006653612670302391,-0.029770183898927643,0.03667498571816832
1761470277795346400,6.316346435546875,0.015482231292128562,-0.026536663604108616,0.006526241697277874
1761470277805323500,6.326323486328125,-0.0015747019708156585,-0.0026640772432554513,-0.029740199752617626
1761470277815299600,6.336299560546875,0.0008218377768993377,0.0025348339735530314,-0.04318016636110842
1761470277825276700,6.346276611328125,-0.010400982505083084,0.007722292214585468,-0.051225379520282145
1761470277835252200,6.356252197265625,0.0029179332733154295,-0.01343592062103562,-0.04465159062054008
1761470277845229300,6.366229248046875,-0.006958148574829101,-0.005109799028094858,-0.028233923375513403
1761470277855205400,6.376205322265625,0.0021720833420753476,0.013716372397076338,-0.03127433225102722
1761470277865182500,6.386182373046875,0.018185645031929015,0.043393662981316444,-0.03675327511876821
1761470277875158300,6.396158203125,-0.0032160394370555874,0.07341219561812468,-0.012161818165145813
1761470277885135400,6.40613525390625,-0.024018004447221755,0.04064367928658612,0.020430464816652238
1761470277895111400,6.416111328125,0.007111877831816673,0.04969099129354581,0.09416992876091972
1761470277905088500,6.426088623046875,0.017135259196162222,0.01777750262245536,0.05407749928208068
1761470277915064300,6.436064208984375,-0.004113280537724495,0.007846484849834814,-0.02790545860612765
1761470277925040000,6.4460400390625,-0.010097615644335747,-0.009121171827614306,-0.013067607898451386
1761470277935017500,6.456017578125,-0.016681085687875748,-0.02893843664936721,-0.02730672552799806
1761470277944993300,6.4659931640625,0.0035170682102441788,-0.04956318192910403,-0.02682423924067989
1761470277954970400,6.475970458984375,-0.010550035586953162,-0.06956698229890317,-0.006081731066480279
1761470277964946200,6.4859462890625,-0.027904490491747855,-0.061932560164015736,0.017626111453026533
1761470277974923300,6.49592333984375,-0.006806757405400276,-0.053872889221226794,0.019089462003856895
1761470277984899300,6.5058994140625,0.009051905983686447,-0.0288008091438096,0.04409423073241487
1761470277994876400,6.51587646484375,0.014729951620101928,-0.0027268676806241274,0.05101586495544761
1761470278004852200,6.525852294921875,-0.015947510716319082,0.029228670033905654,0.02585170441409573
1761470278014829300,6.535829345703125,0.007243979778885841,0.04169696033233777,0.00784466735208407
1761470278024805400,6.545805419921875,0.006944120049476623,0.04648839585995301,-0.007288640904519706
1761470278034782500,6.555782470703125,0.0012555530190467834,0.03331546442350373,-0.013746639671176671
1761470278044758300,6.56575830078125,-0.005029810860753059,0.00347356699523516,-0.016494276145193724
1761470278054735400,6.5757353515625,0.0030476971328258513,-0.02353743612235412,-0.028996322582755234
1761470278064711400,6.58571142578125,0.006336801806092262,-0.02337794384486042,-0.04076145131420344
1761470278074688300,6.595688232421875,-0.006235094997286797,-0.023922517316648736,-0.04416870247442275
1761470278084664300,6.605664306640625,-0.00024725275933742524,-0.014103499417984857,-0.05019318692833185
1761470278094641200,6.61564111328125,-0.0008417115211486816,-0.0103131672243122,-0.046920467134285715
1761470278104617500,6.625617431640625,0.0018500117808580398,0.002202323216712102,-0.03454065883690491
1761470278114594300,6.63559423828125,0.004540566039085388,0.00817104062908329,-0.010651724129449576
1761470278124570400,6.6455703125,-0.000398059406876564,0.003750109781138599,0.03270697713633999
1761470278134546200,6.655546142578125,-0.012668927437067032,-0.0027631902361754325,0.054648796364013104
1761470278144523300,6.665523193359375,0.0009463409394025802,-0.015470486055407672,0.059219721008744085
1761470278154499300,6.675499267578125,-0.007585340562462807,-0.001685541934147477,0.04401504628267139
1761470278164476400,6.685476318359375,0.007677695021033286,0.009144698833674192,0.010770016746874897
1761470278174452200,6.6954521484375,-0.016261398971080778,-0.0008711568113416433,-0.0037942594501189884
1761470278184429300,6.70542919921875,0.0061883332461118695,0.005999934534542262,-0.03437169547816738
1761470278194405400,6.7154052734375,-0.00009293898046016692,0.004419049418112263,-0.037257096455059945
1761470278204382500,6.725382568359375,-0.004881926822662353,-0.004129601484863087,-0.06525733893886208
1761470278214358300,6.735358154296875,0.0033493104279041287,0.0011774188820738345,-0.0395959877314046
1761470278224335400,6.74533544921875,0.003500701597332954,-0.00039006789666600524,-0.0406126904932782
1761470278234311400,6.7553115234375,-0.014459902507066726,-0.004879972327593714,-0.023839633939322084
1761470278244288300,6.765288330078125,-0.002786415848135948,-0.008314001896884292,-0.007788005261402576
1761470278254264300,6.775264404296875,0.0037999768048524855,0.002324817085219547,-0.013441300049051641
1761470278264241200,6.7852412109375,0.013826280778646468,0.00765081614726223,0.013015895977523177
1761470278274217500,6.795217529296875,0.007387772163748741,-0.0198899738649372,0.037486375166289505
1761470278284194300,6.8051943359375,0.005144377151131629,-0.022465623906068502,0.06479041554685681
1761470278294170400,6.81517041015625,0.010081833553314209,-0.03748444807068445,0.05420607583150267
1761470278304146200,6.825146240234375,-0.0056336219727993,-0.041752298115612936,0.03421319871451706
1761470278314123500,6.83512353515625,-0.0020417349606752394,-0.018132097346941007,0.015689572166185824
1761470278324099300,6.845099365234375,-0.007432195827364921,0.00005977649637497961,0.0007640797076746821
1761470278334076400,6.855076416015625,-0.003686579558253288,0.0181408286426682,-0.03456424064189195
1761470278344052200,6.86505224609375,0.0034983635097742076,0.031731181773589925,-0.06191960935089737
1761470278354029300,6.875029296875,-0.006827215671539306,0.02742306365035474,-0.05693111688122153
1761470278364005400,6.88500537109375,0.009786649999022482,0.02930853947023861,-0.05376545592453331
1761470278373982500,6.894982421875,-0.004876666125655174,0.018484856307366862,-0.014944544218853115
1761470278383958300,6.904958251953125,0.006790390792489051,-0.0032645638870541006,0.010652747042756526
1761470278393935000,6.91493505859375,0.004396773654222488,-0.023462188062211498,0.030057083682063966
1761470278403911400,6.924911376953125,-0.00009118541479110717,-0.03130667275120504,0.02961593405213207
1761470278413888300,6.93488818359375,0.016815525722503662,-0.030529861426120623,0.04224279417945072
1761470278423864300,6.9448642578125,-0.00892448021173477,-0.024809410553239285,0.044697512121498584
1761470278433841200,6.954841064453125,0.0025970307558774944,-0.013877645639702677,0.028122553689219055
1761470278443817500,6.9648173828125,0.010975567522644995,-0.015115325075341388,0.0012174860309809446
1761470278453794300,6.974794189453125,-0.001744213318824768,-0.016708658681390806,-0.0028627507536672053
1761470278463770400,6.984770263671875,-0.004734042784571647,0.0036275519805494694,-0.009345427303854376
1761470278473746200,6.99474609375,-0.00473521182835102,0.019989680512901394,-0.027370146153029053
1761470278483723500,7.0047236328125,0.004994155025482177,0.03267803416964598,-0.03972498440593481
1761470278493699300,7.01469921875,0.004396773654222488,0.03958045223555527,-0.04117920180223882
1761470278503676400,7.024676513671875,0.001404021579027176,0.0330020510927774,-0.018149715202022344
1761470278513652200,7.03465234375,0.0009562778115272521,0.017375086700869725,-0.0128931829133071
1761470278523629300,7.04462939453125,0.0039472763210535045,0.0002042630009818822,0.00932756285360083
1761470278533605400,7.05460546875,0.007535656201839446,-0.018136910519376395,0.015377145216148346
1761470278543582200,7.064582275390625,0.003344634252786636,-0.03406272999369539,-0.0006426452850922941
1761470278553558300,7.074558349609375,0.003645663025975227,-0.026752480045566334,0.03609362389994785
1761470278563535000,7.08453515625,0.011126958692073821,-0.04906964452480897,0.02948761323103681
1761470278573511400,7.094511474609375,-0.00024549919366836546,-0.03420121601577848,0.01980122700240463
1761470278583488300,7.10448828125,-0.0012882862448692321,-0.016173501491919158,-0.0014530300862155854
1761470278593464300,7.11446435546875,-0.004574468308687209,-0.004574340444523841,0.0006151362236589193
1761470278603441200,7.124441162109375,0.0009627075523138045,0.011093293884489685,-0.01960579576184973
1761470278613417500,7.13441748046875,0.004252981269359589,0.025504297482222316,-0.036537787470873447
1761470278623394300,7.144394287109375,-0.001883329528570175,0.03127340980242006,-0.022044366286695004
1761470278633370400,7.154370361328125,0.0030529578298330307,0.014985040626022964,-0.02741056949496269
1761470278643346400,7.164346435546875,0.00978898808658123,0.024915610874071716,-0.033929869994800535
1761470278653323500,7.174323486328125,0.007692892590165138,0.0060220367684960365,-0.00492868857383728
1761470278663299300,7.18429931640625,0.0020078326910734174,0.0027967271795962005,-0.008364489975105971
1761470278673276400,7.1942763671875,-0.004425999748706817,-0.013072658532904461,0.004989332719892263
1761470278683252200,7.204252197265625,0.0008113163828849792,-0.022872067548800258,0.018130005854554473
1761470278693229300,7.214229248046875,0.004106850796937942,-0.01471204150407575,0.02106129179978743
1761470278703205400,7.224205322265625,-0.0014314941078424452,-0.013356005518930032,0.01516229688907042
1761470278713182200,7.23418212890625,0.00021685762107372282,-0.012696317767491564,0.005730378611851483
1761470278723158300,7.244158203125,0.006353752940893173,0.004510380963375792,-0.0016823270637542009
1761470278733135000,7.254135009765625,0.0021598083823919294,0.002565694902697578,-0.007904105921741575
1761470278743111400,7.264111328125,-0.00502279659807682,0.016764562720246613,-0.020868125581555066
1761470278753088300,7.274088134765625,-0.008315992924571037,0.00971566712204367,-0.03664895622776821
1761470278763064300,7.284064208984375,0.007696399721503257,-0.0013622099976055323,-0.027628650958742944
1761470278773041200,7.294041259765625,-0.008164017233252524,0.010824541679397224,-0.0284134811935015
1761470278783017500,7.304017578125,-0.004878419691324234,-0.007177006356744095,-0.02727298765517771
1761470278792994300,7.313994384765625,-0.0036789807736873625,-0.020604113483661785,-0.0022879465403966605
1761470278802970400,7.323970458984375,-0.0018856676161289215,-0.02940158804855309,0.00899467763742432
1761470278812946400,7.333946533203125,0.0017068039178848265,-0.036123891174048184,0.011793350178934634
1761470278822923500,7.343923583984375,0.005899579432606696,-0.012460417519230394,0.023848438300285487
1761470278832899000,7.353899169921875,-0.00636953503191471,-0.009543936417484656,0.020633732303790748
1761470278842876000,7.3638759765625,0.0064963762819767,0.0036146377000492065,0.01799130976991728
1761470278852852200,7.373852294921875,0.0005061959564685822,-0.00454827442150563,-0.003627835108339786
1761470278862829000,7.3838291015625,0.008889408898353577,0.026394624784914774,-0.014269202240556477
1761470278872805000,7.39380517578125,-0.007421089911460876,0.0300579969975166,-0.013938070590049027
1761470278882782000,7.403781982421875,0.004104512709379196,0.021854396672546864,-0.020852507887315005
1761470278892758000,7.413758056640625,-0.009364040672779083,0.02302061830717139,-0.023570552940666675
1761470278902735000,7.423735107421875,0.004398527219891548,0.018605130819324404,-0.008880951597262174
1761470278912711200,7.433711181640625,-0.014606617501378058,-0.0021425193208735433,-0.01516668080324307
1761470278922688000,7.44368798828125,-0.0030821839243173597,-0.003132452806830406,-0.00903734773537144
1761470278932664000,7.4536640625,-0.0015840543210506439,-0.03569680660208687,0.008005648333765566
1761470278942641000,7.463640869140625,-0.006667641195654868,-0.047604640873009335,0.014264891391620039
1761470278952617200,7.4736171875,-0.0024795418560504914,-0.006223879483528435,0.004641085537802428
1761470278962594000,7.483593994140625,-0.010261866295337676,-0.027843307489575815,0.000992171108815819
1761470278972570000,7.493570068359375,-0.0021785130828619,-0.011935790856927633,0.005260441278852522
1761470278982546200,7.503546142578125,-0.005168927070498466,0.011491097563039511,-0.007545045084692537
1761470278992523000,7.51352294921875,-0.00037760114073753353,0.026321093757823107,-0.02471979604102671
1761470279002499000,7.5234990234375,0.004558101695775986,0.03555632041916251,-0.02418830124652013
1761470279012476000,7.533475830078125,-0.01220540157854557,0.013501944195106625,-0.014237747656367719
1761470279022452200,7.5434521484375,-0.008614099088311195,-0.0050676495199557395,-0.0018729907976463437
1761470279032429000,7.553428955078125,0.0018617022186517714,-0.005799489192152395,0.012395699986256658
1761470279042405000,7.563405029296875,-0.003971241718530655,-0.02088722300766967,0.0029533333802595732
1761470279052382000,7.5733818359375,-0.01729015749692917,-0.01677608876125887,0.019258571493066846
1761470279062358000,7.58335791015625,-0.0030792613148689267,-0.022004107341542838,0.028378738673683256
1761470279072335000,7.593335205078125,0.0023111995518207548,-0.008599878766713663,0.004524181159865111
1761470279082311200,7.603311279296875,-0.004273439535498619,-0.005874408458732068,0.0017812208609655497
1761470279092288000,7.6132880859375,-0.004274608579277992,-0.019435325432615353,-0.016970533621124922
1761470279102264000,7.62326416015625,0.004560439783334732,0.0005161236954387277,-0.014381795769557356
1761470279112241200,7.6332412109375,0.007706336593627929,-0.009587994754919782,-0.013377441032603382
1761470279122217200,7.64321728515625,0.008749708166718483,0.010591728437365963,-0.0198094651077874
1761470279132194000,7.653194091796875,-0.010106967994570731,0.010176535232597962,0.000304316708818078
1761470279142169900,7.663169921875,0.0023141221612691877,0.012769538267329334,-0.009158581228554247
1761470279152146200,7.673146240234375,0.0051519759356975555,-0.006368493852298707,-0.008599102448578923
1761470279162123000,7.683123046875,-0.014749240842461585,-0.019302675496274603,-0.014910477552469818
1761470279172099000,7.69309912109375,-0.011602174988389015,-0.00838419932257384,0.007206990503054112
1761470279182076000,7.703075927734375,0.0006646013885736465,-0.0028524211558979004,-0.0009885361133143305
1761470279192052200,7.71305224609375,0.009790741652250289,-0.022918600971112025,0.010473024827986954
1761470279202029000,7.723029052734375,-0.0011339724659919738,-0.014113947746763006,0.012085647656396031
1761470279212005000,7.733005126953125,0.00006488192975521087,-0.0022692327067721633,0.005542436558008194
1761470279221982000,7.74298193359375,0.005901917520165443,0.003395533322962001,0.006582922054268419
1761470279231958300,7.752958251953125,0.0011170213311910628,0.006112728992942721,-0.00412350967079401
1761470279241935000,7.76293505859375,-0.008158756536245346,0.0018828911371529102,0.0025324410870671272
1761470279251911200,7.7729111328125,0.006056815820932388,0.005630699363350868,0.003276994110364467
1761470279261888000,7.782887939453125,-0.0033656770408153533,0.0058537583963479845,-0.003469721937179565
1761470279271864000,7.792864013671875,-0.003068155398964882,-0.013210971025051548,-0.005806074196565896
1761470279281841200,7.802841064453125,-0.006961655706167221,-0.014615421862341462,-0.012767656837496906
1761470279291817000,7.81281689453125,0.0090495678961277,-0.0075573931096121665,0.0026882892359048126
1761470279301793000,7.82279296875,0.0005190554380416869,-0.001313155824644491,-0.0032621253347955644
1761470279311769900,7.832769775390625,0.00575695609152317,-0.002659391934983432,-0.0009882255860604345
1761470279321746200,7.84274609375,0.0005219780474901199,0.006775266288593411,-0.009600607641320674
1761470279331723000,7.852722900390625,0.0008142389923334122,0.013029166451049968,-0.01021510454416275
1761470279341699000,7.862698974609375,0.009790741652250289,0.0030419067128561435,-0.007005220853257924
1761470279351676000,7.872676025390625,-0.008913374295830726,0.009171833435771987,-0.0038451859197579322
1761470279361652200,7.88265234375,0.0017126491367816924,0.004664767807489261,-0.004879223408922553
1761470279371629000,7.892629150390625,0.0011164368093013763,-0.00950438072523102,-0.006302369813527911
1761470279381605000,7.902605224609375,0.0005173018723726272,-0.013326788557600229,-0.002712930486816913
1761470279391582000,7.91258203125,0.004108019840717315,0.0007570837113074957,0.0031466457289643585
1761470279401558300,7.922558349609375,0.0015630115330219267,-0.008768787326524034,-0.004333992350008338
1761470279411535000,7.93253515625,-0.006822539496421813,-0.0078116235990077255,-0.013729925998393445
1761470279421511200,7.94251123046875,-0.002037058785557747,-0.013416594866057858,-0.010666008383128792
1761470279431487000,7.952487060546875,-0.011616203513741492,0.0071455061067827045,-0.014454714875295758
1761470279441464000,7.962464111328125,-0.0071282444447278975,0.020086373219871893,-0.0098255755036138
1761470279451440000,7.972440185546875,-0.007726210337877273,0.005089724354445934,0.011102061712834984
1761470279461417000,7.9824169921875,-0.007128828966617584,0.016812265186337754,0.016786865883599966
1761470279471393000,7.99239306640625,0.00723228934109211,0.013240507646789773,0.009304912630375474
1761470279481369900,8.002369873046876,-0.004887772041559219,0.017347933832462876,-0.013288867700006812
1761470279491346200,8.01234619140625,-0.010277063864469528,0.0013104341445956378,0.0004021693264134228
1761470279501323000,8.022322998046874,-0.022246903121471404,-0.0029982228347565977,-0.0019594452383928
1761470279511299000,8.032299072265625,-0.010278817430138587,-0.003198156720492989,-0.012319675607979298
1761470279521276000,8.04227587890625,0.002288403198122978,-0.01870656363349408,-0.0024826105959713457
1761470279531252200,8.052252197265625,-0.0010083002597093581,-0.0014297405421733855,-0.003305946210213005
1761470279541229000,8.06222900390625,-0.009244213685393333,0.004424100052565336,-0.009010130934882909
1761470279551205000,8.072205078125,-0.010742927810549736,-0.005100346213160082,0.00001992854317650199
1761470279561182000,8.082181884765625,-0.012986322823166847,-0.004014660735148936,-0.02060993130309507
1761470279571158300,8.092158203125,0.009753916773200035,0.0010836396513972432,-0.0023994440908543762
1761470279581135000,8.102135009765625,0.008556231421232224,0.005931107082031667,0.0029294775806367394
1761470279591111200,8.112111083984376,0.006910217779874802,-0.003528694715956226,0.008881627450697123
1761470279601087000,8.1220869140625,-0.008355740413069725,0.009146781192906201,-0.006769987325277179
1761470279611064000,8.13206396484375,0.009599602994322776,0.004555955404462292,0.00423361898176372
1761470279621040000,8.1420400390625,-0.003568506136536598,0.0009404409215785563,-0.010057722025364637
1761470279631017000,8.152016845703125,-0.0029699557214975356,-0.010574338911147788,-0.02247099420093
1761470279640993000,8.161992919921875,-0.010000585010647774,-0.02136139812436886,-0.016098737488966435
1761470279650969900,8.171969970703126,-0.004763853400945663,-0.019630820605251936,0.00020527678113430736
1761470279660946200,8.1819462890625,-0.007903320470452307,-0.01718614913318306,-0.01221606910303235
1761470279670923000,8.191923095703125,0.018731003955006598,-0.00848241726635024,-0.0024912322938442227
1761470279680899000,8.201899169921875,0.02037526403069496,0.0044243101151194425,-0.010423249135818331
1761470279690876000,8.2118759765625,0.0001695113480091095,0.009329078957252204,-0.0015400142499245703
1761470279700852200,8.221852294921876,0.002111293065547943,-0.00083535484559834,-0.005061502906959504
1761470279710829000,8.2318291015625,0.002714519655704498,0.012501178787881508,-0.0010709171671420335
1761470279720805000,8.24180517578125,-0.011498130092024803,0.0036475079231895503,0.007879300274048
1761470279730781200,8.25178125,0.0057101943403482435,-0.013920178740331902,0.011798811805341392
1761470279740758300,8.26175830078125,0.0036181904971599576,-0.011840230661118402,0.00800864400845021
1761470279750734000,8.271734130859375,0.0016717326045036314,-0.006751392222661525,0.008718947702273726
1761470279760711000,8.2817109375,0.005115735578536987,-0.016039152788836507,0.021076434569992124
1761470279770688000,8.29168798828125,-0.005808978539705276,-0.0059278648121748115,-0.004683408575877547
1761470279780664000,8.3016640625,0.003168693163990974,-0.02171166373360902,0.0037125542497262356
1761470279790641200,8.31164111328125,0.0018219547301530836,-0.003908496946934611,0.01612043786412105
1761470279800617000,8.321616943359375,-0.0022223522245883942,-0.003493185011157766,-0.009530812074430286
1761470279810593000,8.331593017578125,0.003007365122437477,-0.005680529854446649,-0.017050211261212825
1761470279820570000,8.341570068359376,0.010485738179087638,0.003601084098732099,-0.021151253371872007
1761470279830546400,8.35154638671875,0.006294131708145141,0.013951249732030555,0.00034254809366539117
1761470279840523500,8.3615234375,0.008685410758852959,-0.0017774123355280608,0.005028093827702105
1761470279850499300,8.371499267578125,0.005691489639878273,-0.012723854228388518,0.00909709683228284
1761470279860476400,8.381476318359375,0.003743278181552887,0.0005652144010178745,0.002623334240913391
1761470279870452500,8.391452392578126,0.0014905308187007902,-0.0042700968009419735,-0.0018338095647282898
1761470279880429600,8.4014296875,-0.0010538929671049118,-0.009993817343143746,-0.009780256790854036
1761470279890405400,8.4114052734375,-0.006443769311904907,-0.008530877784267067,-0.002071143718250096
1761470279900382500,8.421382568359375,-0.001202361527085304,-0.012501206187345086,-0.00017044292977079747
1761470279910358500,8.431358642578125,-0.009284545695781707,0.0000624342443421483,-0.007411828892771154
1761470279920335600,8.441335693359376,-0.013026070311665534,0.005306015719939023,-0.022837544224690646
1761470279930311400,8.4513115234375,-0.001050970357656479,-0.02506034397385083,-0.004602561892010271
1761470279940287200,8.461287353515624,-0.004942132577300072,-0.007999693517014383,-0.01599967929497361
1761470279950264600,8.4712646484375,-0.0031499884635210035,0.0052822329855524,0.004839147126860916
1761470279960240400,8.481240478515625,-0.0009077624946832656,0.008013585045048966,-0.013801475130952893
1761470279970217500,8.491217529296875,0.012556699234247208,0.0015895342137664556,-0.03375803882554173
1761470279980193300,8.501193359375,-0.0009089315384626388,-0.0009483411002438515,-0.021275683469139037
1761470279990170400,8.51117041015625,-0.005251344656944275,0.01135404544621706,-0.022473277489561586
1761470280000146400,8.521146484375,-0.013481412863731383,0.0034933128753211347,-0.0007957169549539685
1761470280010123500,8.53112353515625,-0.0018079262048006056,-0.012934510437538847,-0.003381258202437311
1761470280020099300,8.541099365234375,-0.008090367475152016,-0.00785327991680242,-0.0025494652871042487
1761470280030076400,8.551076416015626,0.0029787235498428344,-0.002983582388050854,-0.00242795779928565
1761470280040052500,8.561052490234376,-0.0022609306693077086,-0.0069525134184863415,-0.012858513458725063
1761470280050029600,8.571029541015625,-0.010941080731153487,0.0018901063292287288,0.020508754217252134
1761470280060005400,8.58100537109375,0.003276245191693306,-0.010747037730086595,-0.02673630522890016
1761470280069982500,8.590982421875,0.009562193593382834,0.0031171182403806597,-0.00962420771261677
1761470280079958500,8.60095849609375,0.005368833556771278,0.004981259011290967,-0.009106083856336772
1761470280089935600,8.610935546875,-0.01587619904577732,-0.00943579073473811,-0.005953592908475548
1761470280099911400,8.620911376953124,-0.010940496209263802,-0.00011211860496550797,-0.00829407335370779
1761470280109887500,8.630887451171875,0.0025227964758872986,-0.0038480719965882596,0.014454678342677652
1761470280119864600,8.640864501953125,0.002220014137029648,-0.004824470147537068,-0.0016556765188463032
1761470280129840400,8.65084033203125,0.009099836778640747,-0.013600618796609341,-0.013829915774147957
1761470280139817500,8.6608173828125,-0.0015256021320819854,-0.006795386628014966,-0.021526041501015423
1761470280149793300,8.670793212890626,-0.00003039513826370239,-0.006029982612933963,0.0052810091428458685
1761470280159770400,8.680770263671874,0.017626257583498953,-0.012958895960124209,0.004509750775713473
1761470280169746400,8.690746337890625,0.007450900527834892,0.0037584848838392642,0.0015517229540273547
1761470280179723500,8.7007236328125,0.006703881552815437,0.005407064941618591,-0.017412596566509453
1761470280189699300,8.71069921875,-0.0012298340559005736,-0.004521021088398993,-0.014660539645701645
1761470280199676400,8.720676513671876,-0.0031768764704465866,-0.0005730141149833799,-0.008313125114049762
1761470280209652500,8.730652587890624,0.00206219322681427,0.027480154999298973,-0.025477153746969995
1761470280219629600,8.740629638671875,0.0020657003581523894,0.0031382980257272717,-0.03623695962708443
1761470280229605400,8.75060546875,-0.02052957780957222,-0.011026932383701204,-0.002152775853406638
1761470280239581400,8.76058154296875,-0.011551906105875968,-0.01673499869904481,0.009220778010878712
1761470280249558500,8.77055859375,-0.0019739304214715955,-0.03484928639465943,0.0029762758644297717
1761470280259534300,8.780534423828126,0.0013145897299051284,-0.025886940124258396,0.01827383477203548
1761470280269511400,8.790511474609374,-0.001830138036608696,-0.02823117429600097,0.027890827292576432
1761470280279487500,8.800487548828125,0.0014607202023267745,-0.015363591614831237,0.006899623320624232
1761470280289464600,8.810464599609375,-0.00841653068959713,-0.015442666466720401,-0.0055779462628066535
1761470280299440400,8.8204404296875,0.002508183428645134,-0.0011474986678455025,0.013046236316859722
1761470280309417500,8.83041748046875,-0.003031330519914627,0.006769128808751702,0.022000563677586613
1761470280319393300,8.840393310546874,0.00639525399506092,-0.0004385923466645181,-0.008140910352300853
1761470280329370600,8.85037060546875,0.005643558844923973,0.012323840326443314,-0.035818222758360205
1761470280339346400,8.860346435546875,0.003850830209255218,0.03224843798018992,-0.032195301287155594
1761470280349323500,8.870323486328125,0.008784779480099678,0.015385337655758485,-0.06295821341732516
1761470280359299300,8.88029931640625,-0.005433715486526489,-0.00318841164461337,-0.03987542572729289
1761470280369276400,8.8902763671875,0.006534954726696014,-0.019186054246127605,-0.006580273439455777
1761470280379252500,8.90025244140625,-0.0012444471031427384,-0.03488313386533409,-0.009432904657907783
1761470280389228300,8.910228271484375,-0.011869301491975784,-0.0405276060257107,0.013577840709220617
1761470280399205400,8.920205322265625,-0.001991466078162193,-0.04082189453085884,0.030321999962255358
1761470280409181400,8.930181396484375,-0.0037900399327278136,-0.03503160242531449,0.03040087388474494
1761470280419158500,8.940158447265626,0.010721300500631331,-0.030138889347156507,0.02983987900111824
1761470280429134300,8.95013427734375,-0.0024485621958971024,-0.008245969028817489,-0.003390829748380929
1761470280439111400,8.960111328125,0.008028992676734924,0.02975869439053349,-0.010481829188950359
1761470280449087500,8.97008740234375,-0.0028945523977279663,0.02395370703935623,-0.02125564532810822
1761470280459064600,8.980064697265625,-0.008277414479851723,0.03609338643793016,-0.021129626061953604
1761470280469040400,8.990040283203125,0.008034253373742103,0.02349311292343773,-0.031701873480714855
1761470280479017500,9.000017578125,0.002347439908981323,0.012202816895814612,-0.044910040627326814
1761470280488993300,9.0099931640625,-0.002590601015090942,0.0024095179602969434,-0.03312156755290925
1761470280498970600,9.019970703125,0.00010346037447452545,-0.01811939312899485,-0.018137221046630292
1761470280508946400,9.029946533203125,0.0029489129334688184,-0.025872043949225917,-0.02487843893514946
1761470280518923500,9.039923583984375,-0.006627893707156181,-0.03384162545576692,-0.01101885867509991
1761470280528899300,9.0498994140625,0.009685527712106705,-0.03378678999599069,0.012264146028459072
1761470280538875400,9.05987548828125,-0.0024339491486549377,-0.028966877292562275,0.0317453838288784
1761470280548852500,9.0698525390625,-0.010664601877331733,-0.019730417655361814,0.02118325594533235
1761470280558828300,9.079828369140625,0.002056348007917404,0.0032299309650901703,0.02405267390180379
1761470280568805400,9.089805419921875,0.002802197939157486,0.019248515889933333,0.009160170397441833
1761470280578781400,9.099781494140625,0.0016039280652999878,0.016068314951239154,0.0072408197074197225
1761470280588758500,9.109758544921876,-0.005428454789519309,0.023394356123544274,-0.013604600851982831
1761470280598734300,9.119734375,-0.0010883797585964203,0.018639581078197805,-0.016878325293026863
1761470280608711400,9.12971142578125,-0.007970540487766265,0.011976780454441904,-0.025000256950221955
1761470280618687500,9.1396875,-0.00767184980213642,-0.0037599918543361126,-0.029358032034616916
1761470280628664600,9.14966455078125,-0.0024321955829858777,-0.01326060058674775,-0.037534232896007595
1761470280638640400,9.159640380859376,-0.0004839841246604919,-0.025988318139500914,-0.024108331345487385
1761470280648617500,9.169617431640624,-0.008264554998278618,-0.02872430070834234,-0.015384707468096165
1761470280658593500,9.179593505859375,-0.01036065049469471,-0.025766866541700437,-0.0031432481954805553
1761470280668569300,9.1895693359375,0.007142857491970062,-0.009913774376874789,-0.01079683168856427
1761470280678546400,9.19954638671875,-0.005580430480837822,-0.01115057702967897,0.007762615091819316
1761470280688522200,9.209522216796875,0.007884615769982338,0.008594024414662272,0.024293697849754242
1761470280698499300,9.219499267578126,0.011175474008917809,0.009701309803128243,0.031481800989247855
1761470280708475400,9.229475341796874,0.0029448212802410125,-0.005091450520651414,0.016085768409539014
1761470280718452500,9.239452392578125,-0.004985387197136879,0.0039202239173464475,0.014252835627645254
1761470280728428300,9.24942822265625,0.010280570995807647,0.005519265744974837,-0.00814461841303855
1761470280738405400,9.2594052734375,0.006691022071242332,-0.009845851106662303,0.004804514204896986
1761470280748381400,9.26938134765625,0.005493921241164207,-0.004437827183818444,-0.03126234955228865
1761470280758358500,9.279358642578124,-0.006175473764538765,-0.007358810930745675,-0.01534969095364213
1761470280768334300,9.289334228515624,-0.01605097109079361,-0.013981818400230259,-0.029684542308934032
1761470280778311400,9.2993115234375,-0.010509119054675102,-0.010896136477729305,-0.027281463222578167
1761470280788287500,9.30928759765625,-0.007662497451901435,-0.00742891702488996,-0.023941194617655127
1761470280798264600,9.3192646484375,-0.00018178630769252776,-0.014174546227045356,-0.011108929845038801
1761470280808240400,9.329240478515626,-0.006765256351232528,0.003926270065642893,0.007079290736466646
1761470280818216400,9.339216552734374,0.003558569264411926,-0.0007689659453462809,0.00692411844106391
1761470280828193500,9.349193603515625,-0.00931143370270729,0.0029494335232768207,0.010770199409965426
1761470280838169300,9.35916943359375,0.0032610476225614546,0.004892996205948293,0.0024496399081312117
1761470280848146200,9.369146240234375,0.004909399351477623,-0.044851442307885736,0.0348781106303446
1761470280858122200,9.379122314453125,0.005807224974036216,-0.010416143541596829,-0.008324030100554228
1761470280868099300,9.389099365234374,0.007899813339114188,-0.000049355567060410975,-0.0016224501026794313
1761470280878075100,9.3990751953125,-0.031153263154625892,-0.00480460553644225,-0.009182199566159397
1761470280888052200,9.40905224609375,0.011343231791257858,0.011068716565659269,-0.03001830430794507
1761470280898028000,9.419028076171875,-0.05434826078116894,0.003597239040676504,-0.015611721157003194
1761470280908005000,9.429005126953125,0.05144669412076473,-0.006226327168941497,-0.012753226453345269
1761470280917981200,9.438981201171876,-0.0019739304214715955,-0.022625033985171464,-0.010775441840663551
1761470280927958300,9.448958251953124,0.01148819321990013,-0.011559660154068842,-0.0031649668369442222
1761470280937934000,9.45893408203125,-0.03205634947419166,-0.00188143896558322,-0.00254981234697625
1761470280947911200,9.4689111328125,-0.003770750710368156,-0.0023535317230504007,-0.012179646082781255
1761470280957887200,9.47888720703125,0.012094926941394805,0.0206246356818825,-0.020807700631208716
1761470280967863300,9.48886328125,-0.005112228447198867,-0.0017034703164827078,0.01465003651799634
1761470280977840000,9.498840087890626,-0.01334346569776535,-0.013716682924330233,0.028175818246416746
1761470280987816400,9.50881640625,0.0005734159737825394,-0.010362522791372612,0.01161435861652717
1761470280997793300,9.518793212890625,0.017335165682435035,-0.009129583462933077,0.003659819415491074
1761470281007769300,9.528769287109375,-0.007958265528082847,-0.013599477152293548,0.006543338962551206
1761470281017746200,9.53874609375,-0.03175473617911339,-0.010553862378699704,-0.013604546053055673
1761470281027722200,9.54872216796875,-0.006764671829342842,0.007888597825355828,-0.03395169823411852
1761470281037699300,9.55869921875,0.006404606345295906,0.004867697367910296,-0.03758738785535097
1761470281047675100,9.568675048828124,0.002514028647542,0.011265453847311436,-0.024544786533992734
1761470281057652200,9.57865234375,-0.018139467802643774,0.008319025131873785,-0.0112152580300346
1761470281067628000,9.5886279296875,-0.010955109256505965,-0.016406059005623683,-0.01929607222555205
1761470281077605000,9.598605224609376,0.008950783696770668,-0.02405590703850612,-0.005140285497903824
1761470281087581200,9.608581298828126,-0.005867430728673934,-0.006738916333578527,0.007900416127312928
1761470281097557200,9.61855712890625,-0.013347557350993156,-0.021977000138908624,0.0007756422813050448
1761470281107534000,9.6285341796875,0.015085340929031372,-0.002949807982612401,-0.004700944232568145
1761470281117510400,9.638510498046875,0.0008744447469711303,-0.01828516901680268,-0.011000318371411412
1761470281127487200,9.6484873046875,-0.0015238485664129256,-0.003394729605363682,-0.006336308615747839
1761470281137463300,9.65846337890625,-0.003926233533024788,-0.011781330947577953,0.010490377821587026
1761470281147440000,9.668440185546874,0.03348082931935787,-0.01572198573159985,0.010216967707686125
1761470281157416400,9.67841650390625,-0.015747019708156586,-0.01484661853602156,0.030842754167038945
1761470281167393300,9.688393310546875,-0.0037719197541475295,-0.0006221230868715793,0.00998233696790412
1761470281177369000,9.698369140625,0.018829203632473944,0.01084962132172659,-0.004572751275636255
1761470281187346200,9.70834619140625,0.030948680493235587,0.007045370200555771,-0.012835662306100129
1761470281197322200,9.718322265625,-0.02875380079746246,-0.0036358722843229767,-0.005276917489618063
1761470281207298300,9.72829833984375,-0.02605214062333107,0.013309417297691107,-0.017191903020534662
1761470281217275100,9.738275146484375,0.007169745498895644,-0.004008121396508068,-0.02974905891250819
1761470281227251200,9.748251220703125,0.023175708404183388,-0.005906611961591988,-0.03557285142885521
1761470281237228000,9.75822802734375,-0.019625322446227073,0.0126135348548647,-0.021898509808909148
1761470281247204400,9.768204345703126,-0.025457097339630124,0.005513511857623234,-0.028594829109776763
1761470281257181200,9.77818115234375,0.035437808606028555,-0.01215832016696222,-0.01022820148775354
1761470281267157200,9.7881572265625,0.0016185411125421523,-0.016312398505955932,0.0047340610508807
1761470281277134000,9.798134033203125,-0.033546295771002765,-0.00659153461898677,-0.000563442569039762
1761470281287110400,9.8081103515625,-0.07947627229690551,0.022207502692844716,-0.0027989100035279986
1761470281297087200,9.818087158203125,0.05519757108688354,0.06331583121595905,-0.041140824286919085
1761470281307063300,9.828063232421876,0.04112286850512027,0.03735813654358498,-0.04255565952090546
1761470281317040000,9.8380400390625,-0.009756254860758781,0.0034240835640113798,-0.00040741175711154934
1761470281327016200,9.84801611328125,-0.048507133537530896,-0.02802142226914875,0.037501079545076935
1761470281336993300,9.8579931640625,0.025266543203592298,-0.051018157377233725,0.07085201714076102
1761470281346969000,9.867968994140625,0.05129939460456371,-0.045672942158067595,0.056107817799597975
1761470281356945200,9.877945068359375,-0.019029694640636443,-0.04169980074339546,0.05810978700546547
1761470281366922200,9.887922119140624,-0.037431612771749494,-0.009929793929914011,0.012936547130998224
1761470281376898300,9.897898193359374,0.005661679023504257,-0.000006685469113290309,-0.0018432532465085386
1761470281386875100,9.907875244140625,0.037683541706204415,-0.0006192004774231464,-0.04066409188695252
1761470281396851200,9.917851318359375,-0.017533318603038788,0.0002402384966611862,-0.024608042762242256
1761470281406828300,9.927828369140625,-0.03309387582838535,0.001155745906382799,-0.016462291838042438
1761470281416804400,9.937804443359376,0.0013274492114782332,0.0009440485176164656,-0.02187538466164842
1761470281426781200,9.94778125,0.028707039046287536,-0.003982274569198489,-0.02175588646782562
1761470281436757200,9.95775732421875,-0.021724340552091596,-0.008292931709391996,-0.015697408412769436
1761470281446734000,9.967734130859375,-0.030256022053956985,0.01300892738061957,-0.024841157398372886
1761470281456710400,9.97771044921875,0.012087912678718567,0.0037208562871906903,-0.03308631357643753
1761470281466687200,9.987687255859376,0.0029565117180347443,-0.006901477350993081,0.0002886624819599092
1761470281476663000,9.9976630859375,-0.011559504890441894,-0.020228338973829522,0.008488810474518686
1761470281486639400,10.007639404296874,-0.03190320473909378,-0.022599269356252623,0.037964605403598396
1761470281496616200,10.0176162109375,0.011045710149407386,-0.0063436790714506055,0.036231315337587146
1761470281506592300,10.02759228515625,0.030945173361897466,0.0007441876971162855,0.018687091748043894
1761470281516569000,10.037569091796875,-0.009758592948317527,0.02018479209304787,0.005286726497579366
1761470281526545400,10.04754541015625,-0.01888297964632511,0.031109433146053925,-0.012749061734881252
1761470281536522200,10.057522216796874,0.0004196867167949676,0.05265166773004457,-0.03821198602709919
1761470281546498300,10.067498291015625,0.012536240968108176,0.02845287248897366,-0.0580637011077255
1761470281556475100,10.07747509765625,0.0008615852653980255,0.010947117746295407,-0.04838988209972158
1761470281566451200,10.087451171875,-0.021729601249098777,-0.009359802889078854,-0.010247234981786459
1761470281576428300,10.09742822265625,-0.016940028885006904,-0.037506732967728745,0.001470510943979025
1761470281586404400,10.107404296875,0.029445874714851376,-0.04890232513388618,0.0312019246019423
1761470281596381200,10.117381103515624,-0.015593290451169013,-0.041151811471814286,0.03853708979561925
1761470281606357200,10.127357177734375,-0.022476035702228545,-0.028288567039044574,0.030422081069555133
1761470281616333300,10.137333251953125,-0.0167921448469162,-0.017391307183308526,0.022667064762301743
1761470281626310400,10.147310302734375,0.021213468420505522,0.0015200857067480683,0.018361366925016043
1761470281636286200,10.1572861328125,0.011779869642853736,0.003746027261065319,-0.0008570369544439018
1761470281646263000,10.167262939453124,-0.005437222617864609,0.003350689534237608,0.01378267909893766
1761470281656239400,10.1772392578125,0.02479074238538742,0.004069213067134842,-0.014062464154697954
1761470281666216200,10.18721630859375,0.015214520266652107,0.024639104620786383,-0.03741199475582689
1761470281676192300,10.197192138671875,-0.005139700976014137,0.03881076477100141,-0.05063294831877574
1761470281686169000,10.207169189453126,-0.017407061874866486,0.03984054621015675,-0.05456393109215423
1761470281696145400,10.2171455078125,0.021344985845685005,0.025647286149486897,-0.0745530818820931
1761470281706122200,10.227122314453124,0.00293839153945446,0.018460489051090552,-0.03388725469578057
1761470281716098300,10.237098388671875,0.002641454419493675,-0.008815439479844644,-0.010949373635463416
1761470281726075100,10.2470751953125,-0.015464695635437965,-0.03885999247389845,0.02135433819591999
1761470281736051200,10.25705126953125,0.003387304350733757,-0.045486050416994835,0.03604074293524027
1761470281746027300,10.26702734375,0.01640636039972305,-0.062181429491704326,0.05331592205874622
1761470281756004400,10.27700439453125,0.006233925953507423,-0.05974159859153442,0.04491374868806451
1761470281765980200,10.286980224609374,-0.0009492635488510131,-0.036254723612638186,0.03757105777505785
1761470281775957200,10.296957275390625,-0.0007990414232015609,-0.026259052239125592,0.008422083647549152
1761470281785933300,10.306933349609375,0.01880290014743805,0.00991371957794763,0.0067802895235829054
1761470281795910100,10.31691015625,0.006529694029688835,0.038009878450585524,-0.030196017228718845
1761470281805886200,10.32688623046875,-0.016517419558763503,0.03787946613710373,-0.05138645183350891
1761470281815863000,10.336863037109374,-0.010977321088314056,0.031633813213184474,-0.06042054816586896
1761470281825839400,10.34683935546875,-0.01262450377345085,0.02735231823539361,-0.05599401869419962
1761470281835817000,10.35681689453125,-0.015767477974295615,0.022159480566345154,-0.04959191483324393
1761470281845792800,10.366792724609375,-0.006942366483807564,0.019704077637707814,-0.041164789684396234
1761470281855769900,10.376769775390626,-0.00978723452091217,-0.009702350982744246,-0.022634824726823717
1761470281865745700,10.38674560546875,0.00023614684343338012,-0.036341698643192644,-0.0052072863195091485
1761470281875722000,10.396721923828125,0.002031213566660881,-0.018516749282972887,0.016150595540367067
1761470281885698800,10.40669873046875,-0.0003612345278263092,-0.048497050534933805,0.03069914444526657
1761470281895674600,10.416674560546875,-0.0005073650002479553,-0.014255356378294526,0.028682196865975854
1761470281905651700,10.426651611328126,-0.0006552490383386611,-0.00033391726263798773,0.03936543037854135
1761470281915627800,10.436627685546876,0.012363222488760947,0.003808141844999045,0.025766820875927805
1761470281925604900,10.44660498046875,-0.006042202773690223,0.011203768521640449,-0.002238353511318564
1761470281935580700,10.45658056640625,-0.0017114800930023192,0.011965564940683543,-0.019347729347553102
1761470281945557800,10.466557861328125,-0.004410802179574966,0.018059278705902397,-0.03236114110704511
1761470281955533800,10.476533935546875,-0.012935469418764113,0.0074840356124565004,-0.04649155593141913
1761470281965511000,10.486510986328126,-0.015029811349511146,-0.008305800324119627,-0.04709359521148726
1761470281975486700,10.49648681640625,-0.016974515676498412,-0.025731932225637136,-0.03467531806724146
1761470281985463800,10.5064638671875,0.00008417115211486816,-0.035934688744880254,-0.016105075898207723
1761470281995439900,10.51643994140625,-0.0020125088661909103,-0.03645572607745416,0.017075911958049982
1761470282005416000,10.526416015625,-0.003959551280736923,-0.011845637488598003,0.021535028525069354
1761470282015392800,10.536392822265626,-0.01159106907248497,-0.024859368908498436,0.029312749854475257
1761470282025368800,10.546368896484376,0.0035217443853616712,-0.015270497370744124,0.028988157542608677
1761470282035346000,10.556345947265624,-0.0003682487905025482,-0.017767556617176158,0.03348722252752632
1761470282045321700,10.56632177734375,0.0014256488889455795,0.006861072275368496,0.020873349745944143
1761470282055298800,10.576298828125,0.007711597290635109,0.014212795878201722,0.007290157008171081
1761470282065274600,10.586274658203125,0.0023228899896144866,0.020556310552870855,0.0014233290676958859
1761470282075251700,10.596251708984376,-0.0006768763482570648,0.02432233028919436,-0.023469521985296157
1761470282085227800,10.606227783203124,0.006503975066542625,0.010867988095479085,-0.04338188121197745
1761470282095204900,10.616204833984375,-0.003822773158550262,0.002778442604234442,-0.04418700531609356
1761470282105180700,10.6261806640625,-0.008909867164492607,-0.00002237622858956456,-0.05600391903370618
1761470282115157800,10.63615771484375,0.0005155483067035675,-0.01031083826990798,-0.045451143500395114
1761470282125133800,10.6461337890625,-0.009511340188980102,-0.02881392435370944,-0.024647735451813785
1761470282135110000,10.65610986328125,0.0048562078595161436,-0.01584459833111614,-0.010034943937975913
1761470282145086700,10.666086669921874,0.00007248071432113647,-0.01992880803798325,0.0010104556841775774
1761470282155063000,10.67606298828125,0.003513561078906059,-0.004737257654964923,0.032000856427289545
1761470282165039900,10.686039794921875,0.004708908343315124,0.008931375743402168,0.03899995806701481
1761470282175016000,10.696015869140625,-0.008307809618115424,0.025723940715426576,0.03376545494701713
1761470282184992800,10.70599267578125,0.00875379981994629,0.023896451293630525,0.01434962879931554
1761470282194968600,10.715968505859376,-0.012497662523388861,-0.005984819163801149,-0.006506002626847475
1761470282204946000,10.72594580078125,0.0038163434177637097,-0.004275183968013152,-0.008559409759007394
1761470282214921700,10.735921630859375,-0.0008247603863477706,-0.011239296492747962,-0.012552552782092243
1761470282224898800,10.74589892578125,-0.006057984864711761,-0.016312498970655724,-0.03965096932165325
1761470282234874600,10.75587451171875,-0.005158405676484108,-0.019252415746916083,-0.04671204854799434
1761470282244851700,10.765851806640624,0.005916530567407608,-0.02887365518431179,-0.04318212085617706
1761470282254827800,10.775827880859374,0.006067337214946746,-0.016883028867607935,-0.04667361623374745
1761470282264803800,10.785803955078125,-0.01398527073264122,0.0024148243230767545,-0.03219977653287351
1761470282274780700,10.79578076171875,-0.005457096362113952,0.007118700298247858,-0.018290146586019546
1761470282284757000,10.805757080078125,0.002923193970322609,0.011412552434112875,-0.01310962040927261
1761470282294733800,10.81573388671875,0.0045662850022315975,0.009919336467981339,0.016710019521415233
1761470282304710000,10.8257099609375,0.003072247052192688,0.008995106895687058,0.023093217752501366
1761470282314686700,10.835686767578125,0.0012795184165239333,0.0012790069598704575,0.0191286249704659
1761470282324663000,10.8456630859375,-0.0009662146836519241,0.0010671086417045443,0.019848463677614926
1761470282334639900,10.855639892578125,0.015943419063091276,-0.012686755354702471,0.00945705271847546
1761470282344615700,10.86561572265625,0.0038233576804399486,-0.0317386252945289,-0.00854331714073196
1761470282354592800,10.8755927734375,-0.0020166005194187163,-0.03907785474197008,-0.01311670773718506
1761470282364568800,10.88556884765625,-0.006059738430380821,-0.017465367933362723,-0.01767612460721284
1761470282374545000,10.895544921875,0.0020201076507568357,-0.015172270293813198,-0.030893790234532207
1761470282384521700,10.905521728515625,0.014586743757128715,-0.0167416841681581,-0.017563494545593857
1761470282394497800,10.915497802734375,0.05556640439927578,0.0076672192927915595,-0.02882878399612382
1761470282404474600,10.925474609375,-0.04260287792980671,0.0019367584825493395,-0.0005709134894423186
1761470282414451000,10.935450927734376,-0.04364274237155914,0.03688344083707779,0.0006455678945407271
1761470282424427800,10.945427734375,0.003940846580266952,0.05241076251310296,-0.00026650544907897707
1761470282434403800,10.95540380859375,0.03910100728869438,0.03361078497511334,0.008630666630622
1761470282444380700,10.965380615234375,0.009918751946091651,0.014137995342630893,0.02018825355861336
1761470282454357000,10.97535693359375,-0.04873042089939117,-0.002652578601706773,0.0325514395147562
