time,seconds_elapsed,z,y,x
1761476357577481500,0.1194814453125,0.001395166851580143,0.01613602600991726,-0.006160153541713953
1761476357587514400,0.129514404296875,-0.0010195518843829632,-0.03410858288407326,-0.0063456143252551556
1761476357597547500,0.139547607421875,0.0005727522075176239,-0.06220892444252968,-0.003603357821702957
1761476357607580400,0.149580322265625,-0.0018588192760944366,-0.059307318180799484,-0.0043510375544428825
1761476357617613600,0.159613525390625,-0.005487109534442425,-0.03142295777797699,-0.002330230548977852
1761476357627647500,0.1696474609375,-0.005410737358033657,0.009128033183515072,-0.0024390965700149536
1761476357637680600,0.1796806640625,0.0008982913568615913,0.03717884421348572,0.004795912653207779
1761476357647713500,0.189713623046875,-0.001194929238408804,0.04382672905921936,0.005759078077971935
1761476357657746400,0.199746337890625,0.0010503819212317467,0.031044621020555496,0.004656529985368252
1761476357667779300,0.209779296875,0.003122212365269661,0.0067873140797019005,0.0046510715037584305
1761476357677813500,0.2198134765625,0.0065648797899484634,-0.01030778232961893,-0.0007767174392938614
1761476357687846400,0.229846435546875,0.006979487836360931,-0.016306497156620026,-0.0016074217855930328
1761476357697879600,0.239879638671875,0.00696936808526516,-0.008651241660118103,0.0020839860662817955
1761476357707912400,0.249912353515625,0.00012657884508371353,0.0056862602941691875,0.0001002531498670578
1761476357717945600,0.259945556640625,-0.0011008717119693756,0.01853627897799015,-0.0013618217781186104
1761476357727979500,0.2699794921875,-0.0033003841526806355,0.02213052287697792,-0.00013877637684345245
1761476357738012700,0.2800126953125,-0.002588787581771612,0.014917351305484772,-0.0015457244589924812
1761476357748045600,0.290045654296875,-0.0007567321881651878,-0.003954734653234482,-0.0007974943146109581
1761476357758078500,0.300078369140625,-0.000012910924851894379,-0.018246322870254517,-0.0018382575362920761
1761476357768111400,0.310111328125,0.0005666334182024002,-0.0208016075193882,-0.0016034431755542755
1761476357778145500,0.3201455078125,0.002089696004986763,-0.01641511544585228,0.002233905717730522
1761476357788178400,0.330178466796875,0.0026588421314954758,-0.0008725416846573353,0.0015621539205312729
1761476357798211600,0.340211669921875,0.00002177990972995758,0.006402947939932346,-0.0004748981446027756
1761476357808244500,0.350244384765625,0.001438741572201252,0.016755012795329094,-0.0004481319338083267
1761476357818277600,0.360277587890625,-0.00028725340962409973,0.01474832184612751,0.0008533550426363945
1761476357828311600,0.3703115234375,-0.00020328816026449203,0.01070786826312542,0.0005740169435739517
1761476357838344400,0.380344482421875,0.00005876738578081131,0.004486192017793655,0.0022219810634851456
1761476357848377300,0.39037744140625,-0.0022041313350200653,0.006259901449084282,-0.001641610637307167
1761476357858410500,0.400410400390625,-0.0032339757308363914,0.0020345300436019897,-0.0012589143589138985
1761476357868444400,0.4104443359375,-0.0008565066382288933,-0.0008860197849571705,-0.0017716921865940094
1761476357878477600,0.4204775390625,-0.002057059668004513,-0.005660801660269499,-0.003068918362259865
1761476357888510500,0.430510498046875,0.0013229036703705788,-0.010076377540826797,-0.002621391788125038
1761476357898543600,0.440543701171875,0.0030475668609142303,-0.009151196107268333,-0.0023345695808529854
1761476357908576500,0.450576416015625,0.004481136798858643,-0.005078380461782217,-0.0019221920520067215
1761476357918610700,0.460610595703125,0.004682205617427826,-0.0005326303653419018,-0.00224390160292387
1761476357928643600,0.4706435546875,0.0065748430788517,0.0076032113283872604,-0.0017853910103440285
1761476357938676500,0.480676513671875,0.004224070347845554,0.012256020680069923,0.0028423843905329704
1761476357948709400,0.49070947265625,0.0037818923592567444,0.014187389984726906,-0.0006527360528707504
1761476357958742300,0.5007421875,0.0008119344711303711,0.010008092038333416,0.0016474360600113869
1761476357968776400,0.5107763671875,0.0009915018454194069,0.007084589451551437,0.0016651004552841187
1761476357978809600,0.5208095703125,-0.0023084208369255066,-0.0003831801004707813,-0.0009394707158207893
1761476357988842500,0.530842529296875,-0.002964966930449009,-0.004051510244607925,0.0010765157639980316
1761476357998875400,0.54087548828125,-0.005657955072820187,-0.008466765284538269,-0.00012430362403392792
1761476358008909600,0.55090966796875,-0.003401007503271103,-0.0025096279568970203,-0.0015363367274403572
1761476358018942700,0.560942626953125,-0.0020939279347658157,0.0009964234195649624,-0.003087627701461315
1761476358028975400,0.570975341796875,0.002585936337709427,0.0049021290615201,-0.0003543747588992119
1761476358039008300,0.58100830078125,-0.00019387155771255493,0.005705338437110186,-0.0027821119874715805
1761476358049041400,0.59104150390625,0.003543396480381489,0.0025163900572806597,0.0001526959240436554
1761476358059075600,0.60107568359375,-0.0009930320084095001,-0.002463721204549074,-0.00040044263005256653
1761476358069108500,0.6111083984375,0.0019326591864228249,-0.004521017894148827,0.0008553173393011093
1761476358079141400,0.621141357421875,-0.0007632584311068058,-0.003879995085299015,-0.003316524438560009
1761476358089174500,0.631174560546875,-0.0017064381390810013,0.0012334450148046017,-0.0038117412477731705
1761476358099208700,0.641208740234375,0.001621447503566742,0.009943046607077122,0.0005369344726204872
1761476358109241600,0.65124169921875,0.0007227035239338875,0.013281699270009995,0.0017855102196335793
1761476358119274500,0.6612744140625,0.00043827854096889496,0.010836916975677013,0.001537303440272808
1761476358129307400,0.671307373046875,0.0023675914853811264,-0.005709528923034668,0.004682057537138462
1761476358139340300,0.68134033203125,0.0022663911804556847,-0.015153365209698677,0.001878548413515091
1761476358149374500,0.69137451171875,0.0006877453997731209,-0.023558594286441803,-0.003190206363797188
1761476358159407600,0.70140771484375,0.003529338166117668,-0.026227083057165146,0.0007491409778594971
1761476358169440500,0.7114404296875,-0.0011975700035691261,-0.018744800239801407,0.001600140705704689
1761476358179473400,0.721473388671875,-0.004217328038066626,-0.00889510102570057,-0.0034393593668937683
1761476358189507600,0.731507568359375,-0.004376533906906843,0.0005298638716340065,-0.0018396107479929924
1761476358199540700,0.741540771484375,-0.0027469457127153873,0.007011465262621641,-0.0019663767889142036
1761476358209573600,0.75157373046875,-0.0015976359136402607,0.010066045448184013,-0.0016906261444091797
1761476358219606300,0.761606201171875,-0.00026419106870889664,0.006529101170599461,-0.0012293672189116478
1761476358229640400,0.771640380859375,0.003825102001428604,0.0045909876935184,-0.0025551263242959976
1761476358239673600,0.781673583984375,0.0047231195494532585,0.006394480355083942,0.0002145608887076378
1761476358249706500,0.79170654296875,0.007367536425590515,0.005379086825996637,0.0027012284845113754
1761476358259739400,0.801739501953125,0.00511183962225914,0.006545817479491234,0.0028586210682988167
1761476358269772500,0.8117724609375,0.005419179797172546,0.006310102995485067,0.004761922173202038
1761476358279806700,0.821806640625,0.00276320893317461,0.0052858516573905945,0.0011695846915245056
1761476358289839600,0.831839599609375,0.004537571221590042,-0.000012049451470375061,-0.0011023348197340965
1761476358299872500,0.84187255859375,0.001976409927010536,-0.0014983597211539745,-0.0016011456027626991
1761476358309905400,0.851905517578125,0.0024531157687306404,-0.0013151341117918491,0.0014620227739214897
1761476358319939600,0.861939697265625,-0.00045026279985904694,-0.0023814644664525986,-0.0015670564025640488
1761476358329972500,0.871972412109375,0.00010482501238584518,0.002886481350287795,0.0009575970470905304
1761476358340005400,0.88200537109375,-0.0006294087506830692,0.004209539853036404,0.0005155131220817566
1761476358350038500,0.89203857421875,-0.0013221041299402714,0.006277392152696848,0.00015050824731588364
1761476358360072700,0.90207275390625,-0.0026752562262117863,0.003682674141600728,0.0040408531203866005
1761476358370105600,0.912105712890625,-0.0029450496658682823,-0.0007727770134806633,0.002261117100715637
1761476358380138500,0.922138427734375,-0.0029383916407823563,-0.009229645133018494,0.0013175588101148605
1761476358390171600,0.932171630859375,-0.0048429821617901325,-0.017056744545698166,0.0017635645344853401
1761476358400204500,0.94220458984375,-0.006222499534487724,-0.024752480909228325,0.0009821923449635506
1761476358410238500,0.952238525390625,-0.008166012354195118,-0.024653006345033646,-0.0025772415101528168
1761476358420271400,0.962271240234375,-0.006242411211133003,-0.026574477553367615,-0.003999901935458183
1761476358430304500,0.972304443359375,-0.008386686444282532,-0.02232414111495018,-0.006273781415075064
1761476358440337400,0.98233740234375,-0.007705183699727058,-0.018446046859025955,-0.0029906360432505608
1761476358450371600,0.99237158203125,-0.0032452503219246864,-0.014530537649989128,-0.0032776053994894028
1761476358460404500,1.002404541015625,-0.003058029804378748,-0.006830008700489998,-0.00010950863361358643
1761476358470437600,1.012437744140625,-0.0004738401621580124,-0.0031202170066535473,-0.0001084180548787117
1761476358480470500,1.022470458984375,-0.0020853187888860703,0.004017853643745184,-0.003584110178053379
1761476358490504400,1.03250439453125,-0.0006222184747457504,0.001464087050408125,-0.0033242329955101013
1761476358500537300,1.042537353515625,0.00046994443982839584,0.0034302989952266216,-0.004259801469743252
1761476358510570500,1.052570556640625,0.0027780989184975624,0.0036094372626394033,-0.003952890634536743
1761476358520603400,1.062603271484375,0.0013716835528612137,-0.00014242390170693398,-0.0012947889044880867
1761476358530638300,1.072638427734375,0.003052287735044956,-0.0012302398681640625,-0.004101368598639965
1761476358540671200,1.082671142578125,0.005737286992371082,-0.0014068074524402618,-0.0011684289202094078
1761476358550704000,1.0927041015625,0.00094646867364645,-0.0030071507208049297,-0.0018864180892705917
1761476358560737000,1.102737060546875,0.00100612360984087,-0.008245589211583138,-0.005237206816673279
1761476358570771200,1.112771240234375,0.002492286264896393,-0.008681627921760082,-0.0012820009142160416
1761476358580804400,1.122804443359375,0.004847319796681404,-0.006295168772339821,-0.0038801804184913635
1761476358590837200,1.132837158203125,0.0034647714346647263,-0.001819925382733345,-0.003786897286772728
1761476358600870100,1.1428701171875,0.003041861578822136,0.0037311676423996687,0.0014257077127695084
1761476358610904300,1.152904296875,0.002128561958670616,0.00905398465692997,-0.0010954290628433228
1761476358620937500,1.1629375,0.002970919944345951,0.014106267131865025,0.0019395099952816963
1761476358630970000,1.17297021484375,0.00397906731814146,0.014353780075907707,0.0027791745960712433
1761476358641003000,1.1830029296875,0.0032474976032972336,0.005607426166534424,-0.0005588317289948463
1761476358651037200,1.193037109375,0.0011608926579356194,0.0019149663858115673,0.0007759928703308105
1761476358661070300,1.2030703125,0.0028951428830623627,-0.0004882700741291046,0.00030168425291776657
1761476358671103200,1.213103271484375,0.0018094517290592194,0.00023117335513234138,-0.0011139558628201485
1761476358681136000,1.22313623046875,0.0036520930007100105,0.0034272330813109875,0.001512720249593258
1761476358691170300,1.23317041015625,0.0028285086154937744,0.007748106960207224,0.0008230488747358322
1761476358701203500,1.243203369140625,0.004803508520126343,0.010683976113796234,0.0004480760544538498
1761476358711236400,1.253236328125,0.004771525040268898,0.011246630921959877,0.003346244804561138
1761476358721269200,1.263269287109375,0.0034143785014748573,0.008429273031651974,0.00516198854893446
1761476358731303200,1.27330322265625,0.0015979399904608727,0.009394260123372078,0.001381424255669117
1761476358741336300,1.28333642578125,0.0018386896699666977,0.006924444809556007,0.002470124512910843
1761476358751369200,1.293369140625,0.003863956779241562,0.0066246166825294495,0.0013409201055765152
1761476358761402000,1.303402099609375,0.002131570130586624,0.009614281356334686,0.004099422134459019
1761476358771436300,1.313436279296875,0.0034320587292313576,0.017613841220736504,0.0029004914686083794
1761476358781469400,1.323469482421875,0.0024080732837319374,0.023407548666000366,0.0023657288402318954
1761476358791502300,1.33350244140625,0.0016528815031051636,0.024008216336369514,0.001746908761560917
1761476358801535200,1.34353515625,-6.752088665962219e-7,0.019434768706560135,0.0038268370553851128
1761476358811568400,1.353568359375,-0.003868300933390856,0.006947149522602558,0.002614806406199932
1761476358821602300,1.363602294921875,-0.006516281981021166,-0.010953819379210472,0.0028169406577944756
1761476358831635200,1.37363525390625,-0.006378576159477234,-0.022467127069830894,-0.0014293761923909187
1761476358841668000,1.383668212890625,-0.005775902420282364,-0.030296552926301956,-0.003530343994498253
1761476358851701200,1.393701171875,-0.005945443641394377,-0.025399066507816315,-0.005008735693991184
1761476358861735400,1.4037353515625,-0.006390457972884178,-0.014602080918848515,0.0008986881002783775
1761476358871768300,1.413768310546875,-0.005842030979692936,-0.0032062875106930733,0.0010889377444982529
1761476358881801200,1.42380126953125,-0.004134411923587322,0.005870298016816378,0.0034620799124240875
1761476358891834400,1.43383447265625,-0.0035392409190535545,0.00989365391433239,0.0011169742792844772
1761476358901868300,1.443868408203125,-0.003420730121433735,0.0109493313357234,0.00034945178776979446
1761476358911901200,1.453901123046875,-0.0003698496147990227,0.010063583962619305,0.00130402110517025
1761476358921934300,1.463934326171875,-0.002138987649232149,0.008150102570652962,-0.0005745729431509972
1761476358931967200,1.47396728515625,-0.0010183095000684261,0.008589782752096653,0.0013644304126501083
1761476358942001400,1.48400146484375,0.0033016037195920944,0.012012210674583912,0.001379876397550106
1761476358952034300,1.494034423828125,0.0013167448341846466,0.008736168034374714,-0.002442171797156334
1761476358962067500,1.5040673828125,0.0016080942004919052,0.0020950431935489178,-0.001748683862388134
1761476358972100400,1.514100341796875,0.004064907319843769,-0.007289971224963665,-0.0011656507849693298
1761476358982134300,1.52413427734375,0.0030100299045443535,-0.016401177272200584,-0.004090334288775921
1761476358992167200,1.534167236328125,0.0045774225145578384,-0.016905656084418297,-0.0026422226801514626
1761476359002200300,1.544200439453125,0.004263969138264656,-0.00661972863599658,-0.0027796421200037003
1761476359012233200,1.554233154296875,0.007063647732138634,0.003347218967974186,-0.002191011793911457
1761476359022267400,1.564267333984375,0.0043898336589336395,0.013073083013296127,0.0010202275589108467
1761476359032300300,1.57430029296875,0.003042764961719513,0.016214292496442795,0.00022349320352077484
1761476359042333400,1.58433349609375,0.002284829504787922,0.011801434680819511,-0.0016793347895145416
1761476359052366300,1.594366455078125,0.0022529922425746918,0.0035264608450233936,0.0005745161324739456
1761476359062400300,1.604400146484375,0.002253258600831032,-0.005983687471598387,-0.0021525612100958824
1761476359072433200,1.61443310546875,0.004467966966331005,-0.011615552008152008,-0.000978279858827591
1761476359082466300,1.62446630859375,0.004242130555212498,-0.010593963786959648,0.0021173786371946335
1761476359092499200,1.634499267578125,0.003160395659506321,-0.008093380369246006,0.0026619164273142815
1761476359102533400,1.644533447265625,0.0019404012709856033,-0.0010099043138325214,0.0012355279177427292
1761476359112566300,1.654566162109375,-0.0000864081084728241,0.002124105580151081,-0.0002920422703027725
1761476359122599400,1.664599365234375,-0.0002861451357603073,0.0022293005604296923,-0.0036841100081801414
1761476359132632300,1.67463232421875,-0.00014977343380451202,0.00047472259029746056,-0.0019180839881300926
1761476359142666200,1.684666259765625,0.0004995055496692657,-0.0015338333323597908,-0.0014847880229353905
1761476359152699100,1.69469921875,0.0003170408308506012,0.0002920483238995075,-0.002599497325718403
1761476359162732300,1.704732177734375,-0.002765567973256111,0.004725945182144642,-0.0007925424724817276
1761476359172765200,1.71476513671875,-0.00042371079325675964,0.006898731458932161,0.00040039047598838806
1761476359182799400,1.72479931640625,-0.0030727568082511425,0.004690172150731087,-0.00007365178316831589
1761476359192832300,1.734832275390625,-0.0026774201542139053,0.0034098809119313955,-0.002840915694832802
1761476359202865400,1.744865478515625,-0.0018723467364907265,-0.0007768748328089714,-0.0005319546908140182
1761476359212898300,1.754898193359375,-0.004157890100032091,-0.0055282870307564735,-0.0006505558267235756
1761476359222932200,1.76493212890625,-0.0002323901280760765,-0.0006317994557321072,0.0013854308053851128
1761476359232965000,1.774965087890625,-0.00005385931581258774,0.0006359056569635868,0.0015355506911873817
1761476359242998300,1.784998291015625,-0.005298689007759094,0.0027467268519103527,-0.0008900566026568413
1761476359253032200,1.7950322265625,-0.0027057048864662647,-0.0007229442708194256,-0.0014529628679156303
1761476359263065300,1.8050654296875,-0.005019192583858967,-0.006883368827402592,-0.0019834646955132484
1761476359273098200,1.81509814453125,-0.0021409131586551666,-0.0050225588493049145,0.0009110607206821442
1761476359283131400,1.82513134765625,-0.00515561131760478,-0.002445417921990156,0.0014863032847642899
1761476359293164300,1.835164306640625,-0.0017043594270944595,0.004784666001796722,0.003129085525870323
1761476359303198500,1.845198486328125,-0.003143531735986471,0.011019391939043999,0.0025583701208233833
1761476359313231000,1.855231201171875,-0.0004472052678465843,0.017079487442970276,0.0028674080967903137
1761476359323264300,1.86526416015625,-0.004303195979446173,0.015388378873467445,0.0019270461052656174
1761476359333297200,1.875297119140625,-0.0044163805432617664,0.003949835896492004,-0.002583816647529602
1761476359343331300,1.885331298828125,-0.004609992261976004,-0.00849937740713358,-0.00010760873556137085
1761476359353364200,1.8953642578125,-0.0009978432208299637,-0.017043471336364746,0.0003632977604866028
1761476359363397400,1.9053974609375,-0.000440710224211216,-0.01766505464911461,-0.00047826115041971207
1761476359373431300,1.915431396484375,0.0019205305725336075,-0.0076835863292217255,-0.00043674372136592865
1761476359383464400,1.92546435546875,0.004162113182246685,0.00246492144651711,0.00198966171592474
1761476359393497300,1.935497314453125,0.003031170926988125,0.014431236311793327,0.000125909224152565
1761476359403530200,1.9455302734375,0.005157705396413803,0.013854128308594227,0.0013951724395155907
1761476359413564200,1.955564208984375,0.002989337779581547,0.01349620334804058,-0.0013718120753765106
1761476359423597300,1.965597412109375,0.003482288680970669,0.002939698752015829,-0.00023091305047273636
1761476359433630200,1.975630126953125,0.007931489497423172,-0.00747519638389349,0.00034688133746385574
1761476359443663400,1.985663330078125,0.006636394187808037,-0.0036993660032749176,-0.0025841938331723213
1761476359453697300,1.995697265625,0.005221538245677948,0.003204017411917448,0.0011774897575378418
1761476359463730400,2.00573046875,0.005810895934700966,0.011211876757442951,0.001240340992808342
1761476359473763300,2.015763427734375,0.005462287925183773,0.015287311747670174,-0.0005527660250663757
1761476359483796500,2.02579638671875,0.0010710014030337334,0.009291470982134342,0.0039072297513484955
1761476359493830100,2.035830078125,0.0001831650733947754,-0.005651392042636871,0.002441834658384323
1761476359503863300,2.04586328125,-0.002689586952328682,-0.01755359023809433,0.0007533906027674675
1761476359513896200,2.055896240234375,-0.0019058603793382645,-0.02320222184062004,-0.00285125058144331
1761476359523929300,2.065929443359375,-0.0008003823459148407,-0.025042733177542686,-0.0009241877123713493
1761476359533962800,2.075962646484375,0.0009732414036989212,-0.0168682262301445,0.000018786638975143433
1761476359543996000,2.085995849609375,-0.00025021564215421677,-0.00919219758361578,0.0004606051370501518
1761476359554028800,2.09602880859375,-0.0009857802651822567,0.0024077333509922028,-0.0007146475836634636
1761476359564062000,2.10606201171875,-0.002511239144951105,0.005683953873813152,-0.0007660472765564919
1761476359574095600,2.116095703125,-0.003306150436401367,0.007584185339510441,-0.0017657466232776642
1761476359584128800,2.126128662109375,-0.0021143858321011066,0.005420899949967861,-0.00019741058349609375
1761476359594161700,2.13616162109375,0.00048307422548532486,0.003433582140132785,0.0015783505514264107
1761476359604194800,2.14619482421875,0.0002614986151456833,0.0018223696388304234,0.0029922230169177055
1761476359614228700,2.156228759765625,-0.00030656903982162476,0.007562676910310984,0.003113177604973316
1761476359624262000,2.166261962890625,-0.0007995199412107468,0.00785322766751051,0.004524919204413891
1761476359634294800,2.176294677734375,-0.0006876885890960693,0.008380536921322346,0.0012402171269059181
1761476359644328000,2.186327880859375,-0.0014629350043833256,-0.0009943228214979172,-0.0008477019146084785
1761476359654361600,2.196361572265625,-0.001755984965711832,-0.0051389336585998535,0.0005377465859055519
1761476359664394800,2.206394775390625,-0.0005029672756791115,-0.009634614922106266,0.00042189937084913254
1761476359674427600,2.216427734375,-0.0003074919804930687,-0.008709433488547802,-0.001941123977303505
1761476359684460800,2.226460693359375,0.00001794658601284027,-0.0005194139666855335,-0.0017296690493822098
1761476359694494700,2.23649462890625,-0.0007432247512042522,0.0037138089537620544,-0.0030241478234529495
1761476359704528000,2.24652783203125,-0.003672435414046049,0.01115201786160469,0.0026731519028544426
1761476359714560800,2.256560791015625,-0.0017826594412326813,0.01120721735060215,0.002946789376437664
1761476359724595000,2.266594970703125,-0.0018881205469369888,0.01078270934522152,0.0029976563528180122
1761476359734627800,2.2766279296875,-0.0013212128542363644,0.0032926336862146854,0.0037479018792510033
1761476359744660700,2.28666064453125,-0.0012703463435173035,-0.0036704670637845993,-0.000871085561811924
1761476359754693600,2.296693603515625,-0.0018268930725753307,-0.009672500193119049,-0.0014761537313461304
1761476359764727800,2.306727783203125,0.00013851933181285858,-0.015358082950115204,-0.00034777261316776276
1761476359774760700,2.3167607421875,0.0007590111345052719,-0.015984730795025826,-0.0013608066365122795
1761476359784793900,2.3267939453125,-0.0004972023889422417,-0.011842450127005577,-0.0021949084475636482
1761476359794826800,2.33682666015625,0.0014486992731690407,-0.004476672038435936,0.0004399372264742851
1761476359804861000,2.34686083984375,0.0038551315665245056,0.0012685651890933514,0.0006165048107504845
1761476359814893800,2.356893798828125,0.0021121297031641006,0.013109644874930382,0.000029189512133598328
1761476359824927000,2.366927001953125,0.0027006883174180984,0.009648600593209267,-0.0015777619555592537
1761476359834960000,2.3769599609375,0.0018686559051275253,0.006279303226619959,-0.0013241032138466835
1761476359844993800,2.386993896484375,0.001945354975759983,-0.0004467763938009739,-0.0023717908188700676
1761476359855026700,2.397026611328125,0.0031800568103790283,-0.005518633872270584,-0.002297614701092243
1761476359865059800,2.407059814453125,0.00487782247364521,-0.003461075946688652,-0.0009692292660474777
1761476359875092700,2.4170927734375,0.004433262161910534,0.002025902271270752,-0.0005753133445978165
1761476359885127000,2.427126953125,0.004204762168228626,0.003840846475213766,-0.0007987525314092636
1761476359895159800,2.437159912109375,0.004685412161052227,0.003138565458357334,-0.0013875076547265053
1761476359905193000,2.44719287109375,0.00008719880133867264,-0.0003725462593138218,-0.003420298919081688
1761476359915225900,2.457225830078125,0.0020181965082883835,-0.007236442994326353,-0.002277146093547344
1761476359925259800,2.467259765625,0.001370782032608986,-0.011608820408582687,-0.004123781807720661
1761476359935292700,2.477292724609375,0.000841866247355938,-0.007969208061695099,-0.0003260597586631775
1761476359945325800,2.487325927734375,-0.0007413830608129501,-0.0038554235361516476,-0.0016198232769966125
1761476359955358700,2.497358642578125,0.0031035691499710083,0.002558455104008317,0.0002383096143603325
1761476359965393000,2.507392822265625,-0.002454714383929968,0.01186566986143589,0.0016649654135107994
1761476359975425800,2.51742578125,-0.001670988742262125,0.010265039280056953,0.0008332040160894394
1761476359985459000,2.527458984375,-0.002445702441036701,0.006675631273537874,0.000853443518280983
1761476359995492900,2.537492919921875,-0.0028814184479415417,-0.004140979610383511,0.00024009495973587036
1761476360005525800,2.54752587890625,-0.0031394786201417446,-0.008147172629833221,-0.00007042940706014633
1761476360015558700,2.55755859375,-0.0016963300295174122,-0.004439586773514748,0.0003337487578392029
1761476360025591800,2.567591796875,-0.002551204990595579,0.0018308255821466446,0.0016959551721811295
1761476360035626000,2.5776259765625,-0.0021999687887728214,0.005729751195758581,0.0005078064277768135
1761476360045659000,2.587658935546875,-0.004400006029754877,0.006276764441281557,0.0016367202624678612
1761476360055691800,2.59769189453125,-0.005140555091202259,0.004982393234968185,-0.000150301493704319
1761476360065725000,2.607724853515625,-0.0031082965433597565,0.0007730009965598583,-0.0003031669184565544
1761476360075758800,2.6177587890625,-0.0031218663789331913,-0.0057677761651575565,0.002009407617151737
1761476360085791700,2.627791748046875,-0.0011426052078604698,-0.004000235814601183,0.002196362242102623
1761476360095824600,2.63782470703125,-0.0017894869670271873,-0.002068112138658762,-0.000621529296040535
1761476360105857800,2.64785791015625,-0.00006429105997085571,0.000524474773555994,-0.0027824174612760544
1761476360115892000,2.65789208984375,0.003970930352807045,0.0017524585127830505,-0.005081258248537779
1761476360125924900,2.6679248046875,0.0006339894607663155,-0.0006214831955730915,-0.0028436705470085144
1761476360135957800,2.677957763671875,0.0011094389483332634,0.0008679507300257683,-0.0008801613003015518
1761476360145991000,2.687990966796875,0.003405083902180195,0.001672225072979927,-0.0006937403231859207
1761476360156024800,2.69802490234375,0.0024756714701652527,0.0022803437896072865,0.0010108491405844688
1761476360166057700,2.7080576171875,0.0027012405917048454,0.003893420333042741,-0.00036786869168281555
1761476360176090600,2.718090576171875,0.0022976817563176155,0.0036380388773977757,0.0003785742446780205
1761476360186124800,2.728124755859375,0.0007160305976867676,0.005162698682397604,-0.001795896328985691
1761476360196158000,2.738157958984375,-0.0013363487087190151,0.0037983572110533714,-0.003817221149802208
1761476360206190800,2.74819091796875,-0.0018125218339264393,0.0032950197346508503,-0.006044422741979361
1761476360216223700,2.7582236328125,-0.00031223148107528687,-0.004497980233281851,-0.0027520572766661644
1761476360226258000,2.7682578125,-0.0012933402322232723,-0.00817793607711792,0.00015664659440517426
1761476360236290800,2.778290771484375,-0.0031708688475191593,-0.013982029631733894,0.0033138245344161987
1761476360246323700,2.78832373046875,-0.00376182422041893,-0.018424181267619133,0.004519437439739704
1761476360256356600,2.798356689453125,-0.003010811284184456,-0.019978823140263557,-0.0016035065054893494
1761476360266390800,2.808390869140625,-0.0035711401142179966,-0.018055755645036697,-0.004441371187567711
1761476360276424000,2.818423828125,-0.0023788632825016975,-0.022089023143053055,-0.00264162290841341
1761476360286456800,2.828456787109375,0.00018682610243558884,-0.015268667601048946,-0.001322825439274311
1761476360296489700,2.83848974609375,-0.0004572458565235138,-0.011147158220410347,0.00420028530061245
1761476360306524000,2.84852392578125,0.0003970954567193985,0.0019310936331748962,0.0019230162724852562
1761476360316557000,2.85855712890625,0.0007386235520243645,0.00889531522989273,0.002003578469157219
1761476360326589700,2.868589599609375,0.0011844364926218987,0.017217161133885384,0.0032366225495934486
1761476360336623900,2.878623779296875,0.0022519202902913094,0.018283473327755928,0.001549549400806427
1761476360346656800,2.88865673828125,0.002519833855330944,0.009857764467597008,0.0014299731701612473
1761476360356690000,2.89868994140625,0.002329489216208458,0.006175304297357798,0.0032137231901288033
1761476360366722800,2.908722900390625,0.003756145015358925,-0.000290584284812212,-0.00015996862202882767
1761476360376757000,2.918757080078125,0.0030026650056242943,-0.003051110077649355,-0.0006821798160672188
1761476360386790000,2.928789794921875,0.002796003594994545,-0.00597179913893342,-0.00007417984306812286
1761476360396823000,2.938822998046875,0.003940570168197155,-0.0026060710661113262,-0.0012686774134635925
1761476360406856000,2.94885595703125,0.0015487857162952423,0.0027578019071370363,0.0010506696999073029
1761476360416889900,2.958889892578125,0.0006395215168595314,0.0030106704216450453,0.0021168580278754234
1761476360426922800,2.9689228515625,0.0008906573057174683,0.004170476924628019,-0.001387062482535839
1761476360436956000,2.978955810546875,-0.0022174320183694363,0.0028004159685224295,-0.001163514330983162
1761476360446988800,2.98898876953125,-0.0030089234933257103,-0.00167183019220829,-0.0018780408427119255
1761476360457023000,2.99902294921875,-0.003247950691729784,0.0019307425245642662,-0.0007872600108385086
1761476360467055900,3.009055908203125,-0.0033366340212523937,-0.0001688939519226551,0.0015470003709197044
1761476360477089000,3.019089111328125,-0.0032033436000347137,0.004004223737865686,-0.001229974441230297
1761476360487122700,3.029122802734375,-0.005380744114518166,0.006495344452559948,0.0020403871312737465
1761476360497155800,3.03915576171875,-0.005419078748673201,0.005735605955123901,0.00034297164529561996
1761476360507188700,3.049188720703125,-0.004790572449564934,0.001061758492141962,-0.0012514628469944
1761476360517222000,3.059221923828125,-0.004295742604881525,-0.0010327580384910107,0.001827768050134182
1761476360527256800,3.0692568359375,-0.002477602567523718,-0.006913817021995783,0.0008948622271418571
1761476360537289700,3.079289794921875,-0.00022462569177150726,-0.011130530387163162,-0.0018009291961789131
1761476360547322600,3.089322509765625,-0.00013088248670101166,-0.010358747094869614,-0.0021511344239115715
1761476360557355500,3.09935546875,0.00272967666387558,-0.004013368394225836,-0.0006010355427861214
1761476360567389700,3.1093896484375,0.0011094091460108757,0.00024715717881917953,-0.0003592204302549362
1761476360577422600,3.119422607421875,0.0012697316706180573,0.00497187115252018,-0.00006494112312793732
1761476360587455500,3.12945556640625,-0.0012877020053565502,0.005203832406550646,-0.0027126558125019073
1761476360597489700,3.13948974609375,0.00026492029428482056,0.007505602668970823,0.00023013725876808167
1761476360607522800,3.149522705078125,-0.00019553955644369125,0.007375107612460852,0.0031894417479634285
1761476360617555700,3.1595556640625,0.0015970943495631218,0.00250538089312613,0.00033760257065296173
1761476360627588600,3.169588623046875,0.0035499902442097664,0.0001119980588555336,-0.002013968303799629
1761476360637622500,3.17962255859375,0.0037216143682599068,-0.007616343908011913,-0.003390737809240818
1761476360647655700,3.18965576171875,0.002802290953695774,-0.01045500673353672,-0.0034786220639944077
1761476360657688600,3.1996884765625,0.003695528954267502,-0.01438193954527378,-0.0029859300702810287
1761476360667721500,3.209721435546875,-0.0006542117334902287,-0.012140356004238129,-0.0034882016479969025
1761476360677755600,3.219755615234375,-0.0004480220377445221,-0.006088562775403261,-0.002032834105193615
1761476360687788800,3.229788818359375,-0.0002096695825457573,0.0011072983033955097,-0.0009270897135138512
1761476360697821700,3.23982177734375,0.0003394000232219696,0.00910218246281147,0.001609613187611103
1761476360707855600,3.249855712890625,-0.0014204168692231178,0.012954444624483585,0.00045087188482284546
1761476360717888500,3.259888427734375,-0.0012614540755748749,0.0068739065900444984,0.0006668819114565849
1761476360727921700,3.269921630859375,-0.0008665071800351143,0.00241444306448102,0.0015390673652291298
1761476360737954600,3.27995458984375,-0.0005145715549588203,-0.00482770474627614,0.00045951735228300095
1761476360747988700,3.28998876953125,-0.001213651616126299,-0.01070663332939148,-0.005057220812886953
1761476360758021600,3.300021728515625,-0.002450171858072281,-0.015225009992718697,-0.0036522187292575836
1761476360768054800,3.3100546875,-0.00006637629121541977,-0.007996125146746635,0.0006684940308332443
1761476360778087700,3.320087646484375,-0.0011768154799938202,-0.0035643265582621098,0.00018364563584327698
1761476360788121600,3.33012158203125,0.002069045789539814,0.006129313725978136,0.00021773390471935272
1761476360798154500,3.340154541015625,0.002342609688639641,0.015400703996419907,0.003998229280114174
1761476360808187600,3.350187744140625,-0.0004047071561217308,0.017006857320666313,0.0007481072098016739
1761476360818221600,3.3602216796875,-0.0013218964450061321,0.009435546584427357,0.0011019278317689896
1761476360828254700,3.370254638671875,0.00039264652878046036,-0.0007664910517632961,-0.0013463161885738373
1761476360838287600,3.38028759765625,0.0001304280012845993,-0.011039967648684978,-0.0031482819467782974
1761476360848320800,3.39032080078125,0.0002931468188762665,-0.013868243433535099,0.00018226727843284607
1761476360858354700,3.400354736328125,0.0000056782737374305725,-0.008411839604377747,-0.0016447417438030243
1761476360868387600,3.4103876953125,-0.0021179267205297947,0.0034405591432005167,-0.0004556402564048767
1761476360878420500,3.42042041015625,0.0003809453919529915,0.010676484555006027,0.0005469387397170067
1761476360888454700,3.43045458984375,0.0016723116859793663,0.00988632533699274,-0.00011405721306800842
1761476360898487600,3.440487548828125,0.0014754598960280418,0.004849044140428305,0.0018865251913666725
1761476360908520700,3.450520751953125,-0.0018977001309394836,-0.0020972788333892822,-0.0015830406919121742
1761476360918553600,3.4605537109375,-0.0008437531068921089,-0.005244547035545111,-0.0026442119851708412
1761476360928587800,3.470587890625,-0.0016672024503350258,-0.008814515545964241,-0.001662837341427803
1761476360938620700,3.48062060546875,-0.00017262157052755356,-0.006227462086826563,0.0004499303176999092
1761476360948653800,3.49065380859375,-0.003962832503020763,0.00023363297805190086,-0.0025210920721292496
1761476360958686500,3.5006865234375,0.0002221604809165001,0.003598627867177129,0.0008171806111931801
1761476360968720600,3.510720703125,-0.0008950354531407356,0.004765891470015049,-0.0007072128355503082
1761476360978753500,3.52075341796875,-0.0008153598755598068,0.004176183603703976,-0.000988454557955265
1761476360988786700,3.53078662109375,-0.0005317330360412598,0.00530243432149291,0.0004741540178656578
1761476360998820600,3.540820556640625,0.000357762910425663,0.004555683583021164,-0.000674733892083168
1761476361008853800,3.550853759765625,0.0005894573405385017,0.003230494912713766,0.0004832083359360695
1761476361018886700,3.56088671875,-0.0020007514394819736,0.008375231176614761,-0.003074140287935734
1761476361028919800,3.570919921875,-0.0021799826063215733,0.009878052398562431,-0.00467283558100462
1761476361038953500,3.580953369140625,-0.001233979593962431,0.008483324199914932,-0.00045318715274333954
1761476361048986600,3.590986572265625,-0.0028015165589749813,0.00283662392757833,-0.00031363777816295624
1761476361059019500,3.60101953125,-0.003841230645775795,-0.010962231084704399,0.0015746532008051872
1761476361069052700,3.611052734375,-0.0023139077238738537,-0.02077251859009266,0.0012926235795021057
1761476361079086600,3.621086669921875,-0.0010874951258301735,-0.028346970677375793,-0.0010153790935873985
1761476361089119700,3.63111962890625,0.00037191715091466904,-0.02332371473312378,-0.0026929043233394623
1761476361099152600,3.641152587890625,0.0033921953290700912,-0.023799408227205276,-0.001277245581150055
1761476361109186600,3.6511865234375,0.0015831096097826958,-0.013876471668481827,-0.00026124995201826096
1761476361119219500,3.661219482421875,0.00087696872651577,-0.010257456451654434,0.0008786693215370178
1761476361129252600,3.671252685546875,0.0018799155950546265,-0.0017212266102433205,0.0042781950905919075
1761476361139285500,3.681285400390625,0.003066827543079853,0.006108605302870274,0.0021536536514759064
1761476361149319700,3.691319580078125,0.002373873256146908,0.009014646522700787,-0.0005888696759939194
1761476361159352600,3.7013525390625,0.0036164335906505585,0.012496545910835266,0.0026264162734150887
1761476361169385700,3.7113857421875,0.0036334777250885963,0.016220977529883385,0.0012346478179097176
1761476361179419400,3.72141943359375,0.0032753078266978264,0.01663067936897278,0.004896916449069977
1761476361189452500,3.73145263671875,0.0013290690258145332,0.013626901432871819,0.00016181636601686478
1761476361199485400,3.7414853515625,0.002319829538464546,0.006426437757909298,0.00010032951831817627
1761476361209518600,3.7515185546875,0.0024354103952646255,-0.002808072604238987,0.0007314980030059814
1761476361219552500,3.761552490234375,0.00001166854053735733,-0.00782083161175251,-0.002392727881669998
1761476361229585700,3.771585693359375,0.00040395278483629227,-0.009691435843706131,0.001796424388885498
1761476361239618600,3.78161865234375,0.0000387607142329216,-0.007439921144396067,0.0009378660470247269
1761476361249651700,3.791651611328125,-0.001387628260999918,-0.002575657796114683,0.0021629203110933304
1761476361259685600,3.801685546875,-0.00148722343146801,0.0043210177682340145,0.00023159105330705643
1761476361269718500,3.811718505859375,-0.0013892194256186485,0.006449948530644178,-0.0016057230532169342
1761476361279751400,3.82175146484375,-0.0013770652003586292,0.0083626015111804,-0.0013810629025101662
1761476361289785600,3.83178564453125,-0.003894285298883915,0.0049601467326283455,0.00048368237912654877
1761476361299818500,3.841818603515625,-0.0025154822506010532,0.0036655596923083067,0.001606237143278122
1761476361309851600,3.8518515625,-0.004853471182286739,0.00645788386464119,0.0025838837027549744
1761476361319884500,3.861884521484375,-0.0027838125824928284,0.004102041479200125,0.0011985152959823608
1761476361329918700,3.871918701171875,-0.005601969547569752,0.006686639506369829,-0.0001522395759820938
1761476361339951600,3.88195166015625,-0.0033731949515640736,0.004348007496446371,-0.00023229233920574188
1761476361349984800,3.89198486328125,0.0005714790895581245,-0.0031019188463687897,0.0007570721209049225
1761476361360018700,3.902018798828125,-0.0017348616383969784,-0.00895332545042038,-0.003200630657374859
1761476361370051600,3.912051513671875,0.00010112114250659943,-0.008510440587997437,-0.000900990329682827
1761476361380084500,3.92208447265625,-0.0004865499213337898,-0.0059061553329229355,-0.0024972520768642426
1761476361390117600,3.93211767578125,0.00011612381786108017,0.000006595160812139511,-0.0053329854272305965
1761476361400151800,3.94215185546875,0.002490272745490074,0.0051335827447474,-0.000894433818757534
1761476361410184700,3.952184814453125,0.00034775957465171814,0.007336017210036516,-0.003915256820619106
1761476361420217600,3.962217529296875,0.004059407860040665,0.0031612457241863012,-0.00360846146941185
1761476361430250800,3.972250732421875,0.002622632309794426,-0.000650270376354456,-0.0023216214030981064
1761476361440284700,3.98228466796875,-0.0011092554777860641,0.0008365726098418236,-0.003227628767490387
1761476361450317600,3.992317626953125,0.0012401854619383812,-0.00040712393820285797,-0.003831101581454277
1761476361460350500,4.0023505859375,0.0001382865011692047,0.0005496367812156677,-0.0005800947546958923
1761476361470384600,4.012384521484375,0.001452823169529438,-0.001380089670419693,-0.004666182678192854
1761476361480415500,4.02241552734375,0.003146044909954071,-0.0020150491036474705,0.002338910475373268
1761476361490448600,4.03244873046875,0.0011348258703947067,0.0002963081933557987,-0.00021452829241752625
1761476361500481500,4.0424814453125,0.0018806559965014458,-0.0005314541049301624,-0.0009129764512181282
1761476361510514700,4.0525146484375,0.0005490751937031746,-0.0036311070434749126,-0.0005023172125220299
1761476361520548600,4.062548583984375,-0.0009332401677966118,-0.005092383828014135,-0.0072539630346000195
1761476361530581200,4.072581298828125,-0.0015146085061132908,-0.007987506687641144,-0.002530846744775772
1761476361540614100,4.0826142578125,-0.0018255156464874744,-0.004031104501336813,-0.0052507417276501656
1761476361550647000,4.09264697265625,0.0010672099888324738,0.0008978736586868763,-0.0005358811467885971
1761476361560681200,4.10268115234375,-0.0012280619703233242,0.0025946740061044693,-0.0004834067076444626
1761476361570714000,4.112714111328125,-0.00014602020382881165,0.006942284293472767,0.0018721586093306541
1761476361580747000,4.1227470703125,-0.0008888500742614269,0.0074934749864041805,0.0017043482512235641
1761476361590781200,4.13278125,-0.0015013772062957287,0.0009359735995531082,-0.0021180864423513412
1761476361600814000,4.14281396484375,-0.001426437869668007,-0.008857866749167442,-0.0019261427223682404
1761476361610847200,4.15284716796875,0.001226869411766529,-0.015414036810398102,-0.00009175669401884079
1761476361620880100,4.162880126953125,0.0023314710706472397,-0.014050320722162724,0.00007412023842334747
1761476361630914300,4.172914306640625,-0.0004307599738240242,-0.00428211223334074,-0.0009480006992816925
1761476361640947200,4.182947265625,-0.0005036965012550354,0.004994228016585112,-0.001851898618042469
1761476361650980400,4.19298046875,-0.0006392514333128929,0.013440443202853203,-0.0005506779998540878
1761476361661014000,4.203013916015625,0.00009539630264043808,0.015770450234413147,0.0018962230533361435
1761476361671047200,4.213047119140625,0.000487680546939373,0.01221166830509901,0.0015313699841499329
1761476361681080000,4.223080078125,-0.0008004987612366676,0.0006685559637844563,0.0025360938161611557
1761476361691113200,4.23311328125,-0.0011283336207270622,-0.0065874927677214146,-0.0011081760749220848
1761476361701147100,4.243147216796875,-0.0005833934992551804,-0.015229057520627975,-0.00278583075851202
1761476361711180300,4.25318017578125,-0.0007453137077391148,-0.014744095504283905,-0.002340017817914486
1761476361721213200,4.263213134765625,0.0037575988098978996,-0.011802446097135544,-0.006480901502072811
1761476361731246300,4.273246337890625,0.0010614143684506416,-0.0026070834137499332,-0.0008459193632006645
1761476361741280000,4.283280029296875,-0.0012392038479447365,0.0038854165468364954,0.00024867523461580276
1761476361751313200,4.293313232421875,-0.0009348047897219658,0.005925397854298353,0.0009195255115628242
1761476361761346000,4.303345947265625,-0.0007775379344820976,0.006308459676802158,-0.0009349342435598373
1761476361771380200,4.313380126953125,-0.0013336059637367725,0.003944638185203075,-0.0027570687234401703
1761476361781413000,4.3234130859375,-0.003091245424002409,-0.0029321014881134033,0.0005192123353481293
1761476361791446300,4.3334462890625,-0.0018078680150210857,-0.008757766336202621,-0.0031865760684013367
1761476361801479200,4.343479248046875,-0.0010076132602989674,-0.010375479236245155,-0.002024794928729534
1761476361811513000,4.35351318359375,-0.0025423928163945675,-0.008346151560544968,-0.0015262514352798462
1761476361821546000,4.3635458984375,-0.0018921657465398312,-0.006629844196140766,-0.00029101502150297165
1761476361831579100,4.3735791015625,-0.001702548936009407,0.0012512481771409512,-0.0016412371769547462
1761476361841613000,4.383613037109375,5.336478352546692e-7,0.004173467867076397,0.0013282885774970055
1761476361851646200,4.393646240234375,0.0009131990373134613,0.00972749013453722,0.003028716892004013
1761476361861679000,4.40367919921875,0.0003522289916872978,0.010387337766587734,0.005345745012164116
1761476361871712300,4.413712158203125,0.001659042201936245,0.008140427991747856,-0.0011638188734650612
1761476361881746200,4.42374609375,0.0016534170135855675,0.006326801143586636,-0.0016365060582756996
1761476361891779000,4.433779052734375,0.0025040311738848686,0.0024327270220965147,-0.0009038699790835381
1761476361901812000,4.44381201171875,0.002423427999019623,0.0032304879277944565,-0.0005434285849332809
1761476361911845000,4.45384521484375,0.0015065008774399757,0.0006165951490402222,-0.0010204007849097252
1761476361921879000,4.463879150390625,-0.0009528822265565395,-0.003301109652966261,0.0024292487651109695
1761476361931912200,4.473912109375,-0.00137792294844985,-0.010446103289723396,0.0008915401995182037
1761476361941945000,4.483945068359375,-0.001648189965635538,-0.020410781726241112,0.0017589880153536797
1761476361951979300,4.493979248046875,-0.001331539824604988,-0.025890234857797623,-0.002353198826313019
1761476361962012200,4.50401220703125,0.0021439846605062485,-0.020053084939718246,-0.000837213359773159
1761476361972045000,4.514045166015625,0.0036007333546876907,-0.01529508177191019,0.00006453320384025574
1761476361982078000,4.524077880859375,0.003242538310587406,-0.003593685105443001,0.0006163399666547775
1761476361992112000,4.534112060546875,0.0018193451687693596,0.002193630672991276,-0.0004212278872728348
1761476362002145000,4.54414501953125,0.0023407218977808952,0.00199983362108469,0.0018299920484423637
1761476362012178200,4.55417822265625,0.0015417728573083878,0.003250720677897334,-0.0002936124801635742
1761476362022212000,4.564212158203125,-0.000766802579164505,0.0007176781073212624,-0.0034696096554398537
1761476362032245200,4.574245361328125,-0.0005758539773523808,-0.002099147532135248,0.0004604170098900795
1761476362042278100,4.584278076171875,0.0000641336664557457,0.004449416883289814,-0.0023573078215122223
1761476362052311300,4.594311279296875,0.004498562775552273,0.0040334309451282024,0.001734904944896698
1761476362062345000,4.604344970703125,0.0035199103876948357,0.014379833824932575,0.004008924588561058
1761476362072380200,4.614380126953125,-0.0005251653492450714,0.014303667470812798,-0.0013751881197094917
1761476362082414000,4.6244140625,-0.0028363303281366825,0.010877164080739021,0.0007225563749670982
1761476362092447000,4.634447021484375,0.0018242020159959793,0.0017987149767577648,0.0007803468033671379
1761476362102480100,4.644480224609375,-0.0005401382222771645,-0.009951893240213394,-0.002079273574054241
1761476362112513000,4.654512939453125,-0.00014785397797822952,-0.01900291256606579,-0.0024377359077334404
1761476362122547200,4.664547119140625,-0.00225751381367445,-0.015527456998825073,-0.0033095451071858406
1761476362132580000,4.674580078125,0.00018300674855709076,-0.008555302396416664,-0.0007851347327232361
1761476362142613200,4.68461328125,-0.001177061814814806,0.0073825581930577755,-0.00004788488149642944
1761476362152646100,4.694646240234375,-0.002511837985366583,0.017375271767377853,-0.000941641628742218
1761476362162680000,4.70468017578125,-0.002950047142803669,0.022200392559170723,0.0023974180221557617
1761476362172713000,4.714712890625,-0.004321308806538582,0.017577677965164185,0.003717813640832901
1761476362182746000,4.72474609375,-0.003496337216347456,0.00509162712842226,-0.0022080205380916595
1761476362192780000,4.734780029296875,-0.003995946142822504,-0.005053419154137373,-0.0018583470955491066
1761476362202813200,4.744813232421875,-0.0023176935501396656,-0.015046849846839905,-0.00200690608471632
1761476362212846000,4.75484619140625,-0.00038743484765291214,-0.019554516300559044,0.0004685027524828911
1761476362222879200,4.764879150390625,0.0007218904793262482,-0.012173306196928024,-0.00004973728209733963
1761476362232913000,4.774912841796875,0.0015772972255945206,-0.005464272107928991,-0.0047195907682180405
1761476362242946000,4.784946044921875,0.001604253426194191,0.004995688330382109,-0.0005422839894890785
1761476362252979000,4.79497900390625,0.004014147445559502,0.006056159269064665,0.001002349890768528
1761476362263013000,4.80501318359375,0.0037000225856900215,0.01307523250579834,0.001433338038623333
1761476362273046000,4.8150458984375,0.002586289308965206,0.009423240087926388,0.0027782348915934563
1761476362283079200,4.8250791015625,0.0018480941653251648,0.008688226342201233,0.0001017395406961441
1761476362293112000,4.835112060546875,-0.0006078728474676609,0.004175499547272921,-0.0023222696036100388
1761476362303146200,4.845146240234375,0.001588921993970871,0.0010310779325664043,-0.0038697486743330956
1761476362313179100,4.85517919921875,0.0009907763451337814,-0.000023799948394298553,-0.001369839534163475
1761476362323212000,4.8652119140625,-0.0011348365806043148,-0.003610165324062109,-0.0037603434175252914
1761476362333245000,4.875244873046875,0.002278270199894905,-0.0026546227745711803,-0.00021674111485481262
1761476362343279000,4.885279052734375,0.003656456246972084,-0.00346555607393384,-0.0007640207186341286
1761476362353312000,4.89531201171875,0.0032876087352633476,-0.0022660675458610058,-0.0017621731385588646
1761476362363345200,4.90534521484375,0.00016632582992315292,-0.004041461739689112,-0.0009591039270162582
1761476362373379300,4.91537939453125,-0.00002169329673051834,-0.005834834184497595,-0.0021018655970692635
1761476362383412200,4.925412109375,0.0002122633159160614,-0.007099783979356289,0.0016253218054771423
1761476362393445000,4.935445068359375,-0.00031051505357027054,-0.004438486881554127,-0.0018825940787792206
1761476362403478300,4.945478271484375,0.001742970198392868,-0.0016579711809754372,0.0017621684819459915
1761476362413512200,4.95551220703125,0.0006231106817722321,0.007275070063769817,0.002247663214802742
1761476362423545000,4.965545166015625,0.0008138520643115044,0.012406310066580772,0.002461119554936886
1761476362433578000,4.975577880859375,0.0014692554250359535,0.014978124760091305,0.0025870874524116516
1761476362443612200,4.985612060546875,-0.0016270466148853302,0.00841281097382307,0.004176802933216095
1761476362453645300,4.995645263671875,-0.0028007016517221928,0.0015304042026400566,-0.0010816091671586037
1761476362463678200,5.00567822265625,-0.0022416049614548683,-0.005731468088924885,0.0006980299949645996
1761476362473711000,5.015711181640625,-0.0004298565909266472,-0.011203998699784279,0.003977179527282715
1761476362483745000,5.0257451171875,-0.0011600763536989689,-0.005811671260744333,-0.0006432393565773964
1761476362493778200,5.035778076171875,-0.002458367496728897,-0.002667809370905161,-0.0022925352677702904
1761476362503811000,5.04581103515625,-0.0035058087669312954,0.0038157457020133734,0.0024071261286735535
1761476362513844000,5.055843994140625,-0.001463963184505701,0.004040250554680824,-0.0003987802192568779
1761476362523878100,5.065878173828125,-0.002479999326169491,0.000680187251418829,-0.0008391216397285461
1761476362533911600,5.07591162109375,0.0016902443021535873,-0.0010442095808684826,-0.0007903855293989182
1761476362543944400,5.0859443359375,0.0011578351259231567,-0.010013541206717491,-0.0005366448312997818
1761476362553978400,5.095978271484375,0.0029930192977190018,-0.0035862685181200504,0.0025832485407590866
1761476362564011300,5.10601123046875,0.0027072764933109283,0.00022397376596927643,0.004194541834294796
1761476362574044400,5.11604443359375,0.0004880642518401146,0.00639877887442708,0.0027782730758190155
1761476362584077300,5.126077392578125,0.0017630485817790031,0.007238786667585373,-0.0015418166294693947
1761476362594111500,5.136111572265625,0.0023071318864822388,0.004199853632599115,-0.0031061572954058647
1761476362604144400,5.146144287109375,0.000649244524538517,-0.005370770581066608,0.00004928186535835266
1761476362614177500,5.156177490234375,0.0029030777513980865,-0.012431344017386436,-0.0011672498658299446
1761476362624210400,5.16621044921875,0.002867494709789753,-0.00939849577844143,0.0020816605538129807
1761476362634244400,5.176244384765625,0.002946591004729271,-0.0008774455636739731,0.002897653728723526
1761476362644277200,5.18627734375,0.0028432002291083336,0.01055990345776081,0.0023707402870059013
1761476362654310400,5.196310302734375,-0.0032317363657057285,0.019390147179365158,0.0031518451869487762
1761476362664344300,5.20634423828125,-0.004261010326445103,0.02204282023012638,-0.0017116488888859749
1761476362674377500,5.21637744140625,-0.00251584080979228,0.01307489164173603,0.000051897019147872925
1761476362684410400,5.226410400390625,-0.003595707006752491,0.002183702774345875,-0.003911360166966915
1761476362694443500,5.236443603515625,-0.004308901261538267,-0.008266275748610497,-0.004020282998681068
1761476362704477200,5.246477294921875,-0.003981831483542919,-0.014728682115674019,-0.002314547076821327
1761476362714510300,5.25651025390625,-0.005095032975077629,-0.02358129620552063,0.0008940296247601509
1761476362724543200,5.266543212890625,-0.005175103433430195,-0.01949719525873661,0.003813503310084343
1761476362734576400,5.276576416015625,-0.004128481261432171,-0.013969006016850471,0.0004470003768801689
1761476362744610300,5.2866103515625,-0.002268780954182148,-0.00997963733971119,-0.0017012134194374084
1761476362754643500,5.2966435546875,0.002017310820519924,-0.0051491959020495415,-0.0013355612754821777
1761476362764676400,5.30667626953125,0.0008121496066451073,-0.008706633932888508,-0.000660833902657032
1761476362774710500,5.31671044921875,0.003315521404147148,-0.005114828236401081,0.0014158990234136581
1761476362784743400,5.326743408203125,0.00289029348641634,-0.0004989453591406345,0.0012268545106053352
1761476362794776300,5.3367763671875,0.0042594242841005325,0.0038294901605695486,0.0005791736766695976
1761476362804809200,5.346809326171875,0.004587453790009022,0.00789328757673502,-0.00026659946888685226
1761476362814843400,5.356843505859375,0.0018918020650744438,0.009224068373441696,-0.0016945870593190193
1761476362824876300,5.366876220703125,0.004930410534143448,0.0063061797991395,0.0021620653569698334
1761476362834909400,5.376909423828125,0.0024366257712244987,0.0010536271147429943,0.0035817958414554596
1761476362844943400,5.386943359375,0.0037194108590483665,-0.0031684120185673237,0.000001301988959312439
1761476362854976500,5.3969765625,0.0028538843616843224,-0.009124305099248886,0.0005696211010217667
1761476362865009400,5.407009521484375,0.0016235895454883575,-0.014365693554282188,-0.0014548785984516144
1761476362875042600,5.41704248046875,0.002963426522910595,-0.015653332695364952,-0.0020817862823605537
1761476362885076200,5.427076171875,0.004910595715045929,-0.0135852862149477,-0.00035421736538410187
1761476362895109400,5.437109375,0.00043648574501276016,-0.008216617628932,-0.0021382691338658333
1761476362905142300,5.447142333984375,0.00018794089555740356,0.0026202404405921698,0.0009834617376327515
1761476362915175400,5.457175537109375,-0.0038624610751867294,0.010036344639956951,0.0025898804888129234
1761476362925209300,5.467209228515625,-0.00315417954698205,0.020322542637586594,0.0022162245586514473
1761476362935242500,5.477242431640625,-0.007189667318016291,0.02167995646595955,0.0021033063530921936
1761476362945275400,5.487275390625,-0.006570732221007347,0.019711675122380257,0.002224298194050789
1761476362955309300,5.497309326171875,-0.0038002454675734043,0.014343274757266045,0.00364669319242239
1761476362965342200,5.50734228515625,-0.003042695578187704,0.005219289567321539,0.00008576735854148865
1761476362975375400,5.517375244140625,-0.007112537976354361,-0.000006631482392549515,0.0010247975587844849
1761476362985408300,5.527408203125,-0.005628446117043495,-0.0075174192897975445,-0.002996954135596752
1761476362995442400,5.5374423828125,-0.0033114957623183727,-0.007676410023123026,-0.001487208530306816
1761476363005475300,5.547475341796875,-0.002611589152365923,-0.006308868061751127,-0.00012902356684207916
1761476363015508500,5.557508544921875,-0.0016544489189982414,-0.0017924127168953419,-0.003406575880944729
1761476363025541400,5.567541259765625,0.0020877812057733536,0.0016190269961953163,-0.00045771524310112
1761476363035575300,5.5775751953125,0.0041626496240496635,0.009709177538752556,0.0018504466861486435
1761476363045608200,5.587608154296875,0.00292985700070858,0.01869526319205761,0.003812241367995739
1761476363055641300,5.597641357421875,0.005626040510833263,0.01810164377093315,0.004120101220905781
1761476363065675300,5.60767529296875,0.0031339144334197044,0.013381213881075382,0.0019503720104694366
1761476363075708400,5.61770849609375,0.004090256057679653,0.00894598476588726,0.0006004162132740021
1761476363085741300,5.6277412109375,0.0028695371001958847,0.005129334516823292,0.0014461930841207504
1761476363095774500,5.6377744140625,0.0022114701569080353,0.00017132796347141266,-0.0010127034038305283
1761476363105808400,5.647808349609375,0.0009652869775891304,-0.003911552485078573,-0.0028402088209986687
1761476363115841300,5.65784130859375,0.003953886218369007,-0.0028651966713368893,-0.0014849258586764336
1761476363125874200,5.667874267578125,0.003009321168065071,-0.0015896768309175968,-0.003134080208837986
1761476363135907300,5.6779072265625,0.004553955048322678,0.002920386381447315,0.0029286062344908714
1761476363145941200,5.687941162109375,0.0009142439812421799,0.004865149036049843,0.0017157047986984253
1761476363155974400,5.697974365234375,-0.00005408097058534622,0.0049839261919260025,0.0021181078627705574
1761476363166007300,5.70800732421875,-0.004117683041840792,0.0016758940182626247,-0.00047759339213371277
1761476363176041500,5.71804150390625,-0.002145612146705389,-0.001899932511150837,-0.0005998322740197182
1761476363186074400,5.728074462890625,-0.0013782498426735401,-0.010464876890182495,-0.003197350539267063
1761476363196107300,5.738107177734375,-0.0012235199101269245,-0.012974904850125313,-0.0019845468923449516
1761476363206140200,5.74814013671875,-0.004038420505821705,-0.013933246955275536,-0.002945808693766594
1761476363216174300,5.75817431640625,-0.0033100461587309837,-0.005706742871552706,-0.004210810177028179
1761476363226207200,5.768207275390625,-0.0015780320391058922,0.004578871186822653,0.0008378829807043076
1761476363236240400,5.778240478515625,0.0006891172379255295,0.010869523510336876,-0.0019477829337120056
1761476363246273300,5.788273193359375,-0.0027415365912020206,0.015367461368441582,0.004508156329393387
1761476363256307500,5.798307373046875,-0.002673892304301262,0.01553311012685299,0.003486035391688347
1761476363266340400,5.80834033203125,-0.0019764103926718235,0.010196667164564133,0.0010369913652539253
1761476363276373500,5.81837353515625,-0.002131139859557152,0.007768130861222744,0.00016693677753210068
1761476363286406400,5.828406494140625,-0.003041087184101343,0.0028618015348911285,-0.000037389807403087616
1761476363296440300,5.8384404296875,-0.002038140781223774,0.003159809159114957,-0.0026289112865924835
1761476363306473200,5.84847314453125,0.0004693344235420227,0.0026458718348294497,-0.0030295858159661293
1761476363316506400,5.85850634765625,0.0003825156018137932,0.003703413065522909,-0.0031819185242056847
1761476363326540500,5.86854052734375,0.0023192381486296654,0.00699861953034997,-0.0011440413072705269
1761476363336573400,5.878573486328125,0.0036601396277546883,0.007690508849918842,-0.0016042357310652733
1761476363346606300,5.8886064453125,0.0022402172908186913,0.0016376040875911713,-0.0011065294966101646
1761476363356639500,5.898639404296875,0.004242914728820324,-0.004727084189653397,0.0010221349075436592
1761476363366673400,5.90867333984375,0.0029629692435264587,-0.007352172862738371,-0.001972030848264694
1761476363376706300,5.918706298828125,0.00519656203687191,-0.01109977439045906,-0.0034346384927630424
1761476363386739200,5.9287392578125,0.0046122074127197266,-0.0013985405676066875,0.0018555913120508194
1761476363396772400,5.9387724609375,0.00682662520557642,0.011888768523931503,0.001358911395072937
1761476363406806500,5.948806640625,0.005451234057545662,0.022701412439346313,0.0043450165539979935
1761476363416839400,5.95883935546875,0.0019947178661823273,0.03129303455352783,0.004267517477273941
1761476363426872300,5.968872314453125,0.0028197485953569412,0.03155343234539032,0.0009483350440859795
1761476363436906200,5.97890625,0.00196806900203228,0.01680883951485157,0.000283876433968544
1761476363446939400,5.988939453125,-0.0031596412882208824,-0.0073333801701664925,0.005823907442390919
1761476363456972300,5.99897216796875,-0.0010024812072515488,-0.02847381681203842,0.004150110296905041
1761476363467005400,6.00900537109375,-0.003769874107092619,-0.03306078165769577,-0.0017822757363319397
1761476363477039400,6.019039306640625,0.0018272912129759789,-0.0260153878480196,-0.001742062158882618
1761476363487072500,6.029072509765625,0.000013129785656929016,-0.010911868885159492,0.0010216785594820976
1761476363497105400,6.03910546875,-0.00036211032420396805,0.0033102112356573343,0.0016991868615150452
1761476363507138600,6.049138671875,-0.00264898594468832,0.01157340221107006,0.006366821005940437
1761476363517172200,6.059172119140625,-0.003111843019723892,0.016333268955349922,0.0025049718096852303
1761476363527205400,6.069205322265625,-0.0025639464147388935,0.01584622636437416,0.0010734209790825844
1761476363537238300,6.07923828125,-0.005249477922916412,0.006685485132038593,-0.0014576474204659462
1761476363547271200,6.089271240234375,-0.0013442672789096832,0.0031049461103975773,0.0018414873629808426
1761476363557305300,6.099305419921875,-0.0030449614860117435,0.000266016460955143,0.0026241904124617577
1761476363567338200,6.109338134765625,-0.0034717638045549393,0.003365337150171399,-0.001726686954498291
1761476363577371400,6.119371337890625,-0.0007769111543893814,0.007484714966267347,-0.0014585060998797417
1761476363587405300,6.1294052734375,-0.00040860846638679504,0.012464426457881927,0.0010806024074554443
1761476363597438200,6.139438232421875,0.000010838732123374939,0.011556021869182587,0.0015370678156614304
1761476363607471000,6.14947119140625,0.00339401513338089,0.014246148057281971,0.0034804493188858032
1761476363617504300,6.159504150390625,0.003106127493083477,0.009482285939157009,0.0044961776584386826
1761476363627538200,6.1695380859375,0.0011823158711194992,0.0054565854370594025,0.003623463213443756
1761476363637571300,6.1795712890625,-0.002207355573773384,-0.0020703068003058434,-0.0001734057441353798
1761476363647604200,6.189604248046875,-0.002930089831352234,-0.004359295126050711,-0.005154923070222139
1761476363657637400,6.199637451171875,-0.002380679827183485,-0.004999518860131502,-0.003622273914515972
1761476363667671300,6.20967138671875,0.00015216972678899765,-0.0008376617915928364,-0.00019355770200490952
1761476363677704400,6.219704345703125,-0.0007983124814927578,0.007048490922898054,0.001500745303928852
1761476363687737300,6.2297373046875,-0.005496109835803509,0.012518424540758133,0.000720529817044735
1761476363697770200,6.239770263671875,-0.005663356743752956,0.01222893875092268,-0.0008560614660382271
1761476363707804200,6.24980419921875,-0.005399479065090418,0.006475378293544054,-0.0017940811812877655
1761476363717837300,6.25983740234375,-0.0007104515098035336,-0.0020113172940909863,-0.002163461409509182
1761476363727870200,6.2698701171875,-0.000015895813703536987,-0.01383262500166893,0.0005874568596482277
1761476363737903400,6.2799033203125,0.0018334034830331802,-0.016742393374443054,-0.0007457220926880836
1761476363747937300,6.289937255859375,0.002115597017109394,-0.012241585180163383,-0.00013445504009723663
1761476363757970400,6.299970458984375,-0.00016912911087274551,-0.006611928343772888,0.0012687649577856064
1761476363768003300,6.31000341796875,0.0006126491352915764,0.00263170525431633,-0.003355438821017742
1761476363778036500,6.320036376953125,0.002078186720609665,0.002581105101853609,-0.004197530448436737
1761476363788070100,6.330070068359375,0.005855552852153778,0.002940765116363764,-0.004093009978532791
1761476363798103300,6.340103271484375,0.005166593007743359,0.00032926909625530243,-0.0006309011951088905
1761476363808136200,6.35013623046875,0.002640361897647381,0.0032105352729558945,0.001560799777507782
1761476363818169300,6.36016943359375,0.004953849129378796,0.00470163905993104,0.0003645075485110283
1761476363828203300,6.370203369140625,0.002827521413564682,0.00587409408763051,0.0021060705184936523
1761476363838236400,6.380236328125,0.0021060705184936523,0.003735576057806611,0.00012201536446809769
1761476363848269300,6.390269287109375,0.0020519066601991653,-0.0036690100096166134,-0.002913116477429867
1761476363858302500,6.400302490234375,0.001562417484819889,-0.005336680915206671,-0.0022079115733504295
1761476363868336000,6.410336181640625,0.003127926029264927,-0.01131953950971365,-0.0018718931823968887
1761476363878369300,6.420369384765625,0.0021388279274106026,-0.006487500853836536,-0.0016444595530629158
1761476363888402200,6.430402099609375,0.0023069968447089195,0.00022979453206062317,-0.0009655961766839027
1761476363898435300,6.440435302734375,0.0021035317331552505,0.006818454712629318,0.0012994222342967987
1761476363908469200,6.45046923828125,0.001140243373811245,0.01158871315419674,-0.0008726110681891441
1761476363918502400,6.46050244140625,-0.0008051954209804535,0.011161809787154198,0.0021388912573456764
1761476363928535300,6.470535400390625,-0.000898897647857666,0.007250144612044096,0.00021094270050525665
1761476363938568400,6.480568359375,-0.0024318131618201733,0.0029874888714402914,0.002518305554986
1761476363948602000,6.49060205078125,-0.0030389800667762756,0.005589901935309172,0.004266836680471897
1761476363958635300,6.50063525390625,-0.0028256606310606003,0.004137147217988968,-0.002057638019323349
1761476363968668200,6.510668212890625,-0.0047535402700304985,0.0056940470822155476,-0.002735360525548458
1761476363978701300,6.520701416015625,0.00095414649695158,0.004489233251661062,-0.000977940857410431
1761476363988735200,6.5307353515625,-0.0007901061326265335,0.0031708835158497095,0.0010310225188732147
1761476363998768400,6.540768310546875,-0.0007688007317483425,0.0008826954290270805,0.005361322313547134
1761476364008801300,6.55080126953125,-0.0033373278565704823,0.001242256723344326,0.001630891114473343
1761476364018834400,6.56083447265625,-0.0019269175827503204,0.0002411743625998497,-0.003550555557012558
1761476364028868000,6.5708681640625,-0.0030288109555840492,-0.002546618226915598,-0.0010745925828814507
1761476364038901200,6.5809013671875,0.001412276178598404,-0.004227606114000082,-0.0048341769725084305
1761476364048934100,6.59093408203125,0.0010672518983483315,-0.00144121702760458,-0.00220548827201128
1761476364058967300,6.60096728515625,0.0005173087120056152,0.003728511044755578,0.0018113572150468826
1761476364069001200,6.611001220703125,0.0018770880997180939,0.00876331515610218,0.0007024351507425308
1761476364079034400,6.621034423828125,0.0024206386879086494,0.00995747558772564,0.0016020508483052254
1761476364089067300,6.6310673828125,0.0020187795162200928,0.004691785201430321,-0.0005721263587474823
1761476364099100400,6.641100341796875,0.002281101420521736,-0.00007953401654958725,-0.0015827957540750504
1761476364109134000,6.651134033203125,0.005393374711275101,-0.006051473785191774,0.0005849450826644897
1761476364119167200,6.661167236328125,0.003999742679297924,-0.004234664607793093,-0.0028702393174171448
1761476364129200000,6.6712001953125,0.0017156722024083138,-0.0017731022089719772,-0.0013029472902417183
1761476364139233300,6.6812333984375,0.002606232650578022,0.007196424528956413,-0.0007327646017074585
1761476364149267200,6.69126708984375,0.0008915793150663376,0.011020619422197342,-0.004313335753977299
1761476364159300400,6.70130029296875,-0.0012892833910882473,0.008957202546298504,-0.001299436204135418
1761476364169333200,6.711333251953125,-0.0018824716098606586,-0.0030767545104026794,0.0009936196729540825
1761476364179366400,6.721366455078125,-0.006554455030709505,-0.017603233456611633,0.002915356308221817
1761476364189399300,6.7313994140625,-0.0030024442821741104,-0.026813538745045662,0.000216691754758358
1761476364199433200,6.74143310546875,-0.0038139093667268753,-0.029611723497509956,-0.0030675185844302177
1761476364209466000,6.751466064453125,-0.002716958522796631,-0.020625039935112,-0.0031208405271172523
1761476364219499300,6.761499267578125,-0.001014932058751583,-0.011739934794604778,-0.0007391758263111115
1761476364229532200,6.7715322265625,-0.002828045282512903,-0.005852124188095331,-0.0019232025370001793
1761476364239566300,6.78156640625,-0.0006130943074822426,0.006884709931910038,0.0001854877918958664
1761476364249599200,6.79159912109375,-0.0008217976428568363,0.00957338884472847,0.00124380923807621
1761476364259632400,6.80163232421875,-0.0020857341587543488,0.011070085689425468,0.0014302302151918411
1761476364269665300,6.811665283203125,0.000287041999399662,0.006042639259248972,0.0008840896189212799
1761476364279699200,6.82169921875,0.00033045094460248947,0.000019900500774383545,0.0010505374521017075
1761476364289732000,6.831732177734375,0.003051985986530781,0.0009525767527520657,0.0008582472801208496
1761476364299765200,6.84176513671875,0.00490980688482523,0.0032269165385514498,0.0003304090350866318
1761476364309798100,6.851798095703125,0.003956634551286697,0.003898605005815625,0.0011270688846707344
1761476364319832300,6.861832275390625,0.004288198426365852,0.0066347368992865086,0.00013504084199666977
1761476364329865200,6.871865234375,0.0038090692833065987,0.00282461429014802,-0.0008511794731020927
1761476364339898400,6.8818984375,0.003156861290335655,-0.0005211150273680687,-0.0010242853313684464
1761476364349931300,6.89193115234375,0.004079434089362621,-0.004942595958709717,-0.0025908127427101135
1761476364359964200,6.901964111328125,0.0029009850695729256,-0.005857924930751324,-0.0022243615239858627
1761476364369998300,6.911998291015625,0.0008047567680478096,-0.0028662942349910736,-0.0038765305653214455
1761476364380031200,6.92203125,0.002075617201626301,0.0032424642704427242,-0.002916993573307991
1761476364390064000,6.932064208984375,-0.00006693229079246521,0.011182090267539024,0.0007525337859988213
1761476364400097000,6.942096923828125,-0.002138604875653982,0.011314715258777142,-0.00096893310546875
1761476364410131200,6.952131103515625,-0.0025442540645599365,0.010216660797595978,0.001670805737376213
1761476364420164400,6.962164306640625,-0.0033522569574415684,0.006650954484939575,-0.0003420114517211914
1761476364430197200,6.972197265625,-0.003915147855877876,-0.0007772045210003853,-0.0013018874451518059
1761476364440230100,6.982230224609375,-0.0037961043417453766,-0.008864425122737885,-0.0011950945481657982
1761476364450263300,6.99226318359375,-0.002607247792184353,-0.012405414134263992,0.0020892592146992683
1761476364460297500,7.00229736328125,-0.00027298741042613983,-0.010218959301710129,0.0027409344911575317
1761476364470330000,7.012330078125,-0.004193482920527458,-0.004348985850811005,0.00009061302989721298
1761476364480363000,7.022363037109375,-0.0017907791770994663,-0.0015894179232418537,-0.0007176557555794716
1761476364490396200,7.032396240234375,0.00009537208825349808,-0.0013095894828438759,-0.0023329369723796844
1761476364500430300,7.042430419921875,-0.00030996091663837433,0.0012515722773969173,-0.0019718119874596596
1761476364510463200,7.052463134765625,0.0006179604679346085,0.0008343476802110672,-0.0020945584401488304
1761476364520496000,7.06249609375,0.0008126376196742058,0.007211819291114807,-0.001958737149834633
1761476364530529500,7.072529541015625,0.0006468035280704498,0.0092483414337039,-0.0007455581799149513
1761476364540562400,7.0825625,0.0006553260609507561,0.010590307414531708,0.0013237176463007927
1761476364550596400,7.092596435546875,0.002575271762907505,0.008452169597148895,0.00004399847239255905
1761476364560629200,7.102629150390625,0.000828237272799015,-0.0035674748942255974,-0.004348086658865213
1761476364570662400,7.112662353515625,0.0009108725935220718,-0.010654054582118988,-0.0028371233493089676
1761476364580695300,7.1226953125,0.0031151706352829933,-0.013667421415448189,-0.0021678712218999863
1761476364590729500,7.1327294921875,0.0035656560212373734,-0.012835838831961155,-0.0038796402513980865
1761476364600762400,7.142762451171875,0.004663943313062191,-0.009936188347637653,-0.0006673354655504227
1761476364610795500,7.15279541015625,0.004765663295984268,-0.0031993226148188114,-0.0009577767923474312
1761476364620828400,7.162828369140625,0.0015624137595295906,0.005269529297947884,-0.0009106388315558434
1761476364630861600,7.172861572265625,0.0012768572196364403,0.0005225720815360546,0.002299654297530651
1761476364640895500,7.1828955078125,0.00023076776415109634,0.003399851266294718,0.0004607411101460457
1761476364650928400,7.192928466796875,0.00032051093876361847,0.0008054235950112343,0.0012315204367041588
1761476364660961300,7.202961181640625,-0.000870987307280302,0.002181212417781353,0.002183866687119007
1761476364670994400,7.212994384765625,-0.0008930517360568047,0.003520550671964884,-0.0007847761735320091
1761476364681028400,7.2230283203125,0.000025472603738307953,0.003874218324199319,-0.0014894483610987663
1761476364691061500,7.2330615234375,-0.00036395248025655746,0.0030234884470701218,0.0004274072125554085
1761476364701094400,7.243094482421875,-0.00032320618629455566,-0.002644516993314028,0.00036588776856660843
1761476364711127600,7.25312744140625,-0.004718979354947805,-0.00857134535908699,-0.0006935335695743561
1761476364721160400,7.263160400390625,-0.004207652527838945,-0.011668335646390915,-0.0026240581646561623
1761476364731194600,7.273194580078125,-0.00028566084802150726,-0.005075159948319197,-0.002222376875579357
1761476364741227300,7.283227294921875,-0.0006811404600739479,0.0009624925442039967,0.0002607544884085655
1761476364751260400,7.293260498046875,-0.0001889178529381752,0.0055778659880161285,-0.0009711356833577156
1761476364761293300,7.303293212890625,0.0012609073892235756,0.00781518779695034,0.0004936028271913528
1761476364771326500,7.313326416015625,-0.0011518378742039204,0.007264252752065659,0.004270197823643684
1761476364781360400,7.3233603515625,0.002964077517390251,0.0019328705966472626,-0.0003115041181445122
1761476364791393500,7.3333935546875,0.0006644949316978455,-0.005978134926408529,-0.0024755876511335373
1761476364801426400,7.343426513671875,0.00028765760362148285,-0.005633521359413862,-0.00288331788033247
1761476364811459600,7.35345947265625,0.0007131751626729965,0.00015412690117955208,0.00012389570474624634
1761476364821492500,7.363492431640625,0.001550472341477871,0.009015263058245182,0.004254458472132683
1761476364831526400,7.3735263671875,0.002442697063088417,0.014244802296161652,0.0022048261016607285
1761476364841559300,7.383559326171875,0.000016557052731513977,0.010304389521479607,-0.0002732444554567337
1761476364851592400,7.393592529296875,-0.0022202753461897373,-0.0011046077124774456,-0.0004213135689496994
1761476364861625300,7.403625244140625,-0.002774212509393692,-0.017527256160974503,0.0014815153554081917
1761476364871658500,7.413658447265625,-0.003804851323366165,-0.029876358807086945,0.0015083523467183113
1761476364881692400,7.4236923828125,-0.0031156251206994057,-0.03009180724620819,-0.0018341811373829842
1761476364891725600,7.4337255859375,-0.0023726685903966427,-0.021904323250055313,-0.00251077301800251
1761476364901758500,7.443758544921875,-0.001732444390654564,-0.009209567680954933,0.0018360381945967674
1761476364911791600,7.45379150390625,-0.002414175309240818,0.005335555411875248,0.003581339493393898
1761476364921824500,7.463824462890625,-0.0016594352200627327,0.011058155447244644,-0.0013907821848988533
1761476364931858400,7.4738583984375,-0.0012447163462638855,0.012601366266608238,-0.0002568075433373451
1761476364941891300,7.483891357421875,-0.00021913275122642517,0.010471902787685394,0.001260661520063877
1761476364951924500,7.493924560546875,0.003846581093966961,0.00748997088521719,-0.0004437314346432686
1761476364961957400,7.503957275390625,0.0019043376669287682,0.005075016524642706,0.0016276752576231956
1761476364971991600,7.513991455078125,0.0031240014359354973,0.0075449226424098015,0.0021192943677306175
1761476364982024400,7.5240244140625,0.0019713854417204857,0.008847741410136223,0.0012337928637862206
1761476364992057600,7.5340576171875,-0.0006030588410794735,0.008430483750998974,0.001355011947453022
1761476365002090500,7.544090576171875,-0.0009676455520093441,0.004024816676974297,-0.002737468108534813
1761476365012123400,7.554123291015625,0.0015348559245467186,-0.003832389134913683,-0.0017089257016777992
1761476365022156500,7.564156494140625,0.002450716681778431,-0.0063693164847791195,0.0018634386360645294
1761476365032190500,7.5741904296875,0.00350123830139637,-0.007686769589781761,-0.0017210133373737335
1761476365042223400,7.584223388671875,0.004274620674550533,-0.0024949368089437485,-0.00034549087285995483
1761476365052256300,7.59425634765625,0.004748163744807243,0.008352978155016899,0.0001706741750240326
1761476365062289400,7.604289306640625,0.0021206894889473915,0.015449237078428268,0.0005626920610666275
1761476365072322300,7.614322265625,0.0015394864603877068,0.015274104662239552,0.0026063276454806328
1761476365082356500,7.6243564453125,-0.0010581607930362225,0.011976579204201698,0.004023129120469093
1761476365092389400,7.634389404296875,-0.0031992080621421337,0.0001971242018043995,0.0006155241280794144
1761476365102422500,7.644422607421875,-0.0026577874086797237,-0.0037608658894896507,0.0017907777801156044
1761476365112455400,7.654455322265625,-0.001738798338919878,-0.004617225844413042,-0.0005990825593471527
1761476365122488600,7.664488525390625,-0.0031329630874097347,-0.003123990725725889,-0.00012424122542142868
1761476365132522200,7.674522216796875,-0.0006529316306114197,-0.005383765324950218,-0.00042184721678495407
1761476365142555400,7.684555419921875,-0.00158663559705019,-0.003668157383799553,-0.0007598018273711205
1761476365152588300,7.69458837890625,-0.0009276983328163624,-0.0032091280445456505,-0.00010999292135238647
1761476365162621400,7.704621337890625,0.0007769912481307983,-0.0022935327142477036,0.003732682205736637
1761476365172654300,7.714654296875,0.0002607041969895363,0.002569063799455762,-0.0002402961254119873
1761476365182688500,7.7246884765625,0.000601588748395443,0.0062508839182555676,0.0006499988958239555
1761476365192721400,7.734721435546875,0.00190760288387537,0.009325503371655941,0.001284097321331501
1761476365202754600,7.744754638671875,-0.0001789843663573265,0.009758267551660538,-0.0016922513023018837
1761476365212787500,7.754787353515625,0.001542343758046627,0.004654016345739365,0.0006346739828586578
1761476365222820600,7.764820556640625,-0.0004262644797563553,0.0009812512435019016,-0.0007637515664100647
1761476365232854300,7.774854248046875,-0.0017965915612876415,-0.0011743050999939442,-0.001506744883954525
1761476365242887400,7.784887451171875,-0.0021177688613533974,-0.0032766046933829784,-0.0015959609299898148
1761476365252920300,7.79492041015625,0.0012695016339421272,-0.005558946169912815,-0.005039485637098551
1761476365262953500,7.804953369140625,0.0035976367071270943,-0.007288669236004353,-0.002979797311127186
1761476365272986400,7.814986328125,0.002749195322394371,-0.007441964466124773,-0.001432281918823719
1761476365283019500,7.82501953125,0.006187336519360542,-0.004600637126713991,-0.0013244245201349258
1761476365293053400,7.835053466796875,0.005521642975509167,0.00035622017458081245,0.0023756399750709534
1761476365303086600,7.845086669921875,0.004243858158588409,0.006150992587208748,0.005604988895356655
1761476365313119500,7.855119384765625,0.00021699164062738419,0.009614631533622742,0.00199287012219429
1761476365323152600,7.865152587890625,-0.001535101793706417,0.010578695684671402,0.000005885958671569824
1761476365333185500,7.875185546875,-0.0018980209715664387,0.007554029580205679,-0.0012450618669390678
1761476365343219500,7.885219482421875,-0.002246362157166004,0.0032253277022391558,0.0017752284184098244
1761476365353252400,7.89525244140625,-0.0014561135321855545,0.0007807034999132156,0.004466108046472073
1761476365363285500,7.905285400390625,-0.0028601321391761303,0.001449422910809517,0.000979498028755188
1761476365373318400,7.915318359375,-0.0008194190450012684,0.001081237569451332,0.0015037264674901962
1761476365383351600,7.9253515625,-0.00035682786256074905,0.00032916106283664703,0.002032363787293434
1761476365393384400,7.935384521484375,-0.0015108389779925346,0.0011937650851905346,-0.0000021168962121009827
1761476365403418600,7.945418701171875,-0.0004889843985438347,-0.004459327086806297,0.0007816515862941742
1761476365413451500,7.955451416015625,-0.0011013117618858814,-0.0054938350804150105,-0.0028065722435712814
1761476365423484700,7.965484619140625,0.002057463862001896,-0.0041404166258871555,-0.00012130662798881531
1761476365433517600,7.975517578125,0.00038214027881622314,-0.0006818864494562149,0.00037850625813007355
1761476365443550500,7.985550537109375,0.0017850939184427261,0.007777112070471048,0.001404622569680214
1761476365453584400,7.99558447265625,0.0033166678622365,0.01721319928765297,0.002225561998784542
1761476365463617500,8.005617431640625,0.0011890679597854614,0.023330748081207275,0.003561137244105339
1761476365473650400,8.015650390625,0.005185950547456741,0.020059878006577492,0.0025726845487952232
1761476365483681500,8.025681640625,-0.0012674215249717236,0.010408315807580948,-0.0017938343808054924
1761476365493714700,8.035714599609374,-0.0009502256289124489,-0.0062169707380235195,0.00131235271692276
1761476365503747600,8.04574755859375,0.00006843358278274536,-0.024570144712924957,-0.00037555862218141556
1761476365513780500,8.055780517578125,-0.0008537066169083118,-0.03536851331591606,0.0019177291542291641
1761476365523814400,8.065814453125,-0.004687060602009296,-0.030158303678035736,0.0024141427129507065
1761476365533847600,8.07584765625,0.0011038919910788536,-0.011824477463960648,-0.0011108964681625366
1761476365543879700,8.085879638671875,0.0023350706323981285,-0.0002109641209244728,0.0006372025236487389
1761476365553912600,8.09591259765625,-0.001668800599873066,0.00821751169860363,0.002765337936580181
1761476365563945700,8.10594580078125,-0.0022443095222115517,0.007477153558284044,0.0028220629319548607
1761476365573978600,8.115978515625,-0.0011293883435428143,0.004297057632356882,0.0031964201480150223
1761476365584012800,8.1260126953125,-0.003082284238189459,-0.0026205028407275677,0.0012941239401698112
1761476365594045700,8.136045654296876,-0.001494301948696375,0.0010555987246334553,-0.0025172159075737
1761476365604078800,8.146078857421875,0.0014841770753264427,0.0055619338527321815,0.0012053502723574638
1761476365614111700,8.15611181640625,0.0005886172875761986,0.013219179585576057,0.0024323593825101852
1761476365624145000,8.166144775390626,-0.0035121184773743153,0.015475144609808922,0.0009292708709836006
1761476365634177800,8.176177734375,-0.0014671450480818748,0.010990777984261513,-0.00035931263118982315
1761476365644211700,8.186211669921875,-0.00022930745035409927,0.003884399076923728,0.0015352601185441017
1761476365654244600,8.19624462890625,0.0000668652355670929,-0.007603882811963558,0.001170986331999302
1761476365664277800,8.20627783203125,0.0020852750167250633,-0.01363035012036562,-0.00044768303632736206
1761476365674310700,8.216310546875,0.004024703986942768,-0.014453315176069736,-0.0014034546911716461
1761476365684343800,8.22634375,0.004764529876410961,-0.007240941748023033,-0.0016708364710211754
1761476365694376700,8.236376708984375,0.004279788583517075,0.005981304217129946,0.00044515449553728104
1761476365704411000,8.246410888671875,0.00232689268887043,0.017019573599100113,0.00009947642683982849
1761476365714443800,8.25644384765625,0.0017354432493448257,0.01760314404964447,0.0020852303132414818
1761476365724477000,8.266476806640625,-0.00045074615627527237,0.013856609351933002,0.00252438522875309
1761476365734509800,8.276509765625,-0.001170882023870945,0.0051991892978549,0.0012369044125080109
1761476365744542700,8.286542724609374,-0.0018196282908320427,-0.0062899538315832615,-0.0019343877211213112
1761476365754576600,8.29657666015625,-0.0026866551488637924,-0.013663274236023426,-0.0012613032013177872
1761476365764609800,8.30660986328125,-0.0016461582854390144,-0.010888791643083096,-0.0020282939076423645
1761476365774642700,8.316642578125,0.0010014381259679794,-0.0046907817013561726,-0.0026859240606427193
1761476365784675600,8.326675537109375,0.0025093192234635353,0.0013205059804022312,0.004458005540072918
1761476365794708700,8.336708740234375,0.0018818005919456482,0.006191018037497997,0.0006561418995261192
1761476365804741600,8.34674169921875,0.0007867086678743362,0.0035387759562581778,0.00045454129576683044
1761476365814775800,8.35677587890625,-0.0003528101369738579,0.0028618802316486835,-0.0014350833371281624
1761476365824808700,8.36680859375,-0.002285200171172619,-0.0013714805245399475,-0.0027469564229249954
1761476365834841900,8.376841796875,-0.00121743930503726,0.001387219876050949,0.0009536994621157646
1761476365844874500,8.38687451171875,-0.0001702839508652687,0.004901261068880558,-0.0023147976025938988
1761476365854907600,8.39690771484375,0.0030003758147358894,0.011526741087436676,-0.0032601477578282356
1761476365864940500,8.4069404296875,0.003338330425322056,0.012569635175168514,0.0029705846682190895
1761476365874974700,8.416974609375,0.003230130299925804,0.014453411102294922,0.00313443411141634
1761476365885007600,8.427007568359375,0.0017230473458766937,0.014601216651499271,0.0006566289812326431
1761476365895040800,8.437040771484375,0.0012669237330555916,0.005300270393490791,0.0009108958765864372
1761476365905073700,8.44707373046875,0.0005244351923465729,-0.003908141981810331,-0.002552012912929058
1761476365915106800,8.45710693359375,0.00015275739133358002,-0.012051090598106384,-0.0008814847096800804
1761476365925139700,8.4671396484375,-0.00015031080693006516,-0.013173345476388931,-0.0037747425958514214
1761476365935172900,8.4771728515625,0.0009368723258376122,-0.011466876603662968,-0.003689437173306942
1761476365945206500,8.48720654296875,0.0022130589932203293,-0.006285163573920727,0.00042061973363161087
1761476365955239700,8.49723974609375,0.0020557641983032227,0.0013314103707671165,-0.0010609719902276993
1761476365965272600,8.5072724609375,0.0018086228519678116,0.0074295164085924625,0.00043519213795661926
1761476365975305700,8.5173056640625,0.003812158480286598,0.008847719989717007,0.002501373179256916
1761476365985338600,8.527338623046875,-0.0009016366675496101,0.009296462871134281,0.0012957602739334106
1761476365995371800,8.537371826171874,-0.001518378034234047,0.010935494676232338,0.0029043490067124367
1761476366005405700,8.54740576171875,-0.004443061538040638,0.007888838648796082,-0.0016051819548010826
1761476366015438800,8.55743896484375,-0.0038964198902249336,0.004047777503728867,-0.0012021111324429512
1761476366025471700,8.5674716796875,-0.0034487424418330193,-0.00001700548455119133,0.00025144219398498535
1761476366035505000,8.5775048828125,-0.003059754613786936,-0.007067923434078693,0.0002640318125486374
1761476366045537800,8.587537841796875,-0.00347547372803092,-0.014007588848471642,-0.0014041727408766747
1761476366055570700,8.59757080078125,-0.002451043576002121,-0.013783173635601997,-0.0026401905342936516
1761476366065604600,8.6076044921875,-0.004283298272639513,-0.005100468639284372,-0.0022295312955975533
1761476366075639800,8.617639892578126,-0.0009192074649035931,0.0009501702152192593,-0.00014613475650548935
1761476366085672700,8.627672607421875,0.0026832502335309982,0.006134279537945986,0.0005004806444048882
1761476366095705900,8.637705810546874,-0.0008197100833058357,0.008603309281170368,0.0012018242850899696
1761476366105738800,8.64773876953125,0.0015185456722974777,0.004772884771227837,0.004062059335410595
1761476366115772700,8.657772705078125,0.0003516804426908493,0.0031843611504882574,0.0007766969501972198
1761476366125805600,8.6678056640625,0.001235051080584526,0.0029409483540803194,-0.0023980578407645226
1761476366135838700,8.677838623046876,-0.002613960299640894,-0.0008973916992545128,-0.00019680149853229523
1761476366145871600,8.68787158203125,0.00046225637197494507,-0.0006513153202831745,-0.004302597139030695
1761476366155904800,8.69790478515625,0.0007532313466072083,0.004199382849037647,-0.0044830250553786755
1761476366165937700,8.707937744140626,-0.0007684989832341671,-0.0013551721349358559,0.002057698555290699
1761476366175971800,8.717971923828125,-0.0015974813140928745,-0.012028994970023632,0.0015094457194209099
1761476366186004700,8.728004638671875,-0.0034608952701091766,-0.020121809095144272,0.0002692118287086487
1761476366196038000,8.738037841796874,-0.0004796599969267845,-0.023316554725170135,0.00029006414115428925
1761476366206070800,8.74807080078125,0.0021384935826063156,-0.02702021598815918,-0.0050351922400295734
1761476366216103700,8.758103759765625,0.002854716032743454,-0.023431137204170227,-0.0010549044236540794
1761476366226136600,8.768136474609374,0.0007279161363840103,-0.014466138556599617,0.0024309074506163597
1761476366236169700,8.778169677734375,-0.0003086710348725319,-0.0048584481701254845,0.0033583445474505424
1761476366246203600,8.78820361328125,-0.0013853874988853931,0.006560653448104858,0.0033112065866589546
1761476366256236800,8.79823681640625,-0.003433752339333296,0.013175414875149727,0.0009814994409680367
1761476366266269700,8.808269775390626,-0.002035592682659626,0.01560368575155735,0.0009511401876807213
1761476366276302800,8.818302734375,-0.0023049768060445786,0.011859545484185219,0.0032709920778870583
1761476366286335700,8.828335693359374,0.0006420770660042763,0.005287928972393274,0.0035359766334295273
1761476366296368600,8.83836865234375,-0.0013631563633680344,0.004203221295028925,0.0014245975762605667
1761476366306402600,8.848402587890625,0.0006946679204702377,0.0006785276345908642,-0.003854585811495781
1761476366316435700,8.858435791015625,-0.002278303261846304,0.00043737422674894333,-0.002874741330742836
1761476366326468600,8.868468505859376,-0.0008492511697113514,-0.001980776432901621,-0.004065173678100109
1761476366336501500,8.87850146484375,0.0007678763940930367,-0.006538704037666321,-0.0012479322031140327
1761476366346534700,8.88853466796875,0.00014496315270662308,-0.0041469186544418335,-0.0006937282159924507
1761476366356567600,8.898567626953126,0.003672824241220951,-0.0010211728513240814,0.0024249954149127007
1761476366366600700,8.9086005859375,0.0009105941280722618,0.004148288629949093,0.0003969976678490639
1761476366376634600,8.918634521484375,0.002772985026240349,0.00782245397567749,0.0034980811178684235
1761476366386667800,8.928667724609374,0.00020649656653404236,0.010065102949738503,-0.00034778937697410583
1761476366396700700,8.93870068359375,0.0006580827757716179,0.008424991741776466,0.000911422073841095
1761476366406733800,8.94873388671875,-0.0014066663570702076,0.0031053274869918823,-0.00023240502923727036
1761476366416766700,8.9587666015625,-0.0001971544697880745,0.001383866649121046,0.0031243721023201942
1761476366426799900,8.9687998046875,-0.005369812250137329,-0.0038433861918747425,0.0013584308326244354
1761476366436832800,8.978832763671875,-0.0009342911653220654,0.0013704118318855762,-0.0016267159953713417
1761476366446866700,8.98886669921875,0.00011099968105554581,-0.00170553894713521,0.0017730752006173134
1761476366456899600,8.998899658203126,0.00020143669098615646,0.002652459777891636,-0.0015182485803961754
1761476366466932700,9.0089326171875,-0.0019048573449254036,-0.0018197866156697273,-0.0012013325467705727
1761476366476965600,9.018965576171874,-0.00041268859058618546,-0.0033801328390836716,0.00006286986172199249
1761476366486998800,9.028998779296876,-0.0022188439033925533,-0.011452440172433853,-0.0012300945818424225
1761476366497031700,9.03903173828125,0.0015793060883879662,-0.006799367256462574,-0.0009636646136641502
1761476366507064800,9.04906494140625,0.0015148576349020004,-0.002516738139092922,-0.0008880309760570526
1761476366517098800,9.0590986328125,0.0010726116597652435,0.006546399090439081,0.0005247583612799644
1761476366527132000,9.0691318359375,0.0002808542922139168,0.01332840509712696,0.0013982746750116348
1761476366537165000,9.0791650390625,0.00165508221834898,0.01479913480579853,0.0011210832744836807
1761476366547198000,9.089197998046876,-0.0008701267652213573,0.008814745582640171,-0.003739451989531517
1761476366557231000,9.099231201171875,0.0020373333245515823,0.002675493247807026,-0.00302739255130291
1761476366567264000,9.109263916015625,0.00211483146995306,-0.0051675159484148026,-0.002739771269261837
1761476366577297200,9.119297119140626,0.0035721948370337486,-0.009631041437387466,0.0002550957724452019
1761476366587331000,9.1293310546875,0.004104293882846832,-0.0068778651766479015,-0.0014764918014407158
1761476366597364200,9.1393642578125,0.005111322738230228,-0.0010310271754860878,-0.0020001381635665894
1761476366607397000,9.149397216796874,0.004161905497312546,0.0031916811130940914,0.002966657280921936
1761476366617430300,9.15943017578125,0.0004774918779730797,0.0020345402881503105,0.0005350168794393539
1761476366627463200,9.169463134765625,-0.000454082153737545,0.0063347467221319675,0.0018133344128727913
1761476366637496300,9.179496337890624,-0.0020050350576639175,0.0011349222622811794,0.0012617269530892372
1761476366647529200,9.189529296875,-0.003195734228938818,-0.0016057370230555534,-0.0024190284311771393
1761476366657563100,9.199563232421875,-0.00024060066789388657,-0.0003202296793460846,0.0011036749929189682
1761476366667596000,9.209595947265624,0.0008036242797970772,0.0014992421492934227,-0.001503293402493
1761476366677629200,9.219629150390626,0.00042350124567747116,0.005650311708450317,0.0007378831505775452
1761476366687662000,9.229662109375,0.00023867841809988022,0.005437524989247322,0.0024678725749254227
1761476366697695000,9.239695068359374,0.0022495705634355545,0.005926946643739939,-0.00019863341003656387
1761476366707728100,9.24972802734375,0.0010751169174909592,0.0006328485906124115,0.0012906063348054886
1761476366717761000,9.259760986328125,0.0026879003271460533,-0.0014045354910194874,-0.0008998913690447807
1761476366727795200,9.269795166015625,0.0022689849138259888,-0.001803743652999401,-0.001302827149629593
1761476366737828000,9.279828125,0.00019217003136873245,-0.006026248447597027,-0.0012337816879153252
1761476366747861200,9.289861328125,0.0022918060421943665,-0.0005835467018187046,-0.0027408646419644356
1761476366757894100,9.29989404296875,0.002763996832072735,-0.0001745554618537426,-0.0014121634885668755
1761476366767927300,9.30992724609375,0.0028582727536559105,0.0042787822894752026,0.0024345070123672485
1761476366777960000,9.3199599609375,0.003381253220140934,0.004448893945664167,0.0010005142539739609
1761476366787993000,9.3299931640625,0.0008744196966290474,0.004304550588130951,-0.0001936471089720726
1761476366798026000,9.34002587890625,0.0039760274812579155,0.0004995577037334442,-0.00018732808530330658
1761476366808060200,9.35006005859375,0.0030793407931923866,0.006675694137811661,0.0014449236914515495
1761476366818093000,9.360093017578125,0.0018942346796393394,0.009754042141139507,0.002343473955988884
1761476366828126200,9.370126220703124,0.0006904853507876396,0.009251769632101059,-0.0007607061415910721
1761476366838159000,9.3801591796875,-0.0013852277770638466,0.00450728228315711,-0.001811421476304531
1761476366848192300,9.390192138671875,-0.003993261139839888,-0.006705691106617451,-0.0009826449677348137
1761476366858225200,9.40022509765625,-0.00713731674477458,-0.017078837379813194,0.0022015757858753204
1761476366868258300,9.41025830078125,-0.004653652664273977,-0.02896132878959179,-0.002625669352710247
1761476366878292000,9.4202919921875,-0.0025957240723073483,-0.03259241208434105,-0.004717070143669844
1761476366888325000,9.4303251953125,-0.0032966681756079197,-0.021635105833411217,-0.0008674710988998413
1761476366898358000,9.44035791015625,-0.003695005550980568,-0.008966179564595222,-0.0015685902908444405
1761476366908391200,9.45039111328125,-0.00023715756833553314,0.0023581136483699083,0.003162781707942486
1761476366918424000,9.460424072265624,-0.000761052593588829,0.00870509073138237,0.0024002231657505035
1761476366928457000,9.47045703125,-0.0013709161430597305,0.011978382244706154,0.002178647555410862
1761476366938490000,9.480489990234375,-0.0010795490816235542,0.007329566869884729,0.001556316390633583
1761476366948523000,9.49052294921875,0.0022390158846974373,0.002973168157041073,-0.0016115140169858932
1761476366958557200,9.50055712890625,0.0013493653386831284,0.002861920278519392,0.0006409129127860069
1761476366968590000,9.510590087890625,0.0019256733357906342,0.007283832877874374,0.00249447301030159
1761476366978623200,9.520623291015625,0.0012672552838921547,0.008336574770510197,-0.0005621267482638359
1761476366988656000,9.53065625,0.0008038654923439026,0.0070960745215415955,-0.0017320532351732254
1761476366998689300,9.540689208984375,0.002072851173579693,0.002165109384804964,-0.0016106637194752693
1761476367008722200,9.55072216796875,0.002844635397195816,-0.004968167282640934,-0.0014604618772864342
1761476367018755000,9.560755126953126,0.003030586987733841,-0.009383698925375938,-0.0007267333567142487
1761476367028788000,9.5707880859375,0.005020767450332642,-0.011762168258428574,0.000008032657206058502
1761476367038822100,9.580822265625,0.006514073349535465,-0.00666873948648572,-0.0011782562360167503
1761476367048855000,9.59085498046875,0.006174254231154919,0.004787380341440439,-0.0016309935599565506
1761476367058888200,9.60088818359375,0.003292870707809925,0.01204957440495491,0.0013847574591636658
1761476367068921000,9.610921142578125,-0.0006017363630235195,0.016488265246152878,-0.002068563364446163
1761476367078954200,9.620954345703124,-0.0021263323724269867,0.014099856838583946,-0.000059108249843120575
1761476367088987100,9.630987060546875,-0.003819569945335388,0.006333812605589628,-0.0037481188774108887
1761476367099020000,9.64102001953125,-0.00248909555375576,-0.0036953799426555634,-0.004745654761791229
1761476367109054200,9.65105419921875,-0.005007114261388779,-0.009422507137060165,-0.0004459815099835396
1761476367119087000,9.661087158203125,-0.00037144776433706284,-0.012795867398381233,-0.004319743253290653
1761476367129120000,9.6711201171875,-0.004208796191960573,-0.005642617121338844,0.0013724975287914276
1761476367139153000,9.68115283203125,-0.00035660620778799057,-0.0027508214116096497,-0.0013690004125237465
1761476367149186000,9.69118603515625,0.0017550140619277954,0.0016324752941727638,0.0004099905490875244
1761476367159219000,9.701218994140625,-0.000018144026398658752,0.008108681999146938,0.0027013812214136124
1761476367169252000,9.711252197265624,-0.0017031258903443813,0.006861790083348751,0.001730126328766346
1761476367179285000,9.721284912109375,-0.0020693610422313213,0.00042985379695892334,-0.0032164650037884712
1761476367189318100,9.731318115234375,-0.00014096591621637344,-0.0041028461419045925,-0.0022558625787496567
1761476367199352000,9.74135205078125,0.0016015861183404922,-0.007629872299730778,-0.004073489923030138
1761476367209385200,9.75138525390625,0.0020252950489521027,-0.005814661271870136,-0.0007301578298211098
1761476367219418000,9.761418212890625,-0.0013326550833880901,0.0030034705996513367,0.00029112212359905243
1761476367229451300,9.771451171875,-0.00035847071558237076,0.0075454916805028915,-0.0011195540428161621
1761476367239484200,9.781484130859376,0.00033881794661283493,0.009557108394801617,-0.0022463006898760796
1761476367249517300,9.791517333984375,0.001263466663658619,0.004992983303964138,-0.0025767991319298744
1761476367259550200,9.80155029296875,0.0008845459669828415,-0.002575123682618141,-0.0020011933520436287
1761476367269583000,9.8115830078125,-0.0004891129210591316,-0.011998719535768032,-0.0025647180154919624
1761476367279617000,9.821616943359375,0.0011394564062356949,-0.01375500950962305,-0.0013779159635305405
1761476367289650200,9.831650146484375,0.0024081869050860405,-0.010638310573995113,-0.00035126693546772003
1761476367299683000,9.84168310546875,0.00028191879391670227,-0.001295409630984068,0.0019419807940721512
1761476367309716200,9.85171630859375,-0.0007702959701418877,0.0009549614042043686,-0.003608047030866146
1761476367319749000,9.8617490234375,-0.003095279447734356,0.003574986709281802,-0.0022307559847831726
1761476367329782000,9.871781982421876,-0.001672352198511362,0.003978455439209938,-0.001643262803554535
1761476367339815200,9.881815185546875,-0.00304954731836915,-0.0009142421185970306,-0.00015976186841726303
1761476367349848000,9.89184814453125,-0.002595212310552597,-0.002948896959424019,0.0004160134121775627
1761476367359882200,9.90188232421875,-0.00042161066085100174,-0.0031558838672935963,-0.0030337227508425713
1761476367369915100,9.9119150390625,0.0018743006512522697,-0.004601181950420141,-0.0009926753118634224
1761476367379948000,9.921947998046875,0.0007969792932271957,-0.0013075158931314945,-0.0016737915575504303
1761476367389981000,9.93198095703125,-0.00223210034891963,0.0015758886002004147,-0.00044021476060152054
1761476367400014000,9.94201416015625,-0.0004126802086830139,0.0006931074894964695,0.0032361792400479317
1761476367410047000,9.952046875,-0.00003957096487283707,-0.0011846874840557575,-0.0011993153020739555
1761476367420080000,9.962080078125,-0.001136354636400938,-0.0022574621252715588,-0.000055410899221897125
1761476367430113000,9.972113037109375,-0.0017877640202641487,-0.008671419695019722,-0.002767307683825493
1761476367440146200,9.982146240234375,0.00001863483339548111,-0.005600864067673683,-0.0024578971788287163
1761476367450180000,9.99218017578125,-0.0021342644467949867,-0.00428979005664587,-0.0007942207157611847
1761476367460213200,10.002213134765626,-0.000012331642210483551,0.0001447005197405815,0.0006109820678830147
1761476367470246100,10.01224609375,0.005944627337157726,0.002848341828212142,0.0010203095152974129
1761476367480279300,10.022279296875,0.004423307254910469,0.008849773555994034,0.0018509728834033012
1761476367490312200,10.032312255859376,0.0030006468296051025,0.01423708163201809,0.002866968512535095
1761476367500345300,10.042345458984375,0.0030120275914669037,0.01253313198685646,0.0002209758386015892
1761476367510378200,10.052378173828124,-0.0013369140215218067,0.006774046458303928,-0.0018397774547338486
1761476367520411100,10.0624111328125,-0.0006033340469002724,-0.004746715538203716,0.0007027685642242432
1761476367530445000,10.072445068359375,-0.0037061828188598156,-0.01446059625595808,-0.0028336429968476295
1761476367540478200,10.082478271484375,-0.003647957928478718,-0.025921784341335297,0.0034879716113209724
1761476367550511000,10.092510986328126,-0.00484984228387475,-0.028081875294446945,0.0016368087381124496
1761476367560544000,10.1025439453125,-0.005444792099297047,-0.02022387646138668,0.0011603720486164093
1761476367570577200,10.1125771484375,-0.0026199775747954845,-0.008387191221117973,0.004181995056569576
1761476367580610000,10.122610107421876,-0.0020839800126850605,-0.0013230908662080765,0.002154335379600525
1761476367590643200,10.132643310546875,-0.002492508850991726,-0.000372342299669981,-0.0006241407245397568
1761476367600676000,10.142676025390625,-0.004935716278851032,-0.0009559094905853271,0.0012024734169244766
1761476367610709200,10.152709228515626,-0.0018986472859978676,-0.003201753366738558,0.000004849396646022797
1761476367620743000,10.162742919921875,-0.00038306787610054016,0.0013234210200607777,-0.00449754111468792
1761476367630776000,10.172776123046875,0.0016899369657039642,-0.00011042505502700806,-0.001105738803744316
1761476367640809000,10.18280908203125,0.0013754433020949364,0.004636462777853012,0.001052803359925747
1761476367650842000,10.192842041015625,0.001150672324001789,0.013696802780032158,0.005943965166807175
1761476367660875000,10.202875,-0.0016824970953166485,0.018239231780171394,0.004785832017660141
1761476367670908200,10.212908203125,-0.000780218280851841,0.012060964480042458,-0.0014704670757055283
1761476367680941000,10.222941162109375,0.0010329121723771095,0.0012821480631828308,-0.002944696694612503
1761476367690974200,10.23297412109375,0.004096079617738724,-0.01102698128670454,-0.0013135112822055817
1761476367701007000,10.243007080078126,0.005414221435785294,-0.012658094987273216,0.00031770113855600357
1761476367711041300,10.253041259765626,0.002668236382305622,-0.009839138016104698,0.0031094932928681374
1761476367721074200,10.26307421875,0.0047419192269444466,0.0019225585274398327,0.00029082130640745163
1761476367731107300,10.273107421875,0.0008134907111525536,0.012530728243291378,0.0001874910667538643
1761476367741140200,10.28314013671875,-0.00019974913448095322,0.019263360649347305,0.002232203260064125
1761476367751173000,10.293173095703125,0.0010253041982650757,0.014439310878515244,0.0011626780033111572
1761476367761206300,10.303206298828124,-0.0009691566228866577,0.008712492883205414,0.004077449440956116
1761476367771239200,10.3132392578125,-0.0031119361519813538,0.00008731335401535034,0.0037679914385080338
1761476367781272000,10.32327197265625,-0.004063483327627182,-0.0034360489808022976,0.0005146730691194534
1761476367791305000,10.333304931640624,-0.00023678690195083618,-0.0007316088303923607,0.0008068224415183067
1761476367801339100,10.343339111328126,-0.002406324725598097,-0.001267742831259966,0.002310478128492832
1761476367811372000,10.3533720703125,-0.0046220747753977776,-0.005474472418427467,0.001136823557317257
1761476367821405200,10.3634052734375,-0.002613202203065157,-0.0059503186494112015,-0.0006284918636083603
1761476367831438000,10.37343798828125,-0.00249655544757843,-0.00699214730411768,-0.0008977372199296951
1761476367841471200,10.38347119140625,0.001089637167751789,-0.006025832146406174,-0.0007830094546079636
1761476367851504000,10.393504150390624,0.0015612831339240074,-0.000353299081325531,-0.00022587552666664124
1761476367861537300,10.403537353515626,0.002787402831017971,0.008157631382346153,0.0032460875809192657
1761476367871570200,10.413570068359375,0.004633505828678608,0.01240510679781437,0.0012346012517809868
1761476367881603300,10.423603271484374,0.001643984578549862,0.014656616374850273,0.0036360006779432297
1761476367891636200,10.43363623046875,0.0017782077193260193,0.012620097026228905,0.0008553937077522278
1761476367901670100,10.443670166015625,-0.000743708573281765,0.006809279788285494,-0.00020594801753759384
1761476367911703000,10.453703125,-0.0010742070153355598,-0.0018880716525018215,-0.0007276609539985657
1761476367921736200,10.463736083984376,0.0008945474401116371,-0.0073118689469993114,-0.0022230036556720734
1761476367931769000,10.47376904296875,0.0006346236914396286,-0.007630116771906614,-0.0010509463027119637
1761476367941802000,10.483802001953125,-0.0010183816775679588,-0.006032072938978672,-0.0004261145368218422
1761476367951835100,10.493835205078126,0.002240528352558613,-0.0017579654231667519,-0.002294055186212063
1761476367961868000,10.503867919921875,0.0023621423169970512,0.0020370264537632465,0.00237453356385231
1761476367971901200,10.513901123046875,0.0006028581410646439,-0.001594726461917162,0.0008741086348891258
1761476367981934000,10.52393408203125,-0.0005934210494160652,-0.0005878238007426262,-0.0007069474086165428
1761476367991967200,10.53396728515625,-0.0012560156174004078,0.0013557514175772667,0.0033194860443472862
1761476368002001200,10.544001220703125,-0.0009421384893357754,0.0019060643389821053,0.0008803056553006172
1761476368012034300,10.554034423828124,-0.001569579355418682,0.005533023737370968,0.0025959135964512825
1761476368022067000,10.56406689453125,-0.001770284492522478,0.007009148132055998,0.0025090230628848076
1761476368032100000,10.57410009765625,-0.001851511187851429,0.005916452966630459,0.00008634570986032486
1761476368042133000,10.584133056640624,-0.0038564391434192657,0.0043666367419064045,0.0005625961348414421
1761476368052166100,10.594166259765625,-0.0002209581434726715,0.0005559194833040237,0.0015008281916379929
1761476368062199000,10.604198974609375,-0.000860174186527729,-0.0026566325686872005,-0.0003453623503446579
1761476368072232000,10.61423193359375,-0.00036961957812309265,-0.0034851417876780033,0.002452022396028042
1761476368082265000,10.62426513671875,-0.0006020767614245415,-0.0011846031993627548,-0.000983957201242447
1761476368092299300,10.63429931640625,0.0013763858005404472,-0.0024376208893954754,0.0008677393198013306
1761476368102332200,10.644332275390624,0.002716168761253357,-0.000940907746553421,0.001098012551665306
1761476368112365000,10.654364990234376,0.0031534601002931595,0.0066467043943703175,0.0037292158231139183
1761476368122398200,10.664398193359375,0.001954454928636551,0.004405859392136335,0.0007314691320061684
1761476368132431000,10.67443115234375,0.0027289018034934998,0.0073595717549324036,0.0011964570730924606
1761476368142464300,10.68446435546875,0.002972070127725601,0.0031558419577777386,0.0016654888167977333
1761476368152497200,10.6944970703125,0.0025962982326745987,0.00644457945600152,-0.0005449345335364342
1761476368162530300,10.7045302734375,0.0015013087540864944,0.007988535799086094,0.001349027268588543
1761476368172563200,10.714563232421876,-0.0019706548191607,0.009786169975996017,0.0021040337160229683
1761476368182596000,10.72459619140625,-0.0024075889959931374,0.00034873979166150093,-0.0014524171128869057
1761476368192629000,10.73462890625,-0.0029822993092238903,-0.008502542041242123,0.005688316188752651
1761476368202663200,10.7446630859375,-0.0034228158183395863,-0.01865796372294426,0.004348703660070896
1761476368212696000,10.754696044921875,-0.004298462998121977,-0.021103544160723686,0.004632596857845783
1761476368222729200,10.764729248046875,-0.0018372759222984314,-0.020530330017209053,0.0010826122015714645
1761476368232762000,10.77476220703125,0.0011694328859448433,-0.014865519478917122,0.0006612995639443398
1761476368242795300,10.784795166015625,-0.0034328834153711796,-0.002635794226080179,0.0015908284112811089
1761476368252828200,10.794828125,-0.005531720817089081,0.014740265905857086,0.00776270404458046
1761476368262861000,10.804861083984376,-0.006223632488399744,0.02127612568438053,0.003921308554708958
1761476368272894200,10.814894287109375,-0.0031652580946683884,0.01765262894332409,-0.003767237067222595
1761476368282927000,10.824927001953125,-0.00478775892406702,0.010188733227550983,-0.00037002842873334885
1761476368292960300,10.834960205078126,-0.001507011242210865,0.010703522711992264,-0.0015442157164216042
1761476368302994000,10.844993896484375,-0.0020803799852728844,0.012007294222712517,0.003489219583570957
1761476368313027000,10.855027099609375,-0.0002704961225390434,0.016527477651834488,0.006350252777338028
1761476368323060000,10.86506005859375,0.006390400230884552,0.025523612275719643,0.005159636028110981
1761476368333093000,10.875093017578125,0.006066559813916683,0.039136093109846115,0.0074440957978367805
1761476368343126000,10.8851259765625,0.0032635824754834175,0.049901388585567474,0.011304880492389202
1761476368353159200,10.8951591796875,0.0013330569490790367,0.055140893906354904,0.017082609236240387
1761476368363192000,10.905192138671875,0.0009377552196383476,0.04881960153579712,0.012888726778328419
1761476368373225200,10.91522509765625,0.0026184767484664917,0.041549697518348694,0.008558959700167179
1761476368383258000,10.925258056640626,0.00395099725574255,0.022233838215470314,0.0028811991214752197
1761476368393291300,10.935291259765625,0.0036543207243084908,-0.008251098915934563,-0.008558142930269241
1761476368403324200,10.94532421875,0.0035060569643974304,-0.045294176787137985,-0.011367437429726124
1761476368413358300,10.9553583984375,0.004742296412587166,-0.0786752998828888,-0.016498815268278122
1761476368423391000,10.965390869140625,0.0010605547577142715,-0.09340333193540573,-0.014415021985769272
1761476368433424100,10.975424072265625,-0.0018396270461380482,-0.07612553983926773,-0.012595283798873425
1761476368443457000,10.98545703125,-0.0033712112344801426,-0.03748307377099991,-0.006291581317782402
1761476368453490000,10.995489990234375,-0.003786398097872734,0.0007218345999717712,-0.0008211825042963028
1761476368463523000,11.005523193359375,-0.0026103490963578224,0.0161820650100708,-0.002552160993218422
