time,seconds_elapsed,z,y,x
1761470271520136000,0.041135986328125,-0.0031231993343681097,-0.0015789979370310903,-0.00022328185150399804
1761470271530113000,0.051113037109375,0.00018710963195189834,-0.0004271807847544551,0.003490762785077095
1761470271540088800,0.0610888671875,0.003255286021158099,-0.0005935691297054291,-0.00008104172593448311
1761470271550066000,0.07106591796875,0.002659803256392479,0.000004843110218644142,-0.0009194048470817506
1761470271560042000,0.0810419921875,0.0020268417429178953,-0.00032167171593755484,0.00004173168781562708
1761470271570019000,0.09101904296875,-0.00046108319656923413,-0.0005437793442979455,0.00040312265628017485
1761470271579995000,0.100994873046875,-0.00016117427730932832,-0.0011089202016592026,-0.0019119635690003633
1761470271589972000,0.110971923828125,-0.0012456134427338839,-0.0008247609948739409,0.005144880618900061
1761470271599948000,0.120947998046875,-0.000318557838909328,-0.003011486493051052,0.0015029060887172818
1761470271609925000,0.130925048828125,0.0014945222064852715,-0.001702010165899992,-0.0012422803556546569
1761470271619901000,0.14090087890625,0.0005046842852607369,-0.0005632997490465641,-0.000029170161724323407
1761470271629878000,0.1508779296875,-0.0016543404199182987,-0.0007720915600657463,-0.0006116034346632659
1761470271639854000,0.16085400390625,0.0024915551766753197,0.0015871536452323198,-0.0020073086488991976
1761470271649831200,0.1708310546875,-0.002387356013059616,-0.0006203405791893601,0.00040418378193862736
1761470271659807000,0.180806884765625,0.0023341404739767313,0.0004340724553912878,0.0008327422547154129
1761470271669784000,0.1907841796875,-0.0016851022373884916,0.0008162360172718763,0.0016074557788670063
1761470271679760000,0.200759765625,-0.0012355033541098237,-0.0009040598524734378,-0.00042344594839960337
1761470271689737000,0.210737060546875,0.0021267374977469444,0.00036600162275135517,0.0016586133278906345
1761470271699713000,0.220713134765625,0.0016702928114682436,-0.0009419015841558576,0.0007132565951906145
1761470271709690000,0.230690185546875,0.003912674263119698,0.0019598789513111115,-0.0005336354370228946
1761470271719666000,0.240666015625,-0.0011104006553068757,-0.0004235878586769104,0.0019258891697973013
1761470271729642800,0.250642822265625,-0.002185518853366375,0.00006776535883545876,0.00188008276745677
1761470271739619000,0.260619140625,-0.004375697113573551,0.0012871541548520327,0.0027036801911890507
1761470271749596000,0.270595947265625,-0.0016632674960419536,0.0014389543794095516,0.001523899962194264
1761470271759572000,0.280572021484375,0.00039986136835068464,0.00014329515397548676,-0.00012753409100696445
1761470271769548800,0.290548828125,-0.0013921796344220638,-0.0026237291749566793,0.00021681262296624482
1761470271779525000,0.300525146484375,0.0017507916782051325,0.0011482874397188425,-0.0042329272255301476
1761470271789502000,0.310501953125,-0.0016346187330782413,-0.00024241511709988117,-0.0022834932897239923
1761470271799478000,0.32047802734375,-0.0005391055019572377,-0.0025668793823570013,0.001393736805766821
1761470271809454800,0.330454833984375,-0.001613690983504057,0.002218022011220455,0.0002451155160088092
1761470271819431200,0.34043115234375,-0.0004912365693598986,-0.0002776732435449958,-0.0018702760571613908
1761470271829408300,0.350408203125,0.0014725783839821815,-0.0009621055796742439,0.0015790502075105906
1761470271839384000,0.360384033203125,0.0007040082709863782,0.0002835993655025959,0.00038369596586562693
1761470271849361200,0.370361083984375,0.001688312622718513,-0.001046116929501295,-0.0012546806829050183
1761470271859337200,0.380337158203125,0.0007510916911996901,-0.0011004096595570445,-0.001396031235344708
1761470271869314000,0.39031396484375,-0.002563478657975793,0.002227742923423648,-0.00033556052949279547
1761470271879290000,0.4002900390625,0.0008438274962827563,-0.0007628635503351688,0.000605005887337029
1761470271889267000,0.410266845703125,-0.00003927672514691949,-0.000570050673559308,-0.001476787030696869
1761470271899243000,0.420242919921875,0.0002712233690544963,-0.00026562134735286236,-0.0024217613972723484
1761470271909220000,0.43022021484375,0.0010374147677794099,0.001000179210677743,-0.0012076263083145022
1761470271919196200,0.440196044921875,0.00122476601973176,-0.0001702294684946537,0.0014831750886514783
1761470271929173000,0.450173095703125,-0.00032386212842538953,-0.002155083464458585,0.000051726008678087965
1761470271939149000,0.460149169921875,0.0012285627890378237,0.0014586176257580519,0.0013860954204574227
1761470271949126000,0.4701259765625,0.001381428213790059,2.705492079257965e-7,0.002626862144097686
1761470271959102200,0.480102294921875,0.003046729601919651,-0.00012288964353501797,0.0005097431712783873
1761470271969079000,0.4900791015625,0.0003603990189731121,-0.0027580875903367996,0.0012469061184674501
1761470271979055000,0.50005517578125,0.0023509180173277855,0.0011533703655004501,-0.00028023129561915994
1761470271989032000,0.510031982421875,0.003140545217320323,-0.0006690308218821883,0.0007807721267454326
1761470271999008300,0.52000830078125,0.0016627232544124126,-0.000561684719286859,-0.00039199329330585897
1761470272008985000,0.529985107421875,0.0006938652950339019,-0.00011081155389547348,-0.0024189252872020006
1761470272018961000,0.5399609375,0.0007293688249774277,0.00035315961576998234,-0.0025502287317067385
1761470272028938000,0.54993798828125,0.0013123347889631987,0.001664233859628439,0.00310366228222847
1761470272038914000,0.5599140625,0.0012680203653872013,0.0037855198606848717,-0.0022891603875905275
1761470272048891100,0.56989111328125,-0.0005530492635443807,-0.0035805176012218,-0.00408706022426486
1761470272058867000,0.579866943359375,0.0013262853026390076,-0.002273524645715952,0.0037135612219572067
1761470272068844000,0.589843994140625,0.003496495308354497,-0.0009310252498835325,0.0012786329025402665
1761470272078820000,0.599820068359375,0.001724525704048574,0.0006700388621538877,-0.005171825177967548
1761470272088797200,0.609797119140625,-0.0006171918357722461,-0.001507095294073224,0.0008439892553724349
1761470272098773000,0.61977294921875,-0.0034663784317672253,-0.0003681022208184004,0.0029694465920329094
1761470272108750000,0.62975,-0.0029947329312562943,0.0024953284300863743,-0.0025909673422574997
1761470272118726000,0.639725830078125,-0.0025421364698559046,0.0011086433660238981,-0.0068404776975512505
1761470272128703200,0.649703125,0.001680571585893631,0.0009224885143339634,0.001876048743724823
1761470272138679000,0.659678955078125,0.0010326770134270191,-0.001141418470069766,0.0043966746889054775
1761470272148656000,0.66965625,0.002894492819905281,0.0024463923182338476,-0.0041603283025324345
1761470272158632000,0.6796318359375,0.001558882649987936,-0.00010316167026758194,-0.0007185772992670536
1761470272168609000,0.689609130859375,0.000829709111712873,-0.0012760177487507463,0.0004380335449241102
1761470272178585000,0.699585205078125,-0.0007792823016643524,-0.0005167153431102633,0.005217540077865124
1761470272188562200,0.709562255859375,-0.00032201758585870266,0.003734222147613764,0.001188443275168538
1761470272198538000,0.7195380859375,-0.0010372831020504236,0.00043771439231932163,-0.003608901286497712
1761470272208515000,0.72951513671875,-0.0009869495406746864,-0.003559157717972994,0.0012151488335803151
1761470272218491100,0.7394912109375,0.0017923658015206456,-0.0005027372390031815,0.0011573544470593333
1761470272228468200,0.74946826171875,0.0011039386736229062,0.0031599083449691534,-0.0038464588578790426
1761470272238444000,0.759444091796875,0.0021267570555210114,-0.00032810051925480366,-0.0024175827857106924
1761470272248420900,0.7694208984375,0.0025501996278762817,0.000706803984940052,-0.002503602998331189
1761470272258397200,0.779397216796875,0.0006362336571328342,0.00012153596617281437,0.0021874920930713415
1761470272268374000,0.7893740234375,0.0011132057989016175,0.003221189370378852,-0.0008703495259396732
1761470272278350000,0.79935009765625,0.0011552071664482355,0.00004253070801496506,0.0020185543689876795
1761470272288327000,0.809326904296875,0.00042869680328294635,-0.0005185973132029176,-0.0009498049621470273
1761470272298303200,0.81930322265625,0.0011485785944387317,-0.00006497977301478386,-0.002353187184780836
1761470272308280000,0.829280029296875,-0.00036223267670720816,0.003553723217919469,-0.0016852662665769458
1761470272318256000,0.839256103515625,-0.0004692760994657874,0.001072207698598504,0.0010472735157236457
1761470272328233000,0.84923291015625,0.0026783139910548925,-0.0036490443162620068,0.0014832329470664263
1761470272338209300,0.859209228515625,0.00029416754841804504,0.00013264012522995472,-0.0006109030800871551
1761470272348186000,0.86918603515625,0.0013298708945512772,-0.001175238168798387,-0.0010495258029550314
1761470272358162200,0.879162109375,0.0009594189468771219,0.00004471396096050739,-0.0010141927050426602
1761470272368139000,0.889138916015625,0.0017639598809182644,-0.0001640778500586748,-0.0005587920895777643
1761470272378115000,0.899114990234375,0.0035706162452697754,0.002516051521524787,0.00016944447997957468
1761470272388092200,0.909092041015625,0.0009918774012476206,0.0003098889719694853,0.002771086525171995
1761470272398068000,0.91906787109375,0.00046572036808356643,-0.0015223613008856773,0.003677808213979006
1761470272408045000,0.929045166015625,0.0009669272694736719,0.001188470283523202,-0.0018458542181178927
1761470272418020900,0.939020751953125,-0.001367506687529385,0.001107936492189765,0.003807918168604374
1761470272427998000,0.948998046875,-0.0008260861504822969,-0.0010747903725132346,-0.0024262755177915096
1761470272437974000,0.95897412109375,0.001389642944559455,0.00003575533628463745,-0.0008910186588764191
1761470272447951000,0.968951171875,0.0014543577563017607,-0.00039700837805867195,0.0008922340348362923
1761470272457927000,0.978927001953125,0.0014265875797718763,-0.001626665354706347,-0.0014435048215091228
1761470272467904000,0.988904052734375,0.004631701856851578,0.0021763285622000694,-0.001113805454224348
1761470272477880000,0.998880126953125,0.0025371001102030277,-0.00044462503865361214,-0.0011177477426826954
1761470272487857200,1.008857177734375,0.0013029912952333689,-0.0005285146180540323,-0.00019203301053494215
1761470272497833000,1.0188330078125,-0.0016558035276830196,0.0016555804759263992,-0.0002822614333126694
1761470272507810000,1.02881005859375,-0.0008467353181913495,-0.001296533620916307,-0.0014204964973032475
1761470272517786000,1.0387861328125,0.0024568671360611916,-0.00030194339342415333,0.0036009903997182846
1761470272527763200,1.04876318359375,0.00040303729474544525,0.004402264021337032,-0.0010326437186449766
1761470272537739000,1.058739013671875,-0.00035391480196267366,-0.00042022496927529573,-0.0015356378862634301
1761470272547716000,1.068716064453125,0.0009105540812015533,-0.0016668506432324648,0.0005408287979662418
1761470272557692200,1.078692138671875,0.0022890453692525625,0.0007836667355149984,0.002914200071245432
1761470272567669200,1.088669189453125,0.0023215359542518854,-0.0019356871489435434,0.0016731671057641506
1761470272577645000,1.09864501953125,-0.0002952237846329808,-0.0012456414988264441,-0.00001562684337841347
1761470272587622100,1.1086220703125,-0.0013972398592159152,0.0006209681741893291,0.0033274393063038588
1761470272597598000,1.118597900390625,0.0001607575686648488,0.0006000844296067953,-0.003719278611242771
1761470272607575300,1.1285751953125,-0.000034185824915766716,-0.0018068804638460279,0.002674172166734934
1761470272617551000,1.138551025390625,0.0012152157723903656,-0.0013724989257752895,-0.00012104074994567782
1761470272627528000,1.14852783203125,0.0010301261208951473,0.0001292575616389513,-0.0002978746488224715
1761470272637504000,1.15850390625,-0.0010110733564943075,0.0007703346200287342,0.0020085813011974096
1761470272647481000,1.168481201171875,0.00333680328913033,-0.0001665656454861164,0.002278625965118408
1761470272657457200,1.17845703125,-0.0005816963384859264,0.0029189875349402428,-0.0013179760426282883
1761470272667434000,1.18843408203125,0.0017323242500424385,-0.00009491201490163803,0.00017552473582327366
1761470272677410000,1.19841015625,-0.00042179267620667815,-0.00009662448428571224,-0.0036000688560307026
1761470272687387000,1.208386962890625,-0.0009027595515362918,0.00290369288995862,0.00029160850681364536
1761470272697363200,1.21836328125,-0.001025530742481351,-0.0015726314159110188,0.0017438736977055669
1761470272707340000,1.228340087890625,0.0024339156225323677,0.00045909429900348186,-0.0009041073499247432
1761470272717316000,1.238316162109375,0.0010047940304502845,0.00026314565911889076,0.0019468400860205293
1761470272727292200,1.248292236328125,0.0005307513638399541,0.0006040302105247974,-0.0025179493241012096
1761470272737269200,1.258269287109375,0.0009349661995656788,0.0009706125129014254,-0.0006304456619545817
1761470272747245000,1.2682451171875,0.0004500045906752348,0.00039856554940342903,0.002629529917612672
1761470272757222100,1.27822216796875,0.00011153309606015682,-0.0005027455044910312,0.0005244412459433079
1761470272767198200,1.2881982421875,-0.001690628007054329,0.0018331129103899002,0.0017574847443029284
1761470272777175000,1.298175048828125,0.001943411072716117,-0.0006823333678767085,-0.0013837114674970508
1761470272787151000,1.308151123046875,-0.001581548829562962,0.0001946454867720604,0.002921821316704154
1761470272797128000,1.3181279296875,-0.0009469643700867891,-0.00046632997691631317,0.00045537055120803416
1761470272807104000,1.32810400390625,0.0002743612858466804,-0.00008097058162093163,-0.0022967399563640356
1761470272817081000,1.3380810546875,-0.001225045882165432,-0.0006060203304514289,0.002564704045653343
1761470272827057000,1.348056884765625,-0.0006071924581192434,0.00048427795991301537,-0.002052418189123273
1761470272837034000,1.358033935546875,0.00125512492377311,-0.00002967938780784607,0.0017851643497124314
1761470272847009800,1.368009765625,0.0010002603521570563,0.00071360869333148,-0.0012404529843479395
1761470272856987000,1.37798681640625,0.0005095028318464756,-0.0013509478885680437,0.0035934115294367075
1761470272866963000,1.387962890625,0.00023439829237759113,-0.00044201104901731014,0.0003920255112461746
1761470272876940000,1.39793994140625,0.0013564289547502995,-0.0005841893143951893,-0.0014237555442377925
1761470272886915800,1.407915771484375,0.0010805254569277167,-0.0007375874556601048,0.000014884150004945695
1761470272896893000,1.417892822265625,0.0016869258834049106,0.0009940136224031448,-0.002021142980083823
1761470272906869000,1.427868896484375,-0.0003200322389602661,0.0011314325965940952,-0.002232331782579422
1761470272916846000,1.43784619140625,0.0018123919144272804,-0.00010240590199828148,0.00020279137243051082
1761470272926822000,1.44782177734375,0.00019292370416224003,-0.0019533028826117516,-0.0003013450186699629
1761470272936799000,1.457799072265625,0.001459132181480527,-0.0005623946199193597,0.0014269594103097916
1761470272946775000,1.467775146484375,0.001420782646164298,-0.001803960301913321,0.0009582430357113481
1761470272956752000,1.477751953125,0.000496608845423907,0.0015830027405172586,-0.0009649117710068822
1761470272966728000,1.48772802734375,0.0018782567931339145,-0.0003778827376663685,-0.0008229652885347605
1761470272976704800,1.497704833984375,-0.0007900363998487592,-0.0005201747408136725,-0.00023908133152872324
1761470272986681000,1.50768115234375,-0.0002456862712278962,-0.0015862381551414728,0.0008432272588834167
1761470272996658000,1.517657958984375,-0.0005763455992564559,0.0015195873565971851,-0.001142636756412685
1761470273006634000,1.527634033203125,-0.001713249017484486,-0.000158203998580575,-0.0029437325429171324
1761470273016610800,1.53761083984375,0.0001667860196903348,0.0008592535741627216,-0.0004594021593220532
1761470273026587100,1.547587158203125,0.0008767847320996225,-0.0002153320237994194,-0.0035401468630880117
1761470273036564000,1.55756396484375,0.000007046794053167105,-0.0006314496276900172,-0.0023583518341183662
1761470273046540000,1.5675400390625,0.0010757732670754194,0.001469518058001995,0.0007727266638539732
1761470273056516900,1.577516845703125,-0.0005912184715270996,-0.0001537785865366459,0.0015125629724934697
1761470273066493000,1.587492919921875,-0.0005043994169682264,-0.0001692250370979309,0.0010182802798226476
1761470273076470000,1.597469970703125,-0.0005306227831169963,0.0031180037185549736,-0.0013384848134592175
1761470273086446000,1.607446044921875,0.00015807064482942224,-0.0016309451311826706,-0.0006838798290118575
1761470273096423000,1.6174228515625,-0.0017246206989511847,-0.002406798303127289,-0.000017507140000816435
1761470273106398700,1.627398681640625,-0.0007328595966100693,-0.0009290102170780301,0.003741011954843998
1761470273116375800,1.637375732421875,-0.0034635206684470177,0.0035357284359633923,-0.00257325591519475
1761470273126352000,1.647351806640625,-0.003685894887894392,0.0023769866675138474,-0.0035130854230374098
1761470273136329000,1.657328857421875,0.000014902383554726839,-0.0005228582303971052,-0.0017536666709929705
1761470273146304800,1.6673046875,-0.0011734000872820616,0.0009650497231632471,-0.001970181707292795
1761470273156281900,1.67728173828125,0.0006656521582044661,0.0009505897760391235,-0.00021479988936334848
1761470273166258000,1.6872578125,0.0010004114592447877,0.00045710615813732147,-0.002334675984457135
1761470273176235000,1.697235107421875,0.0007659869734197855,0.0013739422429352999,0.0006258335779421031
1761470273186210800,1.7072109375,-0.0010010204277932644,0.0011331925634294748,-0.0026328102685511112
1761470273196188000,1.71718798828125,-0.0015899918507784605,0.0025236441288143396,0.0003475250268820673
1761470273206164000,1.7271640625,-0.0016011770348995924,-0.00023778737522661686,0.002451155800372362
1761470273216141000,1.73714111328125,-0.0007351053645834327,0.0016252892091870308,-0.001065079472027719
1761470273226116900,1.747116943359375,0.0034990543499588966,0.00021594436839222908,0.0000015165387594606727
1761470273236094000,1.757093994140625,0.0009449688368476927,-0.0024752558674663305,0.0012612269492819905
1761470273246070000,1.767070068359375,0.0034906845539808273,-0.0006504579214379191,-0.000810712284874171
1761470273256047000,1.777047119140625,0.001178569975309074,0.0004834127612411976,-0.0001803166524041444
1761470273266023000,1.78702294921875,-0.000389232998713851,0.0012895516119897366,-0.003064520191401243
1761470273276000000,1.797,-0.001800926635041833,0.0014122140128165483,-0.003463153960183263
1761470273285975800,1.806975830078125,0.0015639773337170482,0.0006209886632859707,0.0003686020791064948
1761470273295953200,1.816953125,-0.00040187122067436576,-0.0002880990505218506,-0.0010487143881618977
1761470273305929000,1.826928955078125,-0.0018833877984434366,0.0012112606782466173,-0.0005238052690401673
1761470273315906000,1.836906005859375,0.0007077101618051529,0.0009587043896317482,-0.0015323430998250842
1761470273325881900,1.8468818359375,-0.0016364043112844229,-0.0006463829195126891,-0.0006018346175551414
1761470273335859000,1.85685888671875,-0.0012577720917761326,0.0006504703778773546,0.002741242991760373
1761470273345835000,1.8668349609375,-0.0013147636782377958,-0.0008004197152331471,-0.001810631831176579
1761470273355811800,1.876811767578125,-0.000605387263931334,0.00019335118122398853,0.0005548007902689278
1761470273365788000,1.886787841796875,-0.0011931469198316336,0.0011363765224814415,-0.001122458023019135
1761470273375764700,1.8967646484375,-0.001247338019311428,0.002175613772124052,-0.0004180219257250428
1761470273385741000,1.906740966796875,0.0013870609691366553,-0.0008153822273015976,0.0024611216504126787
1761470273395718000,1.9167177734375,-0.0008826957200653851,-0.000272074481472373,-0.000844631576910615
1761470273405694000,1.92669384765625,0.0005660638562403619,0.00006614695303142071,-0.0008978947880677879
1761470273415670800,1.9366708984375,0.0007391118560917675,0.001471668016165495,0.0014074378414079547
1761470273425647000,1.946647216796875,-0.0005700981710106134,0.0007361029274761677,-0.0012895454419776797
1761470273435624000,1.9566240234375,0.0008050724864006042,-0.00010216981172561646,0.002972101792693138
1761470273445600000,1.96660009765625,-0.0013960301876068115,0.001514901639893651,0.0006479612202383578
1761470273455576800,1.976576904296875,0.0006051193922758102,-0.00018980284221470356,0.003985906485468149
1761470273465553200,1.98655322265625,-0.0005706662777811289,0.001401169691234827,-0.0019412250258028507
1761470273475530000,1.996530029296875,-0.0006389835034497082,-0.0025054251309484243,0.002279162174090743
1761470273485506000,2.006506103515625,-0.0010397892910987139,0.00019821594469249249,0.00023678394791204482
1761470273495483000,2.01648291015625,0.0018670179415494204,-0.0006211698055267334,-0.002465652534738183
1761470273505459000,2.026458984375,0.002083532977849245,0.0005586105398833752,0.0017895461060106754
1761470273515436000,2.03643603515625,-0.002190606901422143,-0.0015885948669165373,-0.0016223072307184339
1761470273525411800,2.046411865234375,-0.0020957982633262873,0.0011816252954304218,0.0005068900645710528
1761470273535389000,2.056388916015625,0.0009964341297745705,0.0013011223636567593,-0.0005271590780466795
1761470273545364700,2.06636474609375,-0.0007559257792308927,0.002334961434826255,0.0007881760830059648
1761470273555342000,2.076342041015625,0.00035983510315418243,0.00041528278961777687,0.0019564724061638117
1761470273565318000,2.08631787109375,-0.0016306116012856364,0.0011436573695391417,0.0010568565921857953
1761470273575294000,2.0962939453125,-0.0005338788614608347,0.0007509822025895119,-0.0006713634938932955
1761470273585270800,2.106270751953125,-0.0006697001517750323,0.0010580446105450392,-0.0044991252943873405
1761470273595247000,2.1162470703125,0.0008358894265256822,0.0011317599564790726,0.0007796386489644647
1761470273605224000,2.126223876953125,-0.00009914638940244913,0.0011376189067959785,-0.002571683144196868
1761470273615200000,2.136199951171875,0.0009964610217139125,0.00015430105850100517,-0.0004149729502387345
1761470273625176800,2.1461767578125,-0.0010416561271995306,0.0009604399092495441,0.001696381252259016
1761470273635153200,2.156153076171875,-4.204339347779751e-7,-0.0014275412540882826,0.00033461852581240237
1761470273645130000,2.1661298828125,-0.00035062612732872367,0.0008742290083318949,-0.0024414604995399714
1761470273655105800,2.176105712890625,0.0006427367916330695,0.0008846491109579802,0.0012919551227241755
1761470273665083000,2.186082763671875,0.00047256078687496483,0.0022657644003629684,-0.00029768579406663775
1761470273675059000,2.196058837890625,0.00022200343664735556,-0.000004431232810020447,-0.0019039250910282135
1761470273685036000,2.2060361328125,0.0002893814234994352,0.0015820139087736607,0.0004367270739749074
1761470273695011800,2.21601171875,-0.0008285585790872574,-0.0006722104735672474,0.0016823624027892947
1761470273704989000,2.225989013671875,-0.0005965973250567913,0.0027150639798492193,-0.0007421794580295682
1761470273714965000,2.235965087890625,-0.0014313841238617897,-0.00038262130692601204,-0.0024122477043420076
1761470273724942000,2.245942138671875,0.0004059307393617928,0.000819263281300664,-0.002068433677777648
1761470273734918000,2.25591796875,0.0034834295511245728,-0.0017487996956333518,0.0019680014811456203
1761470273744895000,2.26589501953125,0.0027095149271190166,-0.00008991663344204426,-0.001760956714861095
1761470273754870800,2.275870849609375,-0.0010491932043805718,-0.0014137271791696548,0.0030609683599323034
1761470273764847900,2.285847900390625,0.00028025679057464004,0.00008563254959881306,0.0007858299068175256
1761470273774824000,2.295823974609375,-0.00003278988879173994,-0.0010021575726568699,0.001399046159349382
1761470273784801000,2.305801025390625,-0.0026458834763616323,-0.0005976234097033739,-0.0007969964062795043
1761470273794776800,2.31577685546875,0.0003259933437220752,0.0002987950574606657,0.003353728214278817
1761470273804754000,2.32575390625,-0.0006814805092290044,0.0010953464079648256,0.0014620847068727016
1761470273814730000,2.33572998046875,-0.0011595854302868247,-0.00003707851283252239,-0.004802942741662264
1761470273824707600,2.34570751953125,-0.0007939334027469158,-0.0002783609088510275,-0.000006056980055291206
1761470273834683400,2.355683349609375,-0.0010362300090491772,0.0024728854186832905,0.0005442748661153018
1761470273844660500,2.365660400390625,-0.0010135930497199297,0.00007151276804506779,-0.0019535040482878685
1761470273854636500,2.375636474609375,-0.0021360251121222973,-0.00018786289729177952,-0.0012898985296487808
1761470273864613600,2.385613525390625,0.0009034405811689794,0.0010204133577644825,0.002243317198008299
1761470273874589400,2.39558935546875,0.00231215450912714,-0.0003517400473356247,0.002521378919482231
1761470273884566500,2.40556640625,0.0005470114992931485,-0.0003924863412976265,-0.0012632390717044473
1761470273894542300,2.415542236328125,0.001307241851463914,-0.0022530050482600927,0.002560141496360302
1761470273904519700,2.425519775390625,-0.0027556768618524075,0.001702854409813881,0.0021417587995529175
1761470273914495500,2.43549560546875,-0.0007456636521965265,0.0003315855283290148,0.0003350148908793926
1761470273924472300,2.445472412109375,0.0014711515977978706,0.0013838005252182484,-0.0009180024499073625
1761470273934448400,2.455448486328125,-0.00005858915392309427,-0.00002317759208381176,0.0019983435049653053
1761470273944425500,2.465425537109375,0.000185888959094882,-0.0015750015154480934,-0.00008771057764533907
1761470273954401500,2.475401611328125,0.000653906783554703,-0.00015320582315325737,0.00005711882113246247
1761470273964378400,2.48537841796875,0.00011275243014097214,0.00080872792750597,0.0009476798586547375
1761470273974354400,2.4953544921875,-0.00019422126933932304,0.00014268606901168823,0.0027883436996489763
1761470273984331300,2.505331298828125,-0.0026746895164251328,-5.9371814131736755e-8,0.0003544808132573962
1761470273994307600,2.5153076171875,-0.0014254762791097164,0.002221641829237342,0.0002774164895527065
1761470274004284400,2.525284423828125,0.0013990722363814712,0.0006852643564343452,0.0015687833074480295
1761470274014260500,2.535260498046875,0.0002745792153291404,-0.0008809115970507264,-0.0037541952915489674
1761470274024237300,2.5452373046875,0.000898025231435895,0.0004591911565512419,0.00238971714861691
1761470274034213600,2.555213623046875,0.0024598133750259876,-0.0027219681069254875,0.0004468407132662833
1761470274044190500,2.5651904296875,0.0003149034455418587,0.0014589284546673298,-0.0007744849426671863
1761470274054166500,2.57516650390625,-0.002243613125756383,-0.0013109402498230338,-0.0008803691016510129
1761470274064142600,2.585142578125,0.0009780129184946418,-0.0005780382780358195,-0.000024961816961877048
1761470274074119400,2.595119384765625,0.0003968183300457895,0.00009161699563264847,-0.0012713103787973523
1761470274084095500,2.605095458984375,-0.002215742599219084,0.001384315313771367,-0.0026761277113109827
1761470274094072300,2.615072265625,0.0011805891990661621,-0.0015784681309014559,-0.0036926090251654387
1761470274104048400,2.62504833984375,0.002489532809704542,-0.0013513005105778575,-0.00013222891720943153
1761470274114025500,2.635025390625,0.0023970510810613632,0.0009810090996325016,-0.0031786980107426643
1761470274124001500,2.64500146484375,0.0014367152471095324,-0.0001202079001814127,-0.0012508358340710402
1761470274133978400,2.654978271484375,-0.0003539948957040906,0.00039336783811450005,-0.0007915052119642496
1761470274143954400,2.664954345703125,0.0007994201150722802,-0.0009736326755955815,0.001123307622037828
1761470274153931300,2.67493115234375,0.0020293809939175844,-0.0037471004761755466,0.0012726812856271863
1761470274163907600,2.684907470703125,0.0009944766061380506,0.0010380675084888935,0.0016034459695219994
1761470274173884400,2.694884521484375,0.001409876043908298,-0.0012397293467074633,0.002038593403995037
1761470274183860500,2.704860595703125,-0.0011211922392249107,0.0014069201424717903,-0.002449632156640291
1761470274193837300,2.71483740234375,0.0012371365446597338,-0.00160852144472301,-0.0007135567138902843
1761470274203813600,2.724813720703125,-0.001163436914794147,0.001429612748324871,0.001345865661278367
1761470274213790500,2.73479052734375,0.0021599954925477505,-0.0005998158594593406,0.000704531092196703
1761470274223766300,2.744766357421875,0.0025320390705019236,0.001329910708591342,-0.0023770127445459366
1761470274233743400,2.754743408203125,0.00006301846588030457,0.0013327922206372023,0.002496754052117467
1761470274243719400,2.764719482421875,0.0005003095138818026,0.0009149422403424978,0.0016149814473465085
1761470274253696500,2.774696533203125,0.0011696679284796119,-0.0017003749962896109,0.002827114425599575
1761470274263672300,2.78467236328125,-0.0012732497416436672,-0.0012897155247628689,0.0006084349006414413
1761470274273649400,2.7946494140625,-0.0003361761337146163,-0.0009602970676496625,-0.0013202090049162507
1761470274283625500,2.80462548828125,-0.00023790542036294937,-0.0027275707107037306,0.00002362203667871654
1761470274293602600,2.8146025390625,0.0007807093788869679,-0.0006707424763590097,-0.002313795732334256
1761470274303578400,2.824578369140625,-0.001254211994819343,-0.00011680508032441139,0.00020928292360622436
1761470274313555500,2.834555419921875,0.000852197059430182,-0.0002703231293708086,0.0005352431908249855
1761470274323531300,2.84453125,0.00008973403600975871,-0.0006173331057652831,0.0027246277313679457
1761470274333508600,2.854508544921875,-0.0008685133652761579,0.00019253650680184364,0.0005252428236417472
1761470274343484400,2.864484375,0.0008348445408046246,0.0004876148886978626,0.002309294417500496
1761470274353461500,2.87446142578125,0.0006546091753989458,-0.0005353934830054641,0.0003402267466299236
1761470274363437300,2.884437255859375,0.00011824857210740447,0.0002840610686689615,-0.0016214576316997409
1761470274373414400,2.894414306640625,0.0021154070273041725,-0.0010512527078390121,-0.00026638328563421965
1761470274383390500,2.904390380859375,0.002809959463775158,-0.00017027906142175198,-0.0011625370243564248
1761470274393367600,2.914367431640625,0.00019200186943635345,-0.001466020941734314,0.0003835263487417251
1761470274403343400,2.92434326171875,0.0006929424125701189,-0.00020874268375337124,0.0025902215857058764
1761470274413320400,2.934320556640625,0.000854700687341392,-0.0018869747873395681,0.0003656451590359211
1761470274423296500,2.944296630859375,0.0009156870655715466,0.0009543518535792828,-0.0018058964051306248
1761470274433273600,2.954273681640625,-0.00021421711426228285,0.002356112003326416,0.0010433904826641083
1761470274443249400,2.96424951171875,0.0003224097890779376,0.0005038836970925331,0.0022583245299756527
1761470274453226200,2.974226318359375,-0.0025586942210793495,0.0020012599416077137,-0.0012231501750648022
1761470274463202600,2.98420263671875,0.0005763788940384984,-0.001490144059062004,-0.0010449846740812063
1761470274473178400,2.994178466796875,0.0002515984233468771,-0.0015973919071257114,0.0016729147173464298
1761470274483155500,3.004155517578125,0.00037197332130745053,-0.0026709120720624924,0.0029728037770837545
1761470274493131500,3.014131591796875,0.003378363326191902,0.0003143022768199444,0.0035993747878819704
1761470274503108600,3.024108642578125,-0.0010648543247953057,-0.0015592315467074513,-0.0017445242265239358
1761470274513084400,3.03408447265625,0.0010658029932528734,0.0010319000575691462,-0.001981656067073345
1761470274523061500,3.0440615234375,0.002089522313326597,-0.0008437641663476825,0.0015547553775832057
1761470274533037300,3.054037353515625,-0.00011476973304525018,0.0001276480033993721,-0.003092886181548238
1761470274543014400,3.064014404296875,-7.864437066018581e-7,-0.0005964655429124832,0.0002720177872106433
1761470274552990500,3.073990478515625,-0.0007295836112461984,0.0007826995570212603,-0.0010201751720160246
1761470274562967600,3.083967529296875,0.0010930838761851192,-0.0005238472949713469,-0.002375457901507616
1761470274572943400,3.093943359375,0.0031872813124209642,0.00020282366313040257,0.0036593438126146793
1761470274582920400,3.10392041015625,0.0011326525127515197,-0.0013005308574065566,-0.001200126251205802
1761470274592896500,3.113896484375,-0.0005247272201813757,-0.0006604944355785847,-0.0017661649035289884
1761470274602873300,3.123873291015625,-0.00033031642669811845,0.0024665892124176025,0.002956418553367257
1761470274612849400,3.133849365234375,-0.0005873199552297592,0.0006277104839682579,0.00032961665419861674
1761470274622826200,3.143826171875,0.0015927436761558056,-0.0023156150709837675,0.0019243175629526377
1761470274632802600,3.153802490234375,0.0005511060589924455,0.00008697248995304108,-0.002713339403271675
1761470274642779400,3.163779296875,0.002323173452168703,0.00011946284212172031,0.002032946329563856
1761470274652755500,3.17375537109375,-0.002526176394894719,0.0018057692795991898,-0.0027942939195781946
1761470274662732300,3.183732177734375,0.0006493767723441124,-0.0015061378944665194,0.00010855172877199948
1761470274672708600,3.19370849609375,-0.0020424099639058113,-0.002327997935935855,-0.0000864444300532341
1761470274682685400,3.203685546875,-0.0018911423394456506,-0.003011897671967745,-0.00015568661910947412
1761470274692661500,3.21366162109375,-0.003721819259226322,0.0015550213865935802,-0.0005062837735749781
1761470274702638300,3.223638427734375,-0.0002602426102384925,-0.0011752513237297535,0.0019283781293779612
1761470274712614700,3.23361474609375,-0.0003414546954445541,0.0011877301149070263,-0.00078053236939013
1761470274722591500,3.243591552734375,-0.0005004453123547137,0.0007704128511250019,0.0012562532210722566
1761470274732567600,3.253567626953125,-0.00011300784535706043,0.002505745505914092,-0.0012815655209124088
1761470274742544400,3.26354443359375,0.0006281498353928328,-0.0011672863038256764,0.001693185418844223
1761470274752520400,3.2735205078125,-0.0021794303320348263,-0.00033009506296366453,0.0022200443781912327
1761470274762497500,3.28349755859375,-0.000723480072338134,0.0008835075423121452,0.0005457150982692838
1761470274772473300,3.293473388671875,0.0003058798029087484,0.00031462241895496845,0.0008563220035284758
1761470274782450400,3.303450439453125,-0.000015031138900667429,0.00048399949446320534,0.0003846761828754097
1761470274792426200,3.31342626953125,0.00019410281674936414,0.002358808182179928,-0.0003810980124399066
1761470274802403300,3.3234033203125,-0.0004900632193312049,0.0012525308411568403,0.000279632251476869
1761470274812379400,3.33337939453125,0.000929729372728616,0.0003844662569463253,-0.00045800593215972185
1761470274822355500,3.34335546875,-0.0004955944023095071,-0.0005614885594695807,-0.0036079927813261747
1761470274832332000,3.35333203125,0.0009542141342535615,-0.001475589582696557,0.0014623684110119939
1761470274842308000,3.36330810546875,0.002228536643087864,-0.002602373016998172,0.0005539641715586185
1761470274852285200,3.37328515625,0.0021071736700832844,-0.0013043334474787116,0.0015727834543213248
1761470274862261000,3.383260986328125,0.001124467351473868,-0.0010782310273498297,0.00006490164378192276
1761470274872238000,3.393238037109375,0.0013075342867523432,-0.000560496118851006,-0.002280821092426777
1761470274882214100,3.403214111328125,0.0014297734014689922,-0.0036838515661656857,0.0012507967185229063
1761470274892191200,3.413191162109375,0.0010294901439920068,-0.0016706525348126888,-0.000798661436419934
1761470274902167000,3.4231669921875,-0.00043471582466736436,-0.0011393519816920161,-0.0004601736436598003
1761470274912144100,3.43314404296875,0.002341564977541566,-0.000024844426661729813,0.0011539182160049677
1761470274922120200,3.4431201171875,-0.002454255474731326,-0.00016892165876924992,-0.0021651792339980602
1761470274932097300,3.45309716796875,-0.0008180110016837716,-0.0003613680601119995,-0.0023015744518488646
1761470274942073000,3.463072998046875,0.002643832005560398,-0.0023755168076604605,-0.0013167376164346933
1761470274952050200,3.47305029296875,-0.001619874034076929,-0.0007088090060278773,-0.0011842608219012618
1761470274962026200,3.483026123046875,0.0007290341309271753,0.0006693769246339798,-0.0013011735863983631
1761470274972003300,3.49300341796875,-0.0024693673476576805,0.002425489015877247,-0.0011202988680452108
1761470274981979100,3.502979248046875,-0.0006578852189704776,0.0007279899436980486,0.00020489003509283066
1761470274991956000,3.5129560546875,0.0011825119145214558,0.0012056059204041958,-0.00011589027417358011
1761470275001932000,3.52293212890625,0.0009369684848934412,-0.0026059101801365614,-0.0010442682541906834
1761470275011909000,3.5329091796875,-0.000046852685045450926,0.00006054248660802841,0.002899874933063984
1761470275021885200,3.54288525390625,0.0012546341167762876,0.0013045051600784063,-0.0005563755985349417
1761470275031862000,3.552862060546875,-0.003156164428219199,-0.0010975716868415475,-0.0013070657150819898
1761470275041838000,3.562838134765625,0.0012066259514540434,0.0024838470853865147,0.002443197648972273
1761470275051815000,3.57281494140625,0.0014051340986043215,0.0007892386056482792,0.0016058789333328605
1761470275061791200,3.582791259765625,-0.000006341200787574053,0.00214878236874938,-0.0012833845103159547
1761470275071768000,3.59276806640625,-0.0005794827593490481,0.0014765872620046139,-0.0005594901158474386
1761470275081744100,3.602744140625,-0.0002660286845639348,0.0019679407123476267,-0.0025374197866767645
1761470275091721000,3.612720947265625,0.0002546514733694494,0.002309059491381049,-0.0008541331626474857
1761470275101697300,3.622697265625,0.0005774266319349408,0.0012709596194326878,0.00273847091011703
1761470275111674000,3.632674072265625,0.0009054222027771175,-0.001883216085843742,0.0011007640277966857
1761470275121650200,3.642650146484375,-0.002360146027058363,0.001391406636685133,-0.0020449617877602577
1761470275131627000,3.652626953125,0.001395474188029766,-0.001136098988354206,-0.000015329511370509863
1761470275141603000,3.66260302734375,0.0011653769761323929,0.0014106819871813059,0.0013016036245971918
1761470275151579100,3.6725791015625,0.00046991300769150257,0.0012158704921603203,-0.004952227231115103
1761470275161556000,3.682555908203125,0.0005024035926908255,-0.0010731164366006851,0.001550146727822721
1761470275171532000,3.692531982421875,-0.002190440660342574,0.002178780734539032,-0.0020512701012194157
1761470275181509000,3.702509033203125,0.0010413052514195442,0.0021886341273784637,-0.0012275543995201588
1761470275191485200,3.712485107421875,-0.00016279402188956738,0.00007638335227966309,-0.002516097854822874
1761470275201462000,3.7224619140625,-0.000804083188995719,0.001814096001908183,-0.0004060752980876714
1761470275211438000,3.73243798828125,0.0019398450385779142,-0.0030112944077700377,0.0008919918327592313
1761470275221415200,3.742415283203125,-0.001452755881473422,-0.00028501637279987335,-0.0005903236451558769
1761470275231391200,3.75239111328125,0.0020164395682513714,-0.0018214548472315073,0.00013249341282062232
1761470275241368000,3.7623681640625,0.0006185462698340416,0.00012611481361091137,-0.0002073259383905679
1761470275251344100,3.77234423828125,0.0010375918354839087,-0.000549304997548461,-0.0038796833250671625
1761470275261321000,3.782321044921875,0.0006181439384818077,-0.0011905942810699344,0.0037332286592572927
1761470275271297300,3.79229736328125,-0.0011691544204950333,0.0005024068523198366,-0.0013267835602164268
1761470275281274000,3.802274169921875,-0.000859162537381053,0.0014502257108688354,-0.003787810681387782
1761470275291250000,3.81225,-0.0012910458026453853,0.0024719357024878263,-0.0014611126389354467
1761470275301227000,3.82222705078125,0.0006858186097815633,-0.0012679414357990026,-0.0006176895694807172
1761470275311203000,3.832203125,-0.0008003907278180122,0.0005254431162029505,-0.00017684214981272817
1761470275321180200,3.84218017578125,0.0002680695033632219,-0.00189190823584795,0.0007150504970923066
1761470275331156000,3.852156005859375,-0.0011687607038766146,0.0007116168271750212,0.00005647270882036537
1761470275341133000,3.862133056640625,0.00038679171120747924,-0.000919036683626473,-0.001498813391663134
1761470275351109000,3.872109130859375,-0.0006839285488240421,0.00020417780615389347,0.0014387393603101373
1761470275361086200,3.882086181640625,0.0010119723156094551,0.0011448063887655735,0.0000198070629267022
1761470275371062000,3.89206201171875,-0.0014328802935779095,0.0015642358921468258,-0.0020010245498269796
1761470275381039000,3.9020390625,-0.001443799352273345,0.00073199812322855,0.0014717373996973038
1761470275391015200,3.91201513671875,0.0011288104578852654,0.003334781853482127,-0.0017796236788854003
1761470275400991200,3.9219912109375,0.001514436211436987,-0.001286601647734642,0.0016238961834460497
1761470275410968000,3.931968017578125,0.002108755288645625,0.00025237095542252064,-0.0016604094998911023
1761470275420944100,3.941944091796875,-0.0007626649457961321,0.0005501122213900089,0.00027437700191512704
1761470275430921000,3.9519208984375,-0.0021346257999539375,0.00005084858275949955,-0.0021668097469955683
1761470275440897000,3.96189697265625,0.0009035081602632999,-0.0001603399869054556,-0.0006999406614340842
1761470275450874000,3.9718740234375,0.002108244923874736,0.0018664398230612278,-0.0033019662369042635
1761470275460850000,3.981849853515625,0.00007838354213163257,0.002322106622159481,-0.0022039448376744986
1761470275470827000,3.991826904296875,0.0020138707477599382,-0.0007148868171498179,0.003482535481452942
1761470275480803000,4.001802978515625,-0.0011571550276130438,0.0006878001149743795,-0.0012690762523561716
1761470275490780200,4.0117802734375,0.00215380871668458,-0.0001444688532501459,-0.0033093735110014677
1761470275500756000,4.021755859375,-0.00027366261929273605,0.0002355643082410097,-0.0018438359256833792
1761470275510733000,4.031733154296875,-0.0015376312658190727,-0.0003671760205179453,-0.0003737704246304929
1761470275520709000,4.041709228515625,0.0006078112637624145,-0.000014040851965546608,0.0002565998292993754
1761470275530686200,4.051686279296875,-0.0018130794633179903,-0.0015224458184093237,-0.0005159212159924209
1761470275540662000,4.061662109375,-0.002282594796270132,-0.001451605698093772,0.0011043460108339787
1761470275550639000,4.07163916015625,0.0019042647909373045,-0.0015434541273862123,-0.0005514505319297314
1761470275560615200,4.081615234375,0.0008158307755365968,-0.0002627399517223239,-0.0019179184455424547
1761470275570592300,4.09159228515625,0.0004547069256659597,0.001188458874821663,-0.001129228388890624
1761470275580568000,4.101568115234375,0.0023037397768348455,0.00012239557690918446,0.0013134230393916368
1761470275590545200,4.111545166015625,0.0002964140148833394,0.0022665332071483135,0.00038081116508692503
1761470275600521000,4.12152099609375,0.0018426453461870551,0.0005474626086652279,0.0019970836583524942
1761470275610498300,4.131498291015625,-0.000518562039360404,0.0014209349174052477,0.0031788174528628588
1761470275620474000,4.14147412109375,-0.001119637512601912,0.0011474282946437597,0.0009510833187960088
1761470275630451200,4.151451171875,0.0014246387872844934,0.0001822838094085455,-0.002483261050656438
1761470275640427000,4.161427001953125,-0.0029964749701321125,-0.00007870607078075409,0.0010555475018918514
1761470275650403000,4.171403076171875,0.0000398693373426795,0.001567251980304718,0.0025461772456765175
1761470275660380200,4.181380126953125,0.0032937193755060434,0.00032701785676181316,-0.002182797994464636
1761470275670356000,4.19135595703125,0.0018039254937320948,-0.001094827544875443,-0.0009239386417903006
1761470275680333000,4.2013330078125,-0.00002593250246718526,0.0003874879330396652,0.002112597692757845
1761470275690309000,4.21130908203125,0.001404349459335208,-0.00007074116729199886,-0.0006762279663234949
1761470275700286200,4.2212861328125,0.0002703753998503089,-0.0012683647219091654,-0.0007233659271150827
1761470275710262000,4.231261962890625,0.0019759591668844223,0.0019730464555323124,-0.0010216444497928023
1761470275720239000,4.241239013671875,-0.00021395809017121792,-0.0003476322162896395,0.0003032782697118819
1761470275730215200,4.251215087890625,0.0015695104375481606,-0.0006731343455612659,-0.0000048520887503400445
1761470275740192300,4.261192138671875,-0.0014087026938796043,0.00022541615180671215,-0.0015369686298072338
1761470275750168000,4.27116796875,0.001587485196068883,0.00026102084666490555,-0.00326375849545002
1761470275760145200,4.281145263671875,0.0025385001208633184,-0.0016908099642023444,-0.0013076665345579386
1761470275770121200,4.291121337890625,-0.002649451605975628,-0.002772133331745863,-0.0016008807579055429
1761470275780098300,4.301098388671875,-0.0003415562678128481,-0.0003372051287442446,-0.0014813048765063286
1761470275790074000,4.31107421875,-0.00088544498430565,0.001390550285577774,0.0003805484448093921
1761470275800051200,4.32105126953125,-0.0009190007694996893,0.00009465613402426243,0.0018199869664385915
1761470275810027000,4.331027099609375,-0.0009764316491782665,-0.00012922403402626514,-0.000248943135375157
1761470275820004400,4.34100439453125,0.001104562426917255,-0.0006368224276229739,-0.0028053114656358957
1761470275829980000,4.35097998046875,0.0016708106268197298,-0.002408184576779604,0.002130080247297883
1761470275839957000,4.36095703125,-0.000333750678692013,-0.0005239980528131127,-0.0017184538301080465
1761470275849932800,4.370932861328125,-0.00012145837536081672,-0.0015990554820746183,-0.001572644803673029
1761470275859910000,4.380909912109375,0.00016642938135191798,-0.0011343337828293443,-0.001929241931065917
1761470275869886000,4.390885986328125,0.0004030908166896552,0.00006827549077570438,-0.0017231199890375137
1761470275879863000,4.400863037109375,0.0011666191276162863,0.0014429993461817503,-0.0010839613387361169
1761470275889838800,4.4108388671875,0.0002386880514677614,0.0010142573155462742,-0.0004481336800381541
1761470275899816000,4.42081591796875,0.002868559444323182,-0.0013807234354317188,0.0004450905544217676
1761470275909792000,4.4307919921875,0.0021333638578653336,0.00006422027945518494,0.000613445183262229
1761470275919769000,4.44076904296875,0.00024065517936833203,-0.0012244833633303642,0.0022358428686857224
1761470275929745000,4.450744873046875,-0.0007255711825564504,-0.0004045952809974551,-0.0010480372002348304
1761470275939721000,4.460720947265625,-0.0008320976048707962,0.0018289978615939617,0.0031320604030042887
1761470275949698000,4.470697998046875,-0.0008538457914255559,0.0007390889804810286,-0.0019265713635832071
1761470275959673900,4.480673828125,0.0031155957840383053,0.00029806955717504025,-0.00024079030845314264
1761470275969651000,4.49065087890625,-0.0008730831323191524,0.0020603572484105825,-0.0002782754017971456
1761470275979627000,4.500626953125,-0.001589473569765687,-0.0003458088031038642,-0.0010143730323761702
1761470275989604000,4.51060400390625,0.0016045317752286792,-0.003340380731970072,0.00023796819732524455
1761470275999580000,4.520579833984375,0.0007437980966642499,0.0011688836384564638,-0.002288306597620249
1761470276009557000,4.530556884765625,-0.00047514907782897353,-0.00006258604116737843,0.000445020676124841
1761470276019532800,4.54053271484375,0.0020772244315594435,-0.0012325127609074116,-0.0007592607871629298
1761470276029510100,4.55051025390625,-0.001315724104642868,-0.0005121959839016199,-0.001361055881716311
1761470276039486000,4.56048583984375,0.0010393093107268214,-0.0009233880555257201,-0.00101271434687078
1761470276049463000,4.570463134765625,-0.0018197912722826004,0.0008762353099882603,0.0005758271436206996
1761470276059438800,4.58043896484375,-0.0005286908126436174,0.0023612140212208033,-0.0009395114611834288
1761470276069416000,4.590416015625,0.0011480223620310426,0.004792673047631979,0.0002968431217595935
1761470276079392000,4.60039208984375,0.0019126159604638815,-0.0007773283869028091,-0.0011258175363764167
1761470276089368800,4.610368896484375,0.0008711784612387419,-0.0012031398946419358,-0.00087991904001683
1761470276099345000,4.620344970703125,0.00122910737991333,-0.0008249711245298386,0.0008386188419535756
1761470276109321700,4.63032177734375,0.00288622104562819,0.0005095263477414846,0.000760123657528311
1761470276119298000,4.640298095703125,0.0010339923901483417,-0.0014753276482224464,-0.002510238206014037
1761470276129275000,4.65027490234375,-0.0002280748449265957,-0.00013940921053290367,-0.0002961790014524013
1761470276139251000,4.6602509765625,-0.00041422987123951316,0.0020513073541224003,-0.00008099559636320919
1761470276149227800,4.670227783203125,0.0020302950870245695,-0.0013320267898961902,0.0005099043482914567
1761470276159204000,4.6802041015625,0.003064933232963085,-0.002233773237094283,0.0036364553961902857
1761470276169181000,4.690180908203125,0.0002883567358367145,0.0005014070775359869,0.0006259148940443993
1761470276179157000,4.700156982421875,-0.00019633857300505042,0.002108891261741519,-0.001454013865441084
1761470276189133800,4.7101337890625,-0.00014271971303969622,-0.0005968384211882949,0.001554395304992795
1761470276199110100,4.720110107421875,-0.00009451649384573102,-0.0015294773038476706,0.0021054032258689404
1761470276209087000,4.7300869140625,-0.002755759283900261,-0.000026834430173039436,0.0026644449681043625
1761470276219063000,4.74006298828125,-0.0015104649355635047,0.00022536702454090118,-0.0005148366326466203
1761470276229038800,4.750038818359375,0.0002865994465537369,0.0005913919303566217,-0.0011423758696764708
1761470276239016000,4.760015869140625,0.0005073755164630711,0.0005937889218330383,-0.0008978976984508336
1761470276248992000,4.769991943359375,-0.0020065754652023315,0.0006395771633833647,0.000268194533418864
1761470276258968800,4.77996875,0.0007519268547184765,0.0005900424439460039,0.0021190913394093513
1761470276268945000,4.78994482421875,0.001132491510361433,-0.0005311741260811687,0.002207329962402582
1761470276278921700,4.799921630859375,0.0030797948129475117,0.0004054596647620201,0.0026978841051459312
1761470276288898000,4.80989794921875,0.0011342705693095922,0.0007643091958016157,0.001141372020356357
1761470276298875000,4.819875,-0.0011475258506834507,-0.0017678242875263095,0.0021230133716017008
1761470276308851000,4.829850830078125,-0.00046548701357096434,0.001535280840471387,-0.0045735822059214115
1761470276318827800,4.839827880859375,0.00040616566548123956,0.00020156987011432648,0.0027804707642644644
1761470276328804000,4.84980419921875,-0.0009651564760133624,-0.0003757075173780322,-0.0015949158696457744
1761470276338781000,4.859781005859375,0.0012204998638480902,0.00037849973887205124,-0.001972285797819495
1761470276348757000,4.869757080078125,-0.0001530508161522448,-0.00007630512118339539,-0.0013504493981599808
1761470276358733800,4.87973388671875,-0.0006073861150071025,-0.0008536818204447627,0.0005952559877187014
1761470276368710100,4.889710205078125,0.0007731832447461784,-0.0013471429701894522,0.0016409080708399415
1761470276378687000,4.89968701171875,-0.00042603822657838464,0.0024654383305460215,0.0010731221409514546
1761470276388663000,4.9096630859375,-0.0003706960706040263,0.0021222494542598724,0.0028922692872583866
1761470276398639900,4.919639892578125,0.0009092191467061639,-0.0008754046866670251,0.0012791925109922886
1761470276408616000,4.929615966796875,0.00008851679740473628,-0.0013911575078964233,0.00008787930710241199
1761470276418593000,4.939593017578125,0.00041954772314056754,0.0011018277145922184,0.003633345477283001
1761470276428568800,4.94956884765625,0.00014750560512766242,-0.0005334301386028528,-0.0012680564541369677
1761470276438546000,4.9595458984375,-0.0015393407084047794,-0.001337438472546637,-0.0005314260488376021
1761470276448521700,4.969521728515625,-0.0009914063848555088,0.0019092850852757692,0.0013354327529668808
1761470276458499000,4.9794990234375,0.0004557553038466722,0.0009481504093855619,0.0013876308221369982
1761470276468475000,4.989474853515625,0.0000793870713096112,-0.001215748954564333,-0.0024937011767178774
1761470276478451000,4.999450927734375,-0.0009914699476212263,-0.0009158770553767681,0.001672015292569995
1761470276488427800,5.009427734375,-0.0020576873794198036,-0.0016259840922430158,-0.001226371037773788
1761470276498404000,5.019404052734375,0.00016685089212842286,0.0009849790949374437,-0.0023752585984766483
1761470276508381000,5.029380859375,-0.00018369522877037525,0.0004384508356451988,0.00026606960454955697
1761470276518357000,5.03935693359375,0.0005590603686869144,0.002374302828684449,-0.002631449606269598
1761470276528333800,5.049333740234375,0.00018577472656033933,0.00019097654148936272,-0.002485896460711956
1761470276538310100,5.05931005859375,0.0010789989028126001,-0.00028386502526700497,-0.0016624471172690392
1761470276548287000,5.069286865234375,0.0016997108468785882,-0.0010021075140684843,0.0007268735207617283
1761470276558262800,5.0792626953125,0.0017092981142923236,-0.0032516797073185444,0.0006019712891429663
1761470276568239900,5.089239990234375,0.00021451612701639533,-0.002333469456061721,-0.0008863948751240969
1761470276578216000,5.0992158203125,0.0017729980172589421,-0.0010503584053367376,-0.002763390773907304
1761470276588193000,5.109193115234375,-0.0014100056141614914,0.00042257760651409626,-0.001953733852133155
1761470276598168800,5.1191689453125,0.0004305050242692232,0.002393582835793495,0.0012564403004944324
1761470276608146000,5.12914599609375,-0.00031966122332960367,-0.0005310619017109275,0.003180845407769084
1761470276618122000,5.1391220703125,-0.00016679579857736826,0.0003640265204012394,-0.0020743703935295343
1761470276628099000,5.14909912109375,-0.00025253620697185397,0.0025637729559093714,-0.0010660417610779405
1761470276638075000,5.159074951171875,-0.0008229853119701147,0.0002327081747353077,-0.0031635474879294634
1761470276648052000,5.169052001953125,0.00028253369964659214,0.0026776192244142294,-0.0000059329759096726775
1761470276658027800,5.17902783203125,0.0013376781716942787,0.0009132749401032925,0.0015149982646107674
1761470276668004900,5.1890048828125,-0.00041003740625455976,-0.000008597970008850098,0.002083688275888562
1761470276677981000,5.19898095703125,0.0005412437603808939,0.0010950160212814808,0.003269860055297613
1761470276687958000,5.2089580078125,0.00012439934653230011,0.001694263657554984,-0.0036360290832817554
1761470276697933800,5.218933837890625,0.0010815394343808293,-0.00033586390782147646,-0.002166497055441141
1761470276707910000,5.228909912109375,-0.0007308617350645363,0.0009637060575187206,-0.00421854667365551
1761470276717887000,5.238886962890625,-0.0028914841823279858,-0.000207552220672369,-0.001820636447519064
1761470276727862800,5.24886279296875,-0.0007690414786338806,0.0004524064715951681,-0.0008836286142468452
1761470276737839900,5.25883984375,0.0009676057379692793,0.0000963420607149601,0.0013736666878685355
1761470276747816000,5.26881591796875,-0.0018998533487319946,0.001236173091456294,-0.0024846685118973255
1761470276757793000,5.27879296875,-0.0003235282492823899,-0.0015026218025013804,-0.000352808041498065
1761470276767768800,5.288768798828125,-0.0015045623295009136,-0.00218408415094018,-0.0012283680262044072
1761470276777746000,5.298745849609375,0.00019693141803145409,0.000364294508472085,0.0015375911025330424
1761470276787722000,5.308721923828125,0.0011064689606428146,-0.0016819443553686142,0.004022900015115738
1761470276797699000,5.318698974609375,0.003052973421290517,-0.0004627492744475603,-0.003142334520816803
1761470276807675000,5.3286748046875,0.0016134836478158832,0.0019846700597554445,-0.0022067080717533827
1761470276817652000,5.33865185546875,0.0005628665676340461,0.00025095208548009396,0.0009773673955351114
1761470276827628500,5.348628662109375,0.0006401591235771775,0.0017077582888305187,0.0019781573209911585
1761470276837605400,5.35860546875,0.001971473451703787,0.000009993091225624084,-0.000275675964076072
1761470276847581700,5.368581787109375,0.002950073219835758,0.0010219293180853128,-0.00017644879699219018
1761470276857558500,5.37855859375,0.001818762393668294,-0.000498203095048666,-0.0010044255759567022
1761470276867534600,5.38853466796875,-0.00075824826490134,-0.0021103955805301666,0.0003722442197613418
1761470276877511400,5.398511474609375,-0.002049348782747984,-0.000011025695130228996,-0.0035804195795208216
1761470276887487700,5.40848779296875,-0.0016520535573363304,0.001096006715670228,0.0024347174912691116
1761470276897464600,5.418464599609375,-0.0004256677348166704,-0.0019072400173172355,0.0018916989210993052
1761470276907440600,5.428440673828125,-0.0013867653906345367,0.0005505296867340803,-0.0009650047868490219
1761470276917416400,5.43841650390625,0.0030734967440366745,-0.0013323251623660326,-0.0015375844668596983
1761470276927393800,5.448393798828125,0.00007706810720264912,0.0013378513976931572,0.00000796054519014433
1761470276937369600,5.45836962890625,0.0000799975823611021,0.0012646145187318325,-0.00008897851512301713
1761470276947346400,5.468346435546875,0.0005473773926496506,0.0006475262343883514,0.0012905842158943415
1761470276957322500,5.478322509765625,-0.0006177555187605321,-0.0015218846965581179,-0.00010597748041618615
1761470276967299600,5.488299560546875,-0.001927115605212748,-0.001998540246859193,-0.0008306690724566579
1761470276977275600,5.498275634765625,-0.002958557801321149,0.00011973804794251919,-0.00016274829977191985
1761470276987252500,5.50825244140625,0.00007314904360100627,0.0006357298698276281,0.0013631365727633238
1761470276997228500,5.518228515625,-0.0008656152058392763,0.00011721253395080566,0.0014488901942968369
1761470277007205400,5.528205322265625,0.002009191084653139,-0.0005496698431670666,-0.00245927507057786
1761470277017181700,5.538181640625,0.0008709561079740524,0.00036965333856642246,0.00046620742068625987
1761470277027158500,5.548158447265625,0.0020068036392331123,0.0003741728141903877,0.0003327325393911451
1761470277037134600,5.558134521484375,-0.0026249662041664124,0.0011483537964522839,0.001747137401252985
1761470277047111400,5.568111328125,-0.003524651750922203,-0.0011089066974818707,0.0019881289917975664
1761470277057087700,5.578087646484375,-0.0029041352681815624,-0.0003576289163902402,-0.00022868627274874598
1761470277067064600,5.588064697265625,-0.0007945849793031812,-0.0009143382776528597,0.0005913207423873246
1761470277077040600,5.59804052734375,0.0005471155163832009,0.003603980876505375,-0.002819655928760767
1761470277087017500,5.608017578125,0.0009324878919869661,-0.00016255676746368408,-0.0027537161950021982
1761470277096993500,5.61799365234375,0.0030752671882510185,0.0006973778363317251,-0.0012831187341362238
1761470277106970600,5.627970703125,0.001812170958146453,-0.00030496076215058565,-0.0008631481905467808
1761470277116946400,5.637946533203125,-0.004318958148360252,0.0006188899278640747,0.0020114679355174303
1761470277126923500,5.647923583984375,-0.003462596097961068,-0.0016235356451943517,0.001741119660437107
1761470277136899600,5.657899658203125,-0.0002857113431673497,0.0010151243768632412,-0.0009382867137901485
1761470277146875600,5.667875732421875,0.0004132615285925567,-0.0011568990303203464,0.0006050790543667972
1761470277156852500,5.6778525390625,0.004153404850512743,-0.0008397165220230818,0.00018137009465135634
1761470277166828500,5.68782861328125,0.0027473997324705124,-0.0003734512720257044,0.0013988666469231248
1761470277176805400,5.697805419921875,0.0017921236576512456,-0.0002868984593078494,-0.000059214013163000345
1761470277186781700,5.70778173828125,0.0006190382991917431,0.0004474769812077284,0.0029263412579894066
1761470277196758500,5.717758544921875,-0.003588489955291152,0.0019915776792913675,-0.0010590790770947933
1761470277206734600,5.727734619140625,-0.006095878779888153,-0.0005958009278401732,0.002131748478859663
1761470277216711400,5.73771142578125,-0.0041070301085710526,0.0005807837005704641,-0.0002011807227972895
1761470277226687700,5.747687744140625,-0.0016036222223192453,0.0022395621053874493,-0.0010136314667761326
1761470277236664600,5.75766455078125,0.00038948762812651694,0.0023721870966255665,0.0013701641000807285
1761470277246640600,5.767640625,0.0014868536964058876,-0.00022301264107227325,0.0009319881210103631
1761470277256617500,5.777617431640625,0.0010900427587330341,-0.00010956195183098316,0.00020467884314712137
1761470277266593500,5.787593505859375,0.000638248398900032,0.0011288595851510763,0.001069851336069405
1761470277276570600,5.797570556640625,-0.0018579325405880809,0.0011693397536873817,-0.00300371996127069
1761470277286546400,5.80754638671875,-0.004331620410084724,0.000004342757165431976,0.00022336737310979515
1761470277296523500,5.8175234375,-0.0010607261210680008,0.00013403850607573986,-0.0024379293899983168
1761470277306499600,5.82749951171875,-0.00367553997784853,0.0010092067532241344,-0.0011018906952813268
1761470277316476700,5.8374765625,-0.0005569782806560397,-0.0010286441538482904,-0.0023445216938853264
1761470277326452500,5.847452392578125,0.0003171314892824739,0.0018814662471413612,-0.0005326360114850104
1761470277336428500,5.857428466796875,0.0026071835309267044,0.002183468546718359,0.0011102680582553148
1761470277346405600,5.867405517578125,0.0023627490736544132,-0.0025102952495217323,0.0003929651575163007
1761470277356381700,5.877381591796875,-0.0009235917823389173,0.0003310311585664749,0.00020894074987154454
1761470277366358500,5.887358642578125,-0.0015909206122159958,0.0010163220576941967,-0.0003563125501386821
1761470277376334600,5.89733447265625,-0.00009555573342368007,0.0007766373455524445,0.0005443685222417116
1761470277386311400,5.9073115234375,-0.0030638743191957474,0.003038818249478936,0.0006777743110433221
1761470277396287700,5.917287841796875,0.0013503152877092361,-0.0005106428870931268,-0.00044714496470987797
1761470277406264600,5.9272646484375,0.0038386264350265265,0.0008971416391432285,-0.0018144884379580617
1761470277416240400,5.937240478515625,0.004137433134019375,0.0001320154406130314,0.00022309611085802317
1761470277426217500,5.947217529296875,-0.0008504419820383191,0.0007113132160156965,-0.0020194726530462503
1761470277436193500,5.957193603515625,-0.000600371160544455,-0.0024839474353939295,0.00216461974196136
1761470277446170600,5.967170654296875,-0.0019749316852539778,-0.00014115497469902039,-0.0012295080814510584
1761470277456146400,5.977146484375,-0.0028074358124285936,-0.0035302937030792236,-0.0035853402223438025
1761470277466123500,5.98712353515625,-0.0008682244224473834,0.0011070901528000832,-0.0014451525639742613
1761470277476099600,5.997099609375,-0.0008775454480201006,-0.00016590068116784096,0.001233454910106957
1761470277486076700,6.00707666015625,0.001825563027523458,-0.0014924569986760616,-0.00024431763449683785
1761470277496052500,6.017052490234375,0.0027691207360476255,0.0009219648782163858,0.0015091076493263245
1761470277506029600,6.027029541015625,0.00219414453022182,0.00046864384785294533,-0.00235512456856668
1761470277516005600,6.037005615234375,0.0006684195250272751,0.00010778545401990414,-0.0005795949837192893
1761470277525981700,6.046981689453125,-0.0002004226844292134,-0.0013271444477140903,0.00384319294244051
1761470277535958500,6.05695849609375,-0.0004060187202412635,-0.0000930356327444315,-0.0026282882317900658
1761470277545934600,6.0669345703125,-0.002162336139008403,-0.0005459096282720566,0.001694084145128727
1761470277555911400,6.076911376953125,0.0007008281536400318,0.00038087042048573494,0.0005020532407797873
1761470277565887500,6.086887451171875,0.002738540293648839,0.00027686310932040215,0.0013179774396121502
1761470277575864600,6.096864501953125,0.0011353172594681382,0.002096334705129266,-0.001033061183989048
1761470277585840400,6.10684033203125,-0.0018425725866109133,0.002392131369560957,-0.000028839000151492655
1761470277595817500,6.1168173828125,0.0015180704649537802,0.0015313979238271713,0.0024164754431694746
1761470277605793500,6.12679345703125,0.0008206916972994804,-0.0011305719381198287,0.000316630961606279
1761470277615770600,6.1367705078125,-0.001836876617744565,-0.0015319103840738535,0.00045644689816981554
1761470277625746400,6.146746337890625,-0.0031759957782924175,-0.0006205074023455381,-0.0000202258161152713
1761470277635723500,6.1567236328125,0.0014448552392423153,-0.0013997482601553202,0.0035255067050457
1761470277645699600,6.166699462890625,0.00029592536156997085,0.00047145644202828407,0.001925107673741877
1761470277655676700,6.1766767578125,0.0010208378080278635,0.00046053738333284855,-0.002493609208613634
1761470277665652500,6.186652587890625,-0.002152792178094387,-0.0026189228519797325,0.0016136012272909284
1761470277675629600,6.196629638671875,-0.0007948464481160045,0.00015742238610982895,-0.001380058121867478
1761470277685605600,6.206605712890625,0.0020098574459552765,0.000045136548578739166,0.0001218651159433648
1761470277695582700,6.216582763671875,-0.002807268174365163,0.0015868404880166054,0.0015234868042171001
1761470277705558500,6.22655859375,-0.0015612691640853882,-0.0005223175976425409,-0.000855232123285532
1761470277715535600,6.23653564453125,-0.003651850391179323,0.0007019375916570425,-0.0016818774165585637
1761470277725511400,6.246511474609375,0.000728356302715838,-0.0008515012450516224,-0.00021223592921160161
1761470277735488800,6.25648876953125,0.0012812284985557199,-0.0008211412932723761,0.0001552803150843829
1761470277745464600,6.266464599609375,-0.00033972985693253577,-0.00022328447084873915,0.001198610756546259
1761470277755440400,6.2764404296875,0.0007489703712053597,-0.0000983821228146553,-0.0007180662360042334
1761470277765417500,6.28641748046875,0.0006045112386345863,-0.0032017622143030167,0.002752626081928611
1761470277775393500,6.2963935546875,-0.0016298808623105288,-0.0005524496082216501,0.0005299518234096467
1761470277785370600,6.30637060546875,-0.003118322929367423,0.0012221608776599169,0.0008527605677954853
1761470277795346400,6.316346435546875,-0.0037164690438658,-0.0017422037199139595,-0.0028050909750163555
1761470277805323500,6.326323486328125,-0.0025079743936657906,-0.0008311838610097766,-0.001275031827390194
1761470277815299600,6.336299560546875,-0.0022176899947226048,-0.0011369147105142474,-0.0005639678565785289
1761470277825276700,6.346276611328125,-0.0001789141388144344,0.000272305216640234,-0.0007549485890194774
1761470277835252200,6.356252197265625,-0.0027147759683430195,0.00029467581771314144,0.0014794436283409595
1761470277845229300,6.366229248046875,-0.002354054246097803,0.0011146997567266226,-0.0005232880357652903
1761470277855205400,6.376205322265625,-0.0014784068334847689,-0.00161237723659724,-0.0003134309663437307
1761470277865182500,6.386182373046875,0.0009373738430440426,0.0004546605050563812,0.002321260515600443
1761470277875158300,6.396158203125,-0.0003460035368334502,0.0030797384679317474,-0.003032758366316557
1761470277885135400,6.40613525390625,-0.0016080709174275398,0.00020528282038867474,-0.0015280501684173942
1761470277895111400,6.416111328125,-0.0016400290187448263,0.0008393814787268639,0.003080283757299185
1761470277905088500,6.426088623046875,-0.0018208520486950874,0.001857163617387414,0.0001221608108608052
1761470277915064300,6.436064208984375,0.00005001859972253442,-0.00055858981795609,-0.0006466938066296279
1761470277925040000,6.4460400390625,0.0004457559552974999,-0.0000026442576199769974,0.0016790361842140555
1761470277935017500,6.456017578125,0.002463100478053093,0.0024554533883929253,0.0011386808473616838
1761470277944993300,6.4659931640625,0.0014981883578002453,0.001978387823328376,-0.0012441854923963547
1761470277954970400,6.475970458984375,0.0008648886578157544,0.000857463339343667,0.0026118054520338774
1761470277964946200,6.4859462890625,-0.0014069094322621822,-0.0014770915731787682,0.002810050267726183
1761470277974923300,6.49592333984375,-0.004527601413428783,0.0025000732857733965,0.0037163239903748035
1761470277984899300,6.5058994140625,-0.0026637765113264322,0.003492713673040271,0.00007060649659251794
1761470277994876400,6.51587646484375,-0.002847534604370594,0.0024112036917358637,-0.0032604755833745003
1761470278004852200,6.525852294921875,0.0017284301575273275,-0.00046779727563261986,0.0001492692535975948
1761470278014829300,6.535829345703125,0.0009539829334244132,0.00040092598646879196,0.0015437003457918763
1761470278024805400,6.545805419921875,0.0009623549412935972,0.0008220337331295013,-0.0012144021457061172
1761470278034782500,6.555782470703125,0.001515227253548801,0.0007317524868994951,-0.002140383468940854
1761470278044758300,6.56575830078125,-0.003321470692753792,0.001137204235419631,-0.0018785313004627824
1761470278054735400,6.5757353515625,-0.0001445857051294297,0.003163070883601904,-0.0011056821094825864
1761470278064711400,6.58571142578125,-0.002715089824050665,0.0005087226163595915,-0.0003488689544610679
1761470278074688300,6.595688232421875,0.0004932202864438295,-0.00002630637027323246,-0.002804836258292198
1761470278084664300,6.605664306640625,-0.0000025864574126899242,-0.0016905083321034908,-0.000047977897338569164
1761470278094641200,6.61564111328125,0.0019449832616373897,-0.0010537465568631887,-0.000624818610958755
1761470278104617500,6.625617431640625,-0.0003045702469535172,-0.0001685356255620718,-0.00188655115198344
1761470278114594300,6.63559423828125,0.00027679780032485723,0.0009659710340201855,-0.0013581799576058984
1761470278124570400,6.6455703125,0.000532942358404398,0.0014336840249598026,0.0009630061686038971
1761470278134546200,6.655546142578125,0.0005284149665385485,0.0004584344569593668,0.0011670042295008898
1761470278144523300,6.665523193359375,-0.0010140766389667988,0.0012862880248576403,-0.0010936291655525565
1761470278154499300,6.675499267578125,-0.0013283296721056104,-0.0002783191157504916,-0.0003048008948098868
1761470278164476400,6.685476318359375,-0.0014593827072530985,-0.0002466751029714942,-0.0025438705924898386
1761470278174452200,6.6954521484375,0.000365681538823992,-0.001073320279829204,-0.002405918901786208
1761470278184429300,6.70542919921875,0.0033596097491681576,-0.001713476376608014,0.00195848336443305
1761470278194405400,6.7154052734375,0.0020101862028241158,-0.001514005707576871,0.0004870867123827338
1761470278204382500,6.725382568359375,0.004024973139166832,0.0008614987600594759,0.0017156373942270875
1761470278214358300,6.735358154296875,0.003081681439653039,-0.001506584114395082,-0.0024793739430606365
1761470278224335400,6.74533544921875,-0.002490767277777195,0.0019891425035893917,-0.00211484101600945
1761470278234311400,6.7553115234375,0.0005945047596469522,-0.0009986578952521086,0.0005581736913882196
1761470278244288300,6.765288330078125,-0.00031973826116882265,-0.0010882357601076365,0.001763832289725542
1761470278254264300,6.775264404296875,-0.00021507605561055243,-0.0002517368411645293,0.000823736481834203
1761470278264241200,6.7852412109375,0.0006714630872011185,0.0023847026750445366,0.0007890937849879265
1761470278274217500,6.795217529296875,-0.0013432182604447007,0.0013244983274489641,-0.00041332340333610773
1761470278284194300,6.8051943359375,0.0017754388973116875,0.0009450756479054689,0.002594343153759837
1761470278294170400,6.81517041015625,0.0008627736242488027,0.00009579351171851158,0.0001916391047416255
1761470278304146200,6.825146240234375,-0.00018282918608747423,-0.0016706357710063457,-0.0012491241795942187
1761470278314123500,6.83512353515625,0.0011309081455692649,-0.0000929790548980236,0.0008246793877333403
1761470278324099300,6.845099365234375,0.000049611786380410194,0.00037434278056025505,0.0009114418644458055
1761470278334076400,6.855076416015625,0.00025147938868030906,-0.00246085855178535,0.003054221160709858
1761470278344052200,6.86505224609375,-0.0013136829948052764,0.001939999172464013,0.002921144710853696
1761470278354029300,6.875029296875,0.0003569179098121822,-0.00013966322876513004,0.0008438791264779866
1761470278364005400,6.88500537109375,-0.0027112863026559353,-0.0012788341846317053,-0.0004831432306673378
1761470278373982500,6.894982421875,-0.0012739781523123384,0.0009715368505567312,-0.0021071387454867363
1761470278383958300,6.904958251953125,-0.0018024109303951263,0.002156211528927088,-0.00003212958836229518
1761470278393935000,6.91493505859375,-0.0024242589715868235,-0.0008917762897908688,0.0010387274669483304
1761470278403911400,6.924911376953125,-0.0012934200931340456,0.0011800022330135107,-0.0006315515493042767
1761470278413888300,6.93488818359375,-0.0009693134343251586,0.0010551000013947487,-0.0017604655586183071
1761470278423864300,6.9448642578125,-0.001050904393196106,-0.0005724262446165085,0.0019638303201645613
1761470278433841200,6.954841064453125,-0.0006271955207921565,-0.0017591307405382395,-0.0022263871505856514
1761470278443817500,6.9648173828125,-0.0021464170422405005,0.0035246601328253746,-0.002078972989693284
1761470278453794300,6.974794189453125,0.0032230482902377844,-0.0017883460968732834,-0.0008211620151996613
1761470278463770400,6.984770263671875,-0.001091086771339178,0.0007047103717923164,0.0010658750543370843
1761470278473746200,6.99474609375,-0.0013725829776376486,-0.0010567044373601675,-0.0013906246749684215
1761470278483723500,7.0047236328125,-0.0007324134930968285,-0.0006843541050329804,0.0013230382464826107
1761470278493699300,7.01469921875,-0.0019798381254076958,0.0008909057360142469,-0.001698850654065609
1761470278503676400,7.024676513671875,-0.0003524440398905426,0.00018671131692826748,-0.0011075471993535757
1761470278513652200,7.03465234375,0.0007564962143078446,-0.001749406917952001,0.0009484131587669253
1761470278523629300,7.04462939453125,-0.0006946852663531899,0.002329976297914982,-0.0005058193346485496
1761470278533605400,7.05460546875,0.0002699117176234722,0.0015304952394217253,-0.0008874504128471017
1761470278543582200,7.064582275390625,0.0020360671915113926,-0.0021182268392294645,-0.00245765526778996
1761470278553558300,7.074558349609375,0.000999565003439784,-0.000730453641153872,-0.001297848648391664
1761470278563535000,7.08453515625,-0.0007631620392203331,-0.00024809350725263357,0.002477882895618677
1761470278573511400,7.094511474609375,-0.00377626228146255,-0.00046700541861355305,-0.0030183489434421062
1761470278583488300,7.10448828125,0.00015089791850186884,-0.0014866983983665705,0.0026393248699605465
1761470278593464300,7.11446435546875,0.0013256182428449392,-0.0009564630454406142,0.002773548010736704
1761470278603441200,7.124441162109375,-0.001959464745596051,-0.0006338979583233595,-0.000003865061444230378
1761470278613417500,7.13441748046875,0.0014379298081621528,0.00046012853272259235,-0.0005929562612436712
1761470278623394300,7.144394287109375,-0.0014256618451327085,-0.0007010846165940166,0.0014120392734184861
1761470278633370400,7.154370361328125,0.001072116894647479,0.0005423452239483595,0.001102313632145524
1761470278643346400,7.164346435546875,0.0006247730925679207,-0.0022358258720487356,-0.0020560715347528458
1761470278653323500,7.174323486328125,-0.0005629966617561877,0.00046675000339746475,0.000459816656075418
1761470278663299300,7.18429931640625,-0.0009515638230368495,0.0002687429077923298,0.0023399614728987217
1761470278673276400,7.1942763671875,-0.0007366467034444213,0.00012413342483341694,-0.0004422428901307285
1761470278683252200,7.204252197265625,0.0009122741175815463,-0.0010894181905314326,0.003184296889230609
1761470278693229300,7.214229248046875,0.0003876314149238169,0.0010829223319888115,0.000005281537596601993
1761470278703205400,7.224205322265625,0.0008202970493584871,-0.00010998500511050224,0.00037670048186555505
1761470278713182200,7.23418212890625,0.00037661439273506403,-0.002060750499367714,0.0008597978739999235
1761470278723158300,7.244158203125,-0.0006878288695588708,-0.0008962518768385053,-0.002837027423083782
1761470278733135000,7.254135009765625,0.0015713307075202465,-0.00025309843476861715,-0.000497706700116396
1761470278743111400,7.264111328125,-0.0007033746223896742,-0.001816215575672686,-0.003450236050412059
1761470278753088300,7.274088134765625,0.0003792004135902971,0.0010232466738671064,-0.0007045170059427619
1761470278763064300,7.284064208984375,-0.0009017175761982799,-0.0005634801927953959,0.0015095493290573359
1761470278773041200,7.294041259765625,-0.004058362450450659,0.0006442633457481861,-0.00010272836516378447
1761470278783017500,7.304017578125,0.0006339193787425756,0.00005547958426177502,0.0005622460157610476
1761470278792994300,7.313994384765625,0.0006786605226807296,-0.00035491352900862694,0.0035479157231748104
1761470278802970400,7.323970458984375,-0.001999523490667343,-0.0015423548175022006,-0.001997624756768346
1761470278812946400,7.333946533203125,-0.0008679463062435389,-0.0015151905827224255,-0.00038667855551466346
1761470278822923500,7.343923583984375,0.001433003693819046,0.00018712040036916733,-0.0008783303201198578
1761470278832899000,7.353899169921875,0.00040076253935694695,-0.0009931926615536213,0.0006468620267696679
1761470278842876000,7.3638759765625,0.0002250521065434441,-0.00004863436333835125,-0.00416411692276597
1761470278852852200,7.373852294921875,0.0036746447440236807,-0.0005397212225943804,0.001730523887090385
1761470278862829000,7.3838291015625,0.00035413491423241794,-0.0014202367747202516,-0.00007395410648314282
1761470278872805000,7.39380517578125,0.00027557165594771504,-0.0015728359576314688,-0.0012135206488892436
1761470278882782000,7.403781982421875,-0.003105849027633667,0.0015878635458648205,-0.0008135604439303279
1761470278892758000,7.413758056640625,0.0007067323895171285,-0.000275550177320838,-0.0005648211808875203
1761470278902735000,7.423735107421875,-0.000637039658613503,0.0025896660517901182,-0.003563676495105028
1761470278912711200,7.433711181640625,-0.0005382363451644778,-0.00003621075302362442,0.0006955169374123216
1761470278922688000,7.44368798828125,0.0011648900108411908,0.00032446160912513733,0.000297454243991524
1761470278932664000,7.4536640625,0.00031187949934974313,-0.0007096438203006983,0.0025803158059716225
1761470278942641000,7.463640869140625,0.0016065454110503197,-0.0014250177191570401,-0.00015299707592930645
1761470278952617200,7.4736171875,0.00041824282379820943,0.0010514557361602783,-0.0009197210893034935
1761470278962594000,7.483593994140625,-0.0020130721386522055,-0.00039992621168494225,0.00011443813855294138
1761470278972570000,7.493570068359375,0.0009662061929702759,-0.0012462788727134466,0.002975472016260028
1761470278982546200,7.503546142578125,-0.0019795075058937073,-0.000866062706336379,-0.0023043975234031677
1761470278992523000,7.51352294921875,0.0010820624884217978,-0.0016354499384760857,0.00038273195968940854
1761470279002499000,7.5234990234375,0.0003112741687800735,0.001947909127920866,-0.0018502813763916492
1761470279012476000,7.533475830078125,-0.002049884293228388,0.0008285825606435537,0.0003255212213844061
1761470279022452200,7.5434521484375,-0.0009618449257686734,0.00021232175640761852,-0.0009795642690733075
1761470279032429000,7.553428955078125,0.0009870564099401236,-0.0019224683055654168,-0.00035585195291787386
1761470279042405000,7.563405029296875,0.0008496441878378391,-0.0011395157780498266,-0.0012685589026659727
1761470279052382000,7.5733818359375,0.0018744285916909575,0.0008671761024743319,0.002214056672528386
1761470279062358000,7.58335791015625,0.0014359864871948957,0.00003538280725479126,-0.0002515849191695452
1761470279072335000,7.593335205078125,-0.003224811516702175,-0.0005643609911203384,0.0018126312643289566
1761470279082311200,7.603311279296875,-0.0007192264893092215,0.0013692984357476234,-0.0010399501770734787
1761470279092288000,7.6132880859375,-0.00046143250074237585,-0.0010738854762166739,0.0007584824925288558
1761470279102264000,7.62326416015625,0.0009041005978360772,-0.0036212827544659376,-0.0020589539781212807
1761470279112241200,7.6332412109375,0.0004279274435248226,-0.00022308924235403538,0.002565358765423298
1761470279122217200,7.64321728515625,-0.0005571622168645263,0.00045411777682602406,-0.004789545200765133
1761470279132194000,7.653194091796875,0.0007557761273346841,0.00031403545290231705,0.0016744796885177493
1761470279142169900,7.663169921875,0.001429343712516129,0.002284746617078781,-0.0005675007705576718
1761470279152146200,7.673146240234375,0.00016088009579107165,0.000707089900970459,0.0015252112643793225
1761470279162123000,7.683123046875,0.0006539266905747354,-0.0004336878191679716,-0.0013206030707806349
1761470279172099000,7.69309912109375,0.0011950810439884663,0.001023327698931098,-0.0013946389080956578
1761470279182076000,7.703075927734375,0.0019676911178976297,0.003537896554917097,0.0003105580108240247
1761470279192052200,7.71305224609375,-0.0011628548381850123,0.0013841979671269655,-0.0013307480840012431
1761470279202029000,7.723029052734375,-0.00038270369987003505,0.0005630066152662039,-0.0007693924708291888
1761470279212005000,7.733005126953125,0.00026764022186398506,-0.000022356398403644562,0.001127577037550509
1761470279221982000,7.74298193359375,0.004267700482159853,-0.0015136371366679668,0.002118669217452407
1761470279231958300,7.752958251953125,0.00038534437771886587,0.0014893433544784784,-0.000897893332876265
1761470279241935000,7.76293505859375,0.0006829983904026449,-0.0006125537911430001,-0.003924036398530006
1761470279251911200,7.7729111328125,0.0010768799111247063,-0.00004263734444975853,0.0012797805247828364
1761470279261888000,7.782887939453125,0.0019480034243315458,-0.0009327627485617995,0.0011622232850641012
1761470279271864000,7.792864013671875,-0.00027067598421126604,-0.0007609887979924679,0.0012945825001224875
1761470279281841200,7.802841064453125,-0.0005962569266557693,-0.0015916230622678995,-0.0019957185722887516
1761470279291817000,7.81281689453125,-0.0002050385228358209,0.0007719323039054871,-0.0018431195057928562
1761470279301793000,7.82279296875,0.0018859675619751215,-0.0003991748671978712,0.0008360665524378419
1761470279311769900,7.832769775390625,0.0016790400259196758,-0.0004612264456227422,0.0007654927903786302
1761470279321746200,7.84274609375,0.0011379155330359936,0.001186491921544075,-0.001629944541491568
1761470279331723000,7.852722900390625,0.0009171394631266594,0.0012671856675297022,-0.000011541618732735515
1761470279341699000,7.862698974609375,0.000534905877429992,0.0019069912377744913,-0.0019996915943920612
1761470279351676000,7.872676025390625,0.000018785271095111966,-0.0016030550468713045,0.0034033292904496193
1761470279361652200,7.88265234375,-0.00011369172716513276,-0.0006333016790449619,-0.00019218548550270498
1761470279371629000,7.892629150390625,-0.00028360140277072787,0.0005214449483901262,-0.002238025888800621
1761470279381605000,7.902605224609375,0.00005215423880144954,-0.00023138511460274458,-0.0003131382109131664
1761470279391582000,7.91258203125,-0.002603017259389162,-0.000250293524004519,-0.0008308567339554429
1761470279401558300,7.922558349609375,-0.0007692567305639386,0.003362875897437334,-0.0018653592560440302
1761470279411535000,7.93253515625,0.000018239952623844147,-0.0011882003163918853,-0.0024142367765307426
1761470279421511200,7.94251123046875,0.00015619330224581063,0.0003112000413239002,0.001706328708678484
1761470279431487000,7.952487060546875,0.000569249561522156,0.00010693562217056751,-0.0030077325645834208
1761470279441464000,7.962464111328125,-0.0022987830452620983,0.0008803773671388626,-0.0011784890666604042
1761470279451440000,7.972440185546875,-0.0020713491830974817,-0.000003525754436850548,-0.0013638450764119625
1761470279461417000,7.9824169921875,0.0004909257404506207,0.0014927205629646778,-0.0028024648781865835
1761470279471393000,7.99239306640625,-0.0001559560769237578,0.0014857964124530554,-0.0002500913687981665
1761470279481369900,8.002369873046876,0.0009717086213640869,0.0006636541802436113,-0.0007537796045653522
1761470279491346200,8.01234619140625,-0.0013409804087132215,0.0016905691009014845,-0.001860056770965457
1761470279501323000,8.022322998046874,-0.0001328524376731366,0.000029385089874267578,-0.000766395591199398
1761470279511299000,8.032299072265625,-0.0006819962291046977,0.0027599241584539413,-0.004592026583850384
1761470279521276000,8.04227587890625,0.00039722849032841623,0.00005726865492761135,0.00020320204203017056
1761470279531252200,8.052252197265625,-0.0006616443861275911,0.0018437171820551157,-0.0025001727044582367
1761470279541229000,8.06222900390625,0.0005364853423088789,0.0013221213594079018,0.0009822397259995341
1761470279551205000,8.072205078125,0.0013791094534099102,-0.0013508932897821069,0.0004655865195672959
1761470279561182000,8.082181884765625,-0.0015427512116730213,0.001011100597679615,-0.00021676563483197242
1761470279571158300,8.092158203125,-0.00003486929927021265,-0.0009399311384186149,-0.0023931008763611317
1761470279581135000,8.102135009765625,0.00032803311478346586,0.0008722941856831312,0.0035583183635026217
1761470279591111200,8.112111083984376,0.0005890228785574436,0.0009617763571441174,0.001842443598434329
1761470279601087000,8.1220869140625,-0.0028567020781338215,0.00017558131366968155,-0.0003584190271794796
1761470279611064000,8.13206396484375,-0.0006526700453832746,0.0003779814578592777,-0.0009033018141053617
1761470279621040000,8.1420400390625,0.0006136898300610483,0.0003737569786608219,-0.0008652032120153308
1761470279631017000,8.152016845703125,-0.000312291260343045,-0.00008803512901067734,0.0038573804777115583
1761470279640993000,8.161992919921875,0.0013323707971721888,0.0014778559561818838,-0.0007674577063880861
1761470279650969900,8.171969970703126,0.0016090732533484697,-0.0014244569465517998,-0.0009847716428339481
1761470279660946200,8.1819462890625,0.0009326547151431441,-0.0006329582538455725,-0.0032931743189692497
1761470279670923000,8.191923095703125,-0.0009193075820803642,0.0015902486629784107,-0.000691266031935811
1761470279680899000,8.201899169921875,-0.0021322788670659065,0.0013136256020516157,-0.0024794000200927258
1761470279690876000,8.2118759765625,-0.001351706450805068,0.0008939113467931747,-0.003987015690654516
1761470279700852200,8.221852294921876,0.00008139724377542734,0.0008696704171597958,-0.001104217953979969
1761470279710829000,8.2318291015625,0.0008103044237941504,-0.0012198457261547446,0.0018811856862157583
1761470279720805000,8.24180517578125,-0.0015678047202527523,-0.00032098940573632717,-0.002545485971495509
1761470279730781200,8.25178125,0.00008122448343783617,-0.0031247653532773256,0.0019808225333690643
1761470279740758300,8.26175830078125,-0.0005188747309148312,0.0015156809240579605,-0.003038704162463546
1761470279750734000,8.271734130859375,-0.003266724292188883,-0.0014388300478458405,0.00015921979502309114
1761470279760711000,8.2817109375,-0.0016284601297229528,0.0016146970447152853,0.0003213862655684352
1761470279770688000,8.29168798828125,-0.0028386004269123077,0.00023571215569972992,-0.000794744526501745
1761470279780664000,8.3016640625,-0.0017321758205071092,-0.0016404937487095594,-0.0008198487921617925
1761470279790641200,8.31164111328125,-0.0002075161028187722,-0.0005736313760280609,-0.00010239319817628711
1761470279800617000,8.321616943359375,-0.0020596943795681,0.0014941354747861624,-0.0037023737095296383
1761470279810593000,8.331593017578125,-0.0007318422431126237,0.0018310253508388996,-0.0009726335993036628
1761470279820570000,8.341570068359376,-0.000981602817773819,0.0003822888247668743,0.0012321473332121968
1761470279830546400,8.35154638671875,-0.0011025101412087679,-0.000996696064248681,0.002341620158404112
1761470279840523500,8.3615234375,-0.0019539357163012028,0.0003714363556355238,-0.0018098566215485334
1761470279850499300,8.371499267578125,0.0016786159249022603,-0.0019734769593924284,0.00013478354958351701
1761470279860476400,8.381476318359375,-0.0030296919867396355,0.001494330819696188,-0.002861838787794113
1761470279870452500,8.391452392578126,0.0006907439674250782,0.0024141864851117134,-0.0005486170994117856
1761470279880429600,8.4014296875,0.0007804716005921364,0.0006609184201806784,-0.0010932503500953317
1761470279890405400,8.4114052734375,0.0012891353107988834,0.001577312359586358,0.0014013326726853848
1761470279900382500,8.421382568359375,-0.0010157179785892367,-0.0005289360415190458,0.00010972878953907639
1761470279910358500,8.431358642578125,-0.00023141701240092516,0.0008151612710207701,0.000775785360019654
1761470279920335600,8.441335693359376,-0.0009407988982275128,0.00031398958526551723,-0.0014605455799028277
1761470279930311400,8.4513115234375,0.0007380577735602856,-0.001483377767726779,-0.000711664673872292
1761470279940287200,8.461287353515624,-0.002606287132948637,0.0022405595518648624,-0.000698947929777205
1761470279950264600,8.4712646484375,0.00013064348604530096,0.0007193619385361671,0.0015088125364854932
1761470279960240400,8.481240478515625,-0.00201434176415205,0.0008311164565384388,0.00046838418347761035
1761470279970217500,8.491217529296875,0.0005295097944326699,-0.00041257974226027727,-0.00044108531437814236
1761470279980193300,8.501193359375,-0.00021110405214130878,-0.0003227551933377981,-0.0013411459513008595
1761470279990170400,8.51117041015625,-0.0005400044610723853,-0.0004191616317257285,-0.000727021018974483
1761470280000146400,8.521146484375,-0.002923950320109725,0.0020675568375736475,-0.00344707234762609
1761470280010123500,8.53112353515625,-0.0010778470896184444,-0.0008579253917559981,-0.0027338776271790266
1761470280020099300,8.541099365234375,0.0010098927887156606,0.0006961128674447536,0.0013176088687032461
1761470280030076400,8.551076416015626,-0.00048414061893709004,0.003436239203438163,-0.0008376874029636383
1761470280040052500,8.561052490234376,-0.0008979997364804149,-0.00037517515011131763,0.0007665176526643336
1761470280050029600,8.571029541015625,-0.0005065150326117873,0.000251200282946229,-0.0018303308170288801
1761470280060005400,8.58100537109375,0.002820491325110197,-0.0015652540605515242,0.0030084855388849974
1761470280069982500,8.590982421875,-0.00014627029304392636,0.0008297266904264688,-0.00043125328375026584
1761470280079958500,8.60095849609375,0.0026386131066828966,0.00013728067278862,0.002688023494556546
1761470280089935600,8.610935546875,0.0008148805936798453,0.001068055396899581,-0.0038316610734909773
1761470280099911400,8.620911376953124,-0.000893165182787925,0.00020852964371442795,0.0018217625329270959
1761470280109887500,8.630887451171875,0.000022429594537243247,0.0030996573623269796,-0.00013086707622278482
1761470280119864600,8.640864501953125,0.0016034046420827508,0.0023232807870954275,-0.0014638315187767148
1761470280129840400,8.65084033203125,0.0003184294910170138,0.0022873280104249716,0.0005500508705154061
1761470280139817500,8.6608173828125,0.00043006899068132043,0.0013213332276791334,0.0001501157385064289
1761470280149793300,8.670793212890626,-0.0027793063782155514,0.0004539415240287781,0.0015575962606817484
1761470280159770400,8.680770263671874,0.00029311468824744225,-0.0009700279915705323,-0.0004818436282221228
1761470280169746400,8.690746337890625,0.0005554360686801374,0.000608161324635148,-0.0012491003144532442
1761470280179723500,8.7007236328125,0.00025994720635935664,-0.0018359089735895395,0.0016026559751480818
1761470280189699300,8.71069921875,0.0007374520064331591,-0.00017169956117868423,-0.0006125613581389189
1761470280199676400,8.720676513671876,0.0008339582709595561,0.0009807588066905737,0.0020529907196760178
1761470280209652500,8.730652587890624,-0.001433190773241222,-0.0013250058982521296,-0.00008898976375348866
1761470280219629600,8.740629638671875,0.0028162337839603424,0.0018272248562425375,0.0015208140248432755
1761470280229605400,8.75060546875,-0.0010189844761043787,0.0011577063705772161,0.00014395972539205104
1761470280239581400,8.76058154296875,-0.0007604400161653757,0.0014453900512307882,-0.0007602877449244261
1761470280249558500,8.77055859375,-0.0019138550851494074,-0.0009408022742718458,0.0010061869397759438
1761470280259534300,8.780534423828126,-0.004219661466777325,0.0017654434777796268,0.0005586102488450706
1761470280269511400,8.790511474609374,-0.0006177361938171089,0.00040510110557079315,0.0004041469073854387
1761470280279487500,8.800487548828125,-0.0014623523456975818,0.0020318462047725916,0.0016106154071167111
1761470280289464600,8.810464599609375,-0.0017840623622760177,0.0013245106674730778,0.000005794543540105224
1761470280299440400,8.8204404296875,0.0007334987749345601,0.0015322898980230093,-0.0006760628311894834
1761470280309417500,8.83041748046875,-0.002503040712326765,0.0007708922494202852,0.0020390297286212444
1761470280319393300,8.840393310546874,0.0018303090473636985,-0.00044050056021660566,0.002056530676782131
1761470280329370600,8.85037060546875,0.000394865230191499,0.0013635247014462948,0.00040936560253612697
1761470280339346400,8.860346435546875,-0.0002553267404437065,-0.00004981318488717079,0.001087161130271852
1761470280349323500,8.870323486328125,0.0009175294544547796,0.0010178480297327042,-0.0012114130659028888
1761470280359299300,8.88029931640625,0.00029451772570610046,0.002451197011396289,0.0019221046241000295
1761470280369276400,8.8902763671875,0.0022548704873770475,0.0001417039893567562,0.0008834716863930225
1761470280379252500,8.90025244140625,-0.0010558130452409387,-0.0025908539537340403,0.0024430735502392054
1761470280389228300,8.910228271484375,-0.0016832537949085236,0.0007436899468302727,0.00002146128099411726
1761470280399205400,8.920205322265625,0.0010026416275650263,-0.00020964909344911575,0.0033226837404072285
1761470280409181400,8.930181396484375,-0.0005268117529340088,0.001581326825544238,-0.002449185121804476
1761470280419158500,8.940158447265626,-0.00271392147988081,-0.00033777323551476,-0.0006690381560474634
1761470280429134300,8.95013427734375,-0.0006041651940904558,-0.000030178111046552658,-0.0026448373682796955
1761470280439111400,8.960111328125,0.0012732724426314235,-0.0024244661908596754,-0.0008837112691253424
1761470280449087500,8.97008740234375,-0.0003725611022673547,0.0011966340243816376,0.0014103356515988708
1761470280459064600,8.980064697265625,-0.0030814423225820065,-0.0014033273328095675,-0.0029908085707575083
1761470280469040400,8.990040283203125,0.000222208967898041,-0.0002251449041068554,0.0005533262155950069
1761470280479017500,9.000017578125,0.0006040377193130553,0.0014813172165304422,0.0030462569557130337
1761470280488993300,9.0099931640625,0.000621081970166415,-0.00010086665861308575,-0.00027310714358463883
1761470280498970600,9.019970703125,0.0008557839319109917,-0.0015565052162855864,-0.0026641201693564653
1761470280508946400,9.029946533203125,-0.0018771520117297769,-0.0012867270270362496,0.0021455485839396715
1761470280518923500,9.039923583984375,-0.002088143490254879,0.0009899616707116365,-0.001775433775037527
1761470280528899300,9.0498994140625,0.00003626011312007904,-0.0015525581547990441,0.0004381857579573989
1761470280538875400,9.05987548828125,0.0002384150866419077,-0.0005682031624019146,0.0023283481132239103
1761470280548852500,9.0698525390625,0.00010818653390742838,-0.0007524939719587564,0.0013341900194063783
1761470280558828300,9.079828369140625,-0.0001924865646287799,0.0011905315332114697,-0.0011188730131834745
1761470280568805400,9.089805419921875,-0.0009291169699281454,0.0010997175704687834,0.00035811617271974683
1761470280578781400,9.099781494140625,-0.000531330588273704,0.0002348588313907385,-0.001667803036980331
1761470280588758500,9.109758544921876,-0.0003933788393624127,0.0017078532837331295,0.0016243966529145837
1761470280598734300,9.119734375,0.0024390085600316525,0.0008120555430650711,0.0004629214818123728
1761470280608711400,9.12971142578125,0.0013172852341085672,0.0015942258760333061,-0.0020071605686098337
1761470280618687500,9.1396875,0.0007347469800151885,-0.00011116662062704563,0.0011342151556164026
1761470280628664600,9.14966455078125,-0.0009345223661512136,-0.0016403535846620798,0.0013203701237216592
1761470280638640400,9.159640380859376,-0.001863495446741581,-0.0005097037646919489,-0.0013402244076132774
1761470280648617500,9.169617431640624,0.0005674379062838852,-0.0005318080075085163,-0.0017607376212254167
1761470280658593500,9.179593505859375,-0.001786055276170373,0.0012024568859487772,-0.001306853722780943
1761470280668569300,9.1895693359375,-0.0008275836589746177,-0.0022708377800881863,-0.003428327850997448
1761470280678546400,9.19954638671875,0.0005540868151001632,0.0018839449621737003,-0.00003466055204626173
1761470280688522200,9.209522216796875,0.0011402484960854053,0.002497004810720682,0.000460687413578853
1761470280698499300,9.219499267578126,-0.000867346883751452,-0.0007628424791619182,-0.001213764538988471
1761470280708475400,9.229475341796874,0.0006250886362977326,0.0004901748616248369,-0.001973031787201762
1761470280718452500,9.239452392578125,0.0009916176786646247,0.001014739042147994,0.0024746546987444162
1761470280728428300,9.24942822265625,0.0007133173057809472,-0.0014888986479490995,0.0032973052002489567
1761470280738405400,9.2594052734375,0.0007866992382332683,-0.0004339255392551422,0.00175005872733891
1761470280748381400,9.26938134765625,0.0027891299687325954,-0.001713041914626956,0.001511972164735198
1761470280758358500,9.279358642578124,0.0016835446003824472,0.0010693466756492853,-0.0004068299022037536
1761470280768334300,9.289334228515624,-0.0007876025047153234,-0.0014667814830318093,0.0014275554567575455
1761470280778311400,9.2993115234375,-0.0009019590797834098,-0.0009722147369757295,0.001993115060031414
1761470280788287500,9.30928759765625,0.0021042171865701675,-0.001530147041194141,0.0015835209051147103
1761470280798264600,9.3192646484375,-0.000205341842956841,0.001515649724751711,-0.0005778842605650425
1761470280808240400,9.329240478515626,0.00196300377137959,-0.0024396772496402264,-0.0009270247537642717
1761470280818216400,9.339216552734374,0.0007481008651666343,0.001091918209567666,-0.0014204969629645348
1761470280828193500,9.349193603515625,-0.0015771050238981843,0.00014969194307923317,0.00006821008719271049
1761470280838169300,9.35916943359375,-0.0009971449617296457,-0.0018633701838552952,0.003073659259825945
1761470280848146200,9.369146240234375,-0.001200077822431922,-0.0015656286850571632,0.0003343318239785731
1761470280858122200,9.379122314453125,-0.0010384980123490095,-0.00019077747128903866,-0.0008654795819893479
1761470280868099300,9.389099365234374,0.0032715618144720793,-0.00009543634951114655,-0.0011027671862393618
1761470280878075100,9.3990751953125,0.0006758194649592042,0.0008059521205723286,0.0006646197289228439
1761470280888052200,9.40905224609375,0.0006340077961795032,-0.00043854303658008575,-0.0009758874657563865
1761470280898028000,9.419028076171875,-0.001547929598018527,-0.0002460454124957323,-0.0007637652452103794
1761470280908005000,9.429005126953125,-0.00016042269999161363,-0.000020475825294852257,0.0007382576004602015
1761470280917981200,9.438981201171876,-0.0013886691303923726,0.002132392255589366,-0.0006212230073288083
1761470280927958300,9.448958251953124,-0.0017777570756152272,-0.000385360443033278,0.0013620330719277263
1761470280937934000,9.45893408203125,-0.003969491925090551,0.0010051438584923744,0.0010529204737395048
1761470280947911200,9.4689111328125,0.001957372762262821,-0.0013315137475728989,-0.0001859821059042588
1761470280957887200,9.47888720703125,0.0024842156562954187,0.00022890744730830193,0.005222663749009371
1761470280967863300,9.48886328125,-0.0003579098265618086,0.001261681318283081,0.000006862872396595776
1761470280977840000,9.498840087890626,-0.0017288785893470049,0.0013828091323375702,-0.0006104285130277276
1761470280987816400,9.50881640625,-0.0017890660092234612,-0.00038073607720434666,0.0010471228742972016
1761470280997793300,9.518793212890625,-0.001543666236102581,0.0002715764567255974,-0.0015057559357956052
1761470281007769300,9.528769287109375,-0.0026355620939284563,0.0016502949874848127,-0.0032618441618978977
1761470281017746200,9.53874609375,-0.00005494261858984828,0.0017233577091246843,0.00015686902042943984
1761470281027722200,9.54872216796875,0.001115250401198864,0.0005331907887011766,-0.001319853705354035
1761470281037699300,9.55869921875,0.0005018489900976419,-0.0028771429788321257,-0.0015881768194958568
1761470281047675100,9.568675048828124,0.0018028032500296831,0.0013865779619663954,-0.002345047425478697
1761470281057652200,9.57865234375,0.0030203419737517834,-0.0007976817432790995,0.003849645843729377
1761470281067628000,9.5886279296875,0.0008514634682796896,0.0007884970400482416,0.0006653042510151863
1761470281077605000,9.598605224609376,-0.0004098807112313807,0.0007913026493042707,-0.0009148025419563055
1761470281087581200,9.608581298828126,-0.0009004349703900516,0.001805966952815652,0.0003920106100849807
1761470281097557200,9.61855712890625,-0.0019995439797639847,-0.0007123310351744294,-0.0008075550431385636
1761470281107534000,9.6285341796875,-0.0009071153472177684,-0.0006984826177358627,0.000014829056453891098
1761470281117510400,9.638510498046875,-0.0007794213015586138,0.00019776122644543648,0.0013170501915737987
1761470281127487200,9.6484873046875,0.00033457891549915075,0.000869410578161478,-0.0004651371855288744
1761470281137463300,9.65846337890625,-0.00011048431042581797,0.004960369318723679,-0.0019646822474896908
1761470281147440000,9.668440185546874,0.0016826220089569688,0.00005429377779364586,0.003677490632981062
1761470281157416400,9.67841650390625,-0.00001837831223383546,-0.0025554904714226723,0.0005467662704177201
1761470281167393300,9.688393310546875,-0.002047174610197544,0.0039085340686142445,0.002445600228384137
1761470281177369000,9.698369140625,0.0003371452330611646,-0.0014103183057159185,0.00001754357072059065
1761470281187346200,9.70834619140625,0.00002715329173952341,0.00011753709986805916,0.0008252803236246109
1761470281197322200,9.718322265625,-0.0013574284967035055,-0.0009170245612040162,0.00024377118097618222
1761470281207298300,9.72829833984375,-0.0015529044903814793,-0.0020669775549322367,0.002378827426582575
1761470281217275100,9.738275146484375,0.0003789509064517915,0.0003368118777871132,-0.0006295732455328107
1761470281227251200,9.748251220703125,-0.0007084177923388779,1.8835999071598053e-7,-0.0026410589925944805
1761470281237228000,9.75822802734375,-0.00024252093862742186,-0.0004569891607388854,-0.00028064363868907094
1761470281247204400,9.768204345703126,-0.0028316460084170103,0.0016785997431725264,0.0003305518184788525
1761470281257181200,9.77818115234375,0.002488926984369755,0.0012291267048567533,-0.0023693027906119823
1761470281267157200,9.7881572265625,-0.00018115848070010543,0.0007974284235388041,0.002398021752014756
1761470281277134000,9.798134033203125,-0.0016388394869863987,-0.0007418581517413259,0.002133273286744952
1761470281287110400,9.8081103515625,-0.001943771494552493,-0.0024614613503217697,0.001354831038042903
1761470281297087200,9.818087158203125,0.001752505893819034,0.0012525331694632769,-0.0011518459068611264
1761470281307063300,9.828063232421876,0.0008622111054137349,0.003100500674918294,-0.0027854288928210735
1761470281317040000,9.8380400390625,0.0023621662985533476,-0.00018677767366170883,-0.000048194327973760664
1761470281327016200,9.84801611328125,-0.00024347053840756416,-0.0028661841060966253,-0.0013507463736459613
1761470281336993300,9.8579931640625,-0.0034785508178174496,0.000006958376616239548,-0.0001890373241622001
1761470281346969000,9.867968994140625,-0.005165130831301212,0.0019800944719463587,-0.0014047704171389341
1761470281356945200,9.877945068359375,-0.0031582415103912354,-0.0021134146954864264,0.0005262888735160232
1761470281366922200,9.887922119140624,0.0008828389691188931,0.001419534906744957,-0.00033391211763955653
1761470281376898300,9.897898193359374,0.0016408348456025124,0.0005369349382817745,-0.0017252577235922217
1761470281386875100,9.907875244140625,0.002749242354184389,-0.0010804027551785111,0.0019435129361227155
1761470281396851200,9.917851318359375,-0.00010637339437380433,-0.0002928427420556545,-0.0017613725503906608
1761470281406828300,9.927828369140625,0.0007258644327521324,-0.002709927735850215,-0.0011469812598079443
1761470281416804400,9.937804443359376,-0.003457140875980258,-0.00048638880252838135,-0.0015357757220044732
1761470281426781200,9.94778125,-0.0023577881511300802,0.0007301431614905596,-0.0016074146842584014
1761470281436757200,9.95775732421875,-0.0012591216946020722,0.0009046497289091349,0.0002825711271725595
1761470281446734000,9.967734130859375,-0.003252764232456684,0.001526231411844492,0.0034426781348884106
1761470281456710400,9.97771044921875,0.00079446128802374,0.0011940088588744402,-0.0004123758408240974
1761470281466687200,9.987687255859376,-0.00019570201402530074,0.0006057166028767824,0.0007503603119403124
1761470281476663000,9.9976630859375,0.0007360391900874674,-0.0001843895297497511,0.00023249333025887609
1761470281486639400,10.007639404296874,0.001558955991640687,-0.0015694996109232306,0.001240233425050974
1761470281496616200,10.0176162109375,-0.003043396631255746,-0.0002712553832679987,-0.0019090871792286634
1761470281506592300,10.02759228515625,-0.000768258236348629,0.0027490356005728245,-0.0015295867342501879
1761470281516569000,10.037569091796875,-0.0008898930973373353,-0.000970585155300796,-0.0004637072270270437
1761470281526545400,10.04754541015625,-0.00393415242433548,-0.0008310355478897691,-0.0004493261512834579
1761470281536522200,10.057522216796874,-0.0000843611778691411,0.0012920922599732876,-0.0013893472496420145
1761470281546498300,10.067498291015625,0.0019348475616425276,0.00042017316445708275,-0.003080188063904643
1761470281556475100,10.07747509765625,0.000333179603330791,0.00019808532670140266,0.0026855524629354477
1761470281566451200,10.087451171875,0.00015714464825578034,-0.0020863742101937532,-0.00010490755084902048
1761470281576428300,10.09742822265625,0.0009251359151676297,-0.0003245073603466153,-0.0018227084074169397
1761470281586404400,10.107404296875,-0.00047302362509071827,-0.0005460823886096478,0.0016761525766924024
1761470281596381200,10.117381103515624,-0.005084657110273838,-0.00027474015951156616,0.00132041668985039
1761470281606357200,10.127357177734375,-0.0011429123114794493,0.0006413871888071299,0.002840548986569047
1761470281616333300,10.137333251953125,-0.0014042669208720326,0.001805570675060153,0.0014351361896842718
1761470281626310400,10.147310302734375,0.002129481639713049,0.0029406098183244467,0.0018364745192229748
1761470281636286200,10.1572861328125,0.00045622565085068345,0.002356939949095249,-0.0011759183835238218
1761470281646263000,10.167262939453124,-0.00014351820573210716,0.003453895915299654,0.002604438690468669
1761470281656239400,10.1772392578125,-0.000341431878041476,-0.00421221274882555,0.001256954506970942
1761470281666216200,10.18721630859375,-0.0029499982483685017,0.0014627173077315092,-0.001066653523594141
1761470281676192300,10.197192138671875,-0.000598022888880223,-0.0014129182090982795,-0.0021420400589704514
1761470281686169000,10.207169189453126,-0.0021226825192570686,0.0007218716200441122,-0.000029887043638154864
1761470281696145400,10.2171455078125,0.0011374348541721702,0.0007239221595227718,-0.0018707176204770803
1761470281706122200,10.227122314453124,0.0015438331756740808,-0.0002875464269891381,0.0036295088939368725
1761470281716098300,10.237098388671875,-0.0012502676108852029,0.0003804189618676901,0.000050726688641589135
1761470281726075100,10.2470751953125,-0.0003599729388952255,0.0010320944711565971,0.0029450501315295696
1761470281736051200,10.25705126953125,-0.002168993465602398,0.0030114708933979273,-0.0013769345823675394
1761470281746027300,10.26702734375,-0.00045365141704678535,-0.0013848752714693546,-0.0029295573476701975
1761470281756004400,10.27700439453125,0.002422961639240384,-0.00005014822818338871,-0.0006582664791494608
1761470281765980200,10.286980224609374,-0.0007461999775841832,0.0005573187954723835,-0.0006819686386734247
1761470281775957200,10.296957275390625,-0.002910710172727704,0.0004675139207392931,-0.0014148128684610128
1761470281785933300,10.306933349609375,-0.001717347651720047,0.00027709780260920525,0.0002722996287047863
1761470281795910100,10.31691015625,0.0006978086894378066,0.0016349893994629383,0.0010042929789051414
1761470281805886200,10.32688623046875,0.000239212327869609,-0.0013874319847673178,0.001270875334739685
1761470281815863000,10.336863037109374,0.00039674999425187707,0.0004207694437354803,-0.0009707447607070208
1761470281825839400,10.34683935546875,-0.0001073863822966814,-0.00016965321265161037,0.0017406195402145386
1761470281835817000,10.35681689453125,-0.0014782813377678394,0.0011907313019037247,-0.0003667453129310161
1761470281845792800,10.366792724609375,-0.0006636204198002815,0.0000333213247358799,-0.002117507392540574
1761470281855769900,10.376769775390626,0.0004544567782431841,0.0022193053737282753,-0.000050889619160443544
1761470281865745700,10.38674560546875,-0.0018185512162745,0.0010312690865248442,-0.0010802014730870724
1761470281875722000,10.396721923828125,-0.002282491885125637,0.001992490841075778,0.0015779052628204226
1761470281885698800,10.40669873046875,0.00037720694672316313,-0.0019183612894266844,0.0035606285091489553
1761470281895674600,10.416674560546875,0.00015636745956726372,-0.00012351758778095245,0.0019012539414688945
1761470281905651700,10.426651611328126,0.0032786575611680746,-0.000889442628249526,0.0012133595300838351
1761470281915627800,10.436627685546876,-0.0003989241668023169,-0.0008597985142841935,-0.0006630804855376482
1761470281925604900,10.44660498046875,0.00004688900662586093,0.0032614432275295258,-0.0001541503588669002
1761470281935580700,10.45658056640625,0.0009981123730540276,0.0022774902172386646,-0.003239497309550643
1761470281945557800,10.466557861328125,0.000045765889808535576,-0.0004890013951808214,-0.00102933996822685
1761470281955533800,10.476533935546875,0.002736054826527834,-0.0006349084433168173,0.003603215329349041
1761470281965511000,10.486510986328126,0.0020007560960948467,-0.00020613963715732098,-0.001800072262994945
1761470281975486700,10.49648681640625,0.0002921101404353976,0.001161287073045969,0.0013908878900110722
1761470281985463800,10.5064638671875,-0.0029923664405941963,-0.00011037243530154228,-0.000011266369256190956
1761470281995439900,10.51643994140625,-0.0004109771689400077,-0.00035629759076982737,-0.0008475835202261806
1761470282005416000,10.526416015625,0.002078545745462179,-0.0007584348786622286,-0.0014473273186013103
1761470282015392800,10.536392822265626,-0.00012883020099252462,0.0007362526375800371,0.00026056752540171146
1761470282025368800,10.546368896484376,-0.00009554071584716439,-0.00007627787999808788,-0.001041185692884028
1761470282035346000,10.556345947265624,0.0009602264617569745,0.0007700091227889061,-0.00038744183257222176
1761470282045321700,10.56632177734375,0.00017086553270928562,0.0014371308498084545,0.000027745001716539264
1761470282055298800,10.576298828125,0.0030275173485279083,-0.0009914521360769868,-0.00027219002367928624
1761470282065274600,10.586274658203125,-0.0023741722106933594,0.0011089830659329891,-0.0005883072735741735
1761470282075251700,10.596251708984376,-0.0008471522014588118,0.00246675917878747,-0.0012938835425302386
1761470282085227800,10.606227783203124,-0.0017638123827055097,0.0014528939500451088,0.00015381078992504627
1761470282095204900,10.616204833984375,-0.0013959684874862432,-0.0003332422347739339,-0.0008177749114111066
1761470282105180700,10.6261806640625,-0.0003517430741339922,0.00014665932394564152,-0.0011181795271113515
1761470282115157800,10.63615771484375,0.00015676976181566715,0.0008202141616493464,-0.0011416601482778788
1761470282125133800,10.6461337890625,0.000991937005892396,-0.001164639717899263,0.0013939355267211795
1761470282135110000,10.65610986328125,0.001083566341549158,-0.0012813229113817215,0.0009216964244842529
1761470282145086700,10.666086669921874,0.0010374935809522867,-0.0011984986485913396,0.00439312681555748
1761470282155063000,10.67606298828125,-0.002430033404380083,0.0009635561145842075,-0.0026020952500402927
1761470282165039900,10.686039794921875,0.0008230178500525653,0.00006127730011940002,0.001317278714850545
1761470282175016000,10.696015869140625,-0.0017179264687001705,0.0011976442765444517,0.001015637768432498
1761470282184992800,10.70599267578125,-0.0009320276440121233,-0.0012037280248478055,-0.00044084503315389156
1761470282194968600,10.715968505859376,0.0007067745318636298,0.0023694452829658985,-0.0003409029741305858
1761470282204946000,10.72594580078125,0.00013312965165823698,-0.0007568396395072341,0.0021451578941196203
1761470282214921700,10.735921630859375,0.000980296405032277,0.000029493356123566628,0.001196558470837772
1761470282224898800,10.74589892578125,0.0005704358918592334,-0.0008197887800633907,0.0020423782989382744
1761470282234874600,10.75587451171875,0.0008032905170693994,0.0003548788372427225,0.0030483673326671124
1761470282244851700,10.765851806640624,-0.0005669058882631361,-0.0018994868732988834,-0.0020204270258545876
1761470282254827800,10.775827880859374,0.0021581188775599003,-0.0006469213403761387,0.0016327286139130592
1761470282264803800,10.785803955078125,-0.0017761689377948642,-0.00015077437274158,-0.00025358839775435627
1761470282274780700,10.79578076171875,0.000948542554397136,0.00008820299990475178,0.0008537903195247054
1761470282284757000,10.805757080078125,-0.000764935277402401,0.0013100611977279186,-0.0016205526189878583
1761470282294733800,10.81573388671875,-0.0007516045588999987,0.0014204748440533876,-0.0014399968786165118
1761470282304710000,10.8257099609375,-0.0006986076477915049,-0.000312443939037621,0.0013733664527535439
1761470282314686700,10.835686767578125,-0.0015326857101172209,0.00019081123173236847,-0.0008102654828689992
1761470282324663000,10.8456630859375,0.0008596319239586592,-0.0008558111730962992,-0.0002675132709555328
1761470282334639900,10.855639892578125,0.000031013332773,-0.0015998324379324913,-0.003198679070919752
1761470282344615700,10.86561572265625,-0.0007101444061845541,-0.00030340568628162146,-0.0023251622915267944
1761470282354592800,10.8755927734375,0.0015882709994912148,0.0010324360337108374,-0.0012504288461059332
1761470282364568800,10.88556884765625,-0.00094838987570256,0.0009213823359459639,-0.001029386417940259
1761470282374545000,10.895544921875,0.001592918299138546,0.0008791452273726463,0.0011636040871962905
1761470282384521700,10.905521728515625,-0.0013991431333124638,0.005689613521099091,0.004063254222273827
1761470282394497800,10.915497802734375,-0.0024964744225144386,0.005224354565143585,-0.0013941642828285694
1761470282404474600,10.925474609375,0.0008868052973411977,0.00010496028698980808,-0.0012330430326983333
1761470282414451000,10.935450927734376,0.002040570368990302,-0.0016658484237268567,0.0025389993097633123
1761470282424427800,10.945427734375,-0.0008444320992566645,-0.000916701159439981,-0.002400898141786456
1761470282434403800,10.95540380859375,0.0001322290045209229,0.002450099913403392,-0.0017900802195072174
1761470282444380700,10.965380615234375,0.0006595348822884262,-0.0010317167034372687,-0.0057890829630196095
1761470282454357000,10.97535693359375,0.0009759478271007538,-0.0009350191103294492,0.004920343868434429
