time,seconds_elapsed,z,y,x
1761475319853195500,0.081195556640625,0.004424830704927444,0.004799557185277808,0.0009417378295212983
1761475319863172600,0.091172607421875,0.0023287352085113525,0.013314598079596179,-0.005552282098587602
1761475319873149400,0.1011494140625,0.0030757541835308073,-0.0044621247997914905,-0.0034947285142727194
1761475319883126500,0.11112646484375,-0.0023106150299310683,-0.007898714506460238,-0.013208002749830484
1761475319893103600,0.121103515625,0.012649638214707375,0.008622223029262386,0.0023637517229653893
1761475319903080400,0.13108056640625,0.005314473021030426,0.0007798458156757988,-0.0013171835457906126
1761475319913057500,0.1410576171875,0.003069324442744255,0.0023878267182968556,-0.0015035729633644222
1761475319923034400,0.151034423828125,0.011899696630239485,-0.006813625537604093,0.0005102876096963882
1761475319933011500,0.161011474609375,0.02103109759092331,0.0028685074951295972,-0.003096504710614681
1761475319942988300,0.17098828125,0.019684359157085416,0.0010251726210524794,-0.00922454087054357
1761475319952965400,0.18096533203125,0.01130173073709011,-0.011671056098182453,0.008177315106242894
1761475319962942700,0.190942626953125,0.0024731121152639386,0.011653875492874067,0.0032405710901133714
1761475319972919600,0.20091943359375,-0.0014139584511518477,0.015171039601240771,-0.023421901717595756
1761475319982896600,0.210896728515625,-0.011291209343075752,0.003771568698520423,-0.008652549668867141
1761475319992873500,0.22087353515625,-0.009048983374238014,-0.006482926570292329,-0.00814542213063687
1761475320002850600,0.2308505859375,-0.016534370693564414,0.005632643012798508,-0.028789821958914396
1761475320012827400,0.240827392578125,0.004561608827114105,0.02278688946639886,-0.011686218276340513
1761475320022804500,0.250804443359375,0.0015653496205806732,-0.007225609580200398,-0.022744239918049424
1761475320032781600,0.260781494140625,-0.007865911069512366,0.0023234693741047523,-0.023495734138786792
1761475320042758400,0.27075830078125,0.012930208721756934,0.003599187256701407,-0.03845425208406523
1761475320052735500,0.280735595703125,-0.010862754797935486,0.007543742468528216,-0.020520828247535972
1761475320062712300,0.29071240234375,0.006494038194417953,0.00593074803489435,-0.010994820212386548
1761475320072689400,0.300689453125,0.010236731854081154,0.00499032709209132,-0.017811697153002022
1761475320082666500,0.31066650390625,0.01502571969628334,-0.00343226744128915,0.011080014277808367
1761475320092643600,0.3206435546875,0.007093757653236389,-0.0031865125192940464,-0.002725187180191278
1761475320102621400,0.330621337890625,0.006646013885736465,0.00111761384459096,-0.019894513042736796
1761475320112598500,0.3405986328125,-0.00023906945288181304,0.021835568674490786,-0.0007979271783493458
1761475320122575600,0.35057568359375,0.018315408891439438,0.008516308119508903,-0.022358126677293328
1761475320132552400,0.360552490234375,-0.004579729005694389,-0.003271896668494446,-0.016244849695079028
1761475320142529500,0.370529541015625,0.010534838017821312,0.0071642125197191485,-0.00842915270915255
1761475320152506600,0.380506591796875,0.015321487772464752,-0.007946792573531274,-0.009393449430353938
1761475320162483500,0.3904833984375,0.02100830123722553,-0.0020475733297062107,-0.01400903520071879
1761475320172460500,0.40046044921875,0.003796469673514366,0.008215418626926839,-0.017449476244486867
1761475320182437400,0.410437255859375,0.00005319149196147918,0.014013138270389754,-0.013781784049794077
1761475320192414500,0.42041455078125,0.01187514671087265,-0.0014452069685416062,0.0001477379076182842
1761475320202391300,0.430391357421875,0.013821020081639289,0.016127175848872865,-0.007313227356504648
1761475320212368400,0.440368408203125,-0.003536357432603836,-0.00002120375987724401,-0.007141396187245845
1761475320222345500,0.450345458984375,0.0036480011135339736,-0.0031824282867542932,-0.01381508353119716
1761475320232322600,0.460322509765625,0.007241641691327095,0.0024119239756924798,-0.008495404612086713
1761475320242299600,0.470299560546875,-0.0011374795973300934,-0.006099162833538139,0.011273801550548523
1761475320252276500,0.4802763671875,0.003949029886722564,0.0029227555789053438,0.003314038185123354
1761475320262253600,0.490253662109375,0.01876315265893936,-0.004380365371293738,0.000013480536080896853
1761475320272230400,0.50023046875,0.0005056114345788955,-0.006664269919990328,-0.004995579797588289
1761475320282207500,0.51020751953125,0.014124971464276314,-0.008592885053635108,-0.0015942103888839482
1761475320292184600,0.5201845703125,0.017718027520179747,-0.004726187700856826,-0.0034877690505236386
1761475320302161400,0.530161376953125,0.008439327043294906,-0.00892622293178283,-0.017139131653681396
1761475320312138500,0.540138427734375,0.003799392282962799,-0.002877919781691162,-0.003564286619145423
1761475320322115300,0.550115234375,0.0011053308933973312,-0.003792148549779085,-0.00148850325839594
1761475320332092400,0.560092529296875,0.0012549684971570967,-0.0005994140689639607,-0.018544724135287106
1761475320342070500,0.570070556640625,-0.01625087757706642,0.008045406097063095,-0.020727493268158287
1761475320352047400,0.58004736328125,0.004700725036859512,0.01477399739944958,-0.012402001862879842
1761475320362024400,0.5900244140625,0.00005962123274803161,0.013282860367617104,-0.011432828037161379
1761475320372001500,0.60000146484375,0.0015554127484560011,-0.0070877269171382064,-0.022544077703449874
1761475320381978600,0.609978515625,-0.002781155151128769,-0.0028012909027485874,-0.02751465092394501
1761475320391955700,0.619955810546875,-0.0041273090630769725,-0.01030229648713721,-0.017171134227141737
1761475320401932500,0.6299326171875,0.013829787909984587,-0.011042865171772427,-0.017449147450923918
1761475320411909600,0.63990966796875,0.00919160671532154,-0.00370904883085459,-0.010246869655605405
1761475320421886500,0.649886474609375,-0.0041261400192975995,0.004847916096850531,0.00575628023808822
1761475320431863600,0.659863525390625,0.0021615619480609893,-0.006728284200065536,-0.015376396297477184
1761475320441840400,0.66984033203125,0.006504559588432312,-0.0010415215384768088,-0.007759984743315726
1761475320451817500,0.6798173828125,0.0008183306455612182,0.007918534022604581,-0.005231087320204824
1761475320461794600,0.689794677734375,0.009350012147426605,-0.01136396405203268,-0.012636121146008372
1761475320471771400,0.699771484375,0.002618658065795898,-0.0012690609545912594,-0.008353201396111398
1761475320481748500,0.70974853515625,-0.01099544126689434,0.00029584399552841205,-0.0030033830670639873
1761475320491725600,0.7197255859375,0.02402209610044956,0.0010980163782660383,-0.021177228063344954
1761475320501702700,0.72970263671875,-0.006505728632211685,0.007535247493174392,0.0011932283725589513
1761475320511679500,0.739679443359375,-0.003363338953256607,0.0006056622883043018,-0.007180869681108743
1761475320521656600,0.749656494140625,0.002920271360874176,0.006036858736647991,-0.009611092502716929
1761475320531633700,0.759633544921875,-0.0002209492743015289,0.008693314933273358,-0.009880173501372337
1761475320541610500,0.769610595703125,-0.0029091654449701306,-0.0009085930409230058,0.010239325669966638
1761475320551587600,0.779587646484375,-0.008740940338373185,0.006104957249262952,-0.004270736121758818
1761475320561564400,0.789564453125,0.0018850830942392348,0.009240765348737476,-0.0022596154950559138
1761475320571541500,0.79954150390625,0.008021393892168998,0.009719468797615262,-0.0058184770204126835
1761475320581518300,0.809518310546875,0.0012865326792001724,0.001573817196470918,0.006104655284341424
1761475320591496400,0.819496337890625,-0.0005079495221376419,0.002945139799005119,-0.01193705123225227
1761475320601473500,0.8294736328125,0.0072761284828186034,0.0029414271716901564,-0.007943579415604472
1761475320611450400,0.839450439453125,0.0027899229794740676,0.007151540267813834,-0.010963639622833579
1761475320621427500,0.849427490234375,0.015358312651515006,0.0034468365352251563,-0.008015000684000552
1761475320631404300,0.859404296875,0.0000935235023498535,-0.014416988097236025,-0.002413618746679276
1761475320641381400,0.86938134765625,-0.0057435120880603785,0.0074733378343953515,-0.015617493310663848
1761475320651358700,0.879358642578125,0.007279051092267036,-0.006985804908379214,-0.0051374176873825485
1761475320661335600,0.88933544921875,0.009972527959942816,-0.0013451766644138842,0.0009952215824276208
1761475320671312600,0.899312744140625,0.008622866916656494,0.004856023483959143,-0.018582206601463258
1761475320681289500,0.90928955078125,0.010568155765533447,-0.000842823482712265,-0.007661401473358273
1761475320691266600,0.9192666015625,0.0036848259925842284,0.003961437847968772,-0.025159959290269762
1761475320701243400,0.929243408203125,0.010118658432364463,0.008799934237569687,-0.015170699391234665
1761475320711220500,0.939220458984375,-0.0020037410378456115,0.00048478612979233727,-0.0029677820307202635
1761475320721197600,0.949197509765625,-0.008888239854574202,0.007107804444897919,-0.014236158487480133
1761475320731174400,0.95917431640625,0.00039221418797969816,-0.0053989769624633475,-0.001105714485887438
1761475320741151500,0.9691513671875,-0.0033510639935731886,-0.0009721934749337378,-0.00672010203525424
1761475320751128300,0.97912841796875,0.002782324194908142,-0.008309913097767276,-0.01172446792749688
1761475320761105400,0.98910546875,0.003976502415537834,-0.006461265011044452,-0.013189572043996303
1761475320771082200,0.999082275390625,0.00786532654762268,-0.007121380308279185,-0.014004340759292244
1761475320781059300,1.009059326171875,-0.003953706061840057,0.014349400470452382,-0.018566789836622775
1761475320791036200,1.0190361328125,0.00008534019589424133,0.011079402356455102,-0.013979370714817195
1761475320801013200,1.02901318359375,-0.001710311049222946,-0.0014573135356884448,-0.005895140719506889
1761475320810990000,1.038989990234375,0.0054740474969148635,-0.0030249664236762326,-0.009568586801551282
1761475320820967200,1.04896728515625,-0.0038058220237493514,-0.004391230971069308,-0.0057588192550465465
1761475320830944300,1.0589443359375,0.004427168792486191,0.008306425945204683,-0.017779566715378312
1761475320840922000,1.068922119140625,0.0074216744333505625,0.005829347757587674,-0.011117113151494412
1761475320850899200,1.078899169921875,0.00697217710018158,-0.004746663091660593,-0.0035012861192226406
1761475320860876300,1.088876220703125,0.011011223357915878,-0.00868366461387195,-0.010872253278642892
1761475320870853000,1.09885302734375,0.002781155151128769,0.007138455882310517,-0.00010563406525179743
1761475320880830200,1.108830322265625,0.008320084577798844,0.003038743787279236,-0.008849241284746677
1761475320890807000,1.11880712890625,0.000989011037349701,0.004611522658244939,0.004519194457493722
1761475320900784000,1.1287841796875,0.00023965397477149962,0.006734288678344455,-0.008675967077072709
1761475320910761200,1.13876123046875,0.010862754797935486,0.010003314682206837,-0.004382617264706641
1761475320920738300,1.14873828125,0.0021826047360897064,0.006002264630590798,-0.004275887220911681
1761475320930715400,1.15871533203125,0.009517185407876967,0.005452742130693513,-0.010182754910830408
1761475320940692200,1.168692138671875,0.006377133816480636,0.004067553687121835,0.004582414153125137
1761475320950669300,1.17866943359375,0.012064531803131103,0.003106841158249881,-0.005699453750625252
1761475320960646100,1.188646240234375,-0.004397942698001861,0.007603758710209512,-0.014923556229751556
1761475320970623200,1.198623291015625,-0.0006605097353458404,-0.004261536181039992,-0.009674074736330657
1761475320980600000,1.20860009765625,-0.0020049100816249845,-0.001056359489649185,-0.01496759630087763
1761475320990577200,1.2185771484375,0.008917465949058533,0.0005026140474277781,-0.01934360116170719
1761475321000554200,1.22855419921875,-0.00006195932030677795,0.008861112102342304,-0.02147854909747839
1761475321010531000,1.238531005859375,-0.012035305708646773,0.002541568533371901,-0.00046184535808861253
1761475321020508400,1.24850830078125,0.01160451307594776,-0.0013054862581309862,0.0048016463943757115
1761475321030485200,1.2584853515625,0.003819850549101829,0.002109442460112041,-0.006698584323190152
1761475321040462300,1.26846240234375,0.0193844994276762,-0.0014222062605113023,-0.012909878319781272
1761475321050439200,1.278439208984375,0.009206804284453392,0.02128366584619507,-0.030341435315087435
1761475321060416300,1.288416259765625,0.0015770400583744047,0.003468493527895771,-0.030713556563109156
1761475321070393300,1.298393310546875,-0.0011187748968601225,0.007189857275984831,-0.009566760170646012
1761475321080370200,1.3083701171875,0.009205635240674019,-0.0017327335144073004,-0.02215763566913083
1761475321090347300,1.31834716796875,-0.007402385210990905,0.00205818948019878,-0.015491839370690286
1761475321100325000,1.3283251953125,-0.0009679682493209838,0.0017595358980091987,0.0015584266894496975
1761475321110302200,1.33830224609375,-0.000218026664853096,0.002579181147000054,0.006572254529781639
1761475321120279300,1.348279296875,0.01220014088153839,0.003913380330495419,0.008904807396885006
1761475321130256100,1.358256103515625,-0.0026122283250093457,-0.006905843569678836,-0.01676297355135903
1761475321140233200,1.368233154296875,-0.0015618424892425537,-0.002355624927903409,-0.00977103230478242
1761475321150210000,1.3782099609375,0.0011328034222126005,-0.004581653818010818,-0.0013293123750016092
1761475321160187100,1.388187255859375,-0.0005155483067035675,0.002131304948759498,-0.0009815401169471442
1761475321170164200,1.398164306640625,-0.006204115337133408,0.00822772269854031,-0.0018157989840023219
1761475321180141300,1.408141357421875,-0.007851298022270203,0.009135099888266995,-0.018776213069912045
1761475321190118400,1.418118408203125,0.0042658407509326935,0.013842171325878007,-0.015169165021274238
1761475321200095200,1.42809521484375,0.0045639469146728515,0.004557325948463403,-0.015045209848042576
1761475321210072300,1.438072265625,0.0027706337571144104,0.00021932985183957497,-0.009276837313361465
1761475321220049200,1.448049072265625,-0.0032148703932762144,0.006738427138989209,-0.01539499140009284
1761475321230026200,1.458026123046875,0.003218377524614334,0.005511524825691594,-0.0227913304627873
1761475321240003000,1.468003173828125,-0.009653963530063628,0.0011682457699964289,-0.01574292805492878
1761475321249980200,1.477980224609375,0.0008194996893405913,0.004069010996090946,0.006379088311549276
1761475321259957200,1.487957275390625,-0.011298808127641677,0.012445411746343596,-0.0008880714135244488
1761475321269934000,1.49793408203125,0.001720247921347618,-0.0021343982340331423,-0.004285751027800142
1761475321279911200,1.5079111328125,0.0033656770408153533,0.0030309663353778886,-0.000577343230228871
1761475321289888300,1.51788818359375,0.018328268373012543,0.003198111625542515,-0.0082472202709876
1761475321299865300,1.527865234375,0.0011193594187498092,0.007155081648481427,0.0003963789064437151
1761475321309842200,1.53784228515625,-0.00007949497699737548,0.00628447967627726,-0.01283188118012622
1761475321319819300,1.5478193359375,-0.0006768763482570648,0.007804154391071642,-0.025518380806501952
1761475321329796400,1.55779638671875,0.0020154314756393433,0.00926941776695312,-0.0071647405302152035
1761475321339773200,1.567773193359375,-0.00022854805886745453,0.0005100267439702293,-0.00010753376139327883
1761475321349750300,1.577750244140625,0.005157236632704735,0.004659497406505397,0.010486140037886798
1761475321359727000,1.58772705078125,-0.0008300210833549499,-0.007970392074005211,-0.011129662105813622
1761475321369704200,1.5977041015625,0.021315759751200675,0.00715163616593636,-0.019541681017074732
1761475321379682300,1.607682373046875,-0.006519757157564162,0.00009319014220964163,0.003531078469287604
1761475321389659100,1.6176591796875,0.0008119009047746658,0.0015111780269740846,-0.00965964435217902
1761475321399636200,1.62763623046875,0.0073953709483146664,0.008348827185915434,-0.012356664883811026
1761475321409613000,1.637613037109375,0.001710311049222946,-0.0003749913418316282,0.007881181703880429
1761475321419590100,1.647590087890625,-0.002179097604751587,-0.005740151658016839,-0.016914675248041747
1761475321429567000,1.65756689453125,0.013082768934965133,-0.0025368147264409344,-0.0232483900479041
1761475321439544300,1.66754443359375,0.0073953709483146664,0.002948614964302396,-0.009668704441469162
1761475321449521400,1.677521484375,-0.004725274956226349,0.009490931013546651,-0.012510923863761127
1761475321459498200,1.687498291015625,0.014578560450673102,0.007452033609818318,-0.006070424221176654
1761475321469475300,1.697475341796875,-0.005173018723726272,0.01318153030143585,-0.0008162117537111043
1761475321479452200,1.7074521484375,-0.00652034167945385,0.00744542348922987,-0.022068496080953626
1761475321489429200,1.71742919921875,0.014427753803133964,0.00529088664946612,-0.025265556822903452
1761475321499406000,1.727406005859375,-0.00502455016374588,-0.002375375945388805,-0.006682162911351769
1761475321509383200,1.737383056640625,0.008143558967113494,-0.0025289076979097443,-0.015366422892734408
1761475321519360300,1.7473603515625,0.0017079729616641998,-0.0015305694265000055,-0.01375938955489546
1761475321529337000,1.757337158203125,-0.0077174425095319745,0.00586818649721099,0.00022304989984259007
1761475321539314200,1.767314208984375,0.009041384589672088,-0.0013593433287285733,-0.0051880153634585435
1761475321549291000,1.777291015625,0.0006570026040077209,0.003499027375943842,-0.008213372800312936
1761475321559268400,1.787268310546875,0.013974164816737173,-0.01052234386242926,-0.02545362674091011
1761475321569245200,1.7972451171875,0.004995908591151237,0.001723579810283263,-0.014810158983152358
1761475321579222300,1.80722216796875,-0.0012900398105382919,-0.008420242746089934,0.002350746110919863
1761475321589199400,1.817199462890625,-0.0029360534518957137,0.0006243818301503779,-0.002597487413603812
1761475321599176200,1.82717626953125,0.00649286915063858,-0.0036543275355099465,-0.00014947320697829126
1761475321609153300,1.8371533203125,0.0012514613658189773,-0.00012721000117599032,-0.005243946801777929
1761475321619130000,1.847130126953125,0.0015513210952281952,0.003298374825110659,-0.016599161291774363
1761475321629107200,1.857107177734375,0.0063397244155406944,0.010237130287947366,-0.008073745133914054
1761475321639084000,1.867083984375,0.004693710774183273,0.007799672295487834,0.0018144655434414742
1761475321649061000,1.87706103515625,0.007982815447449684,0.012839525630464777,-0.010268661362305283
1761475321659039200,1.887039306640625,0.02444704351425171,0.008318775111768628,-0.019997845553047955
1761475321669016000,1.89701611328125,0.0009545242458581924,-0.001979478812846355,-0.022521299616061148
1761475321678993200,1.9069931640625,0.011277180817723274,0.004067891043017152,0.001933306150138378
1761475321688970200,1.91697021484375,0.00903086319565773,-0.0025685764129506424,-0.004425323895271867
1761475321698947000,1.926947021484375,-0.0020405659168958664,0.009395991872245213,-0.01406642794376239
1761475321708924400,1.93692431640625,-0.001143324816226959,0.006899525710035231,-0.002880286410357803
1761475321718901200,1.9469013671875,0.004837503159046173,0.004791059355813194,-0.007245842942409217
1761475321728878300,1.95687841796875,0.005288754057884216,-0.0036220452591922366,-0.012984733654279261
1761475321738855200,1.966855224609375,0.006039864686131477,0.006392379334673751,-0.011361059708893298
1761475321748832300,1.976832275390625,0.005890811604261398,0.006142400899532367,0.006013305472768843
1761475321758809300,1.986809326171875,0.004545242214202881,0.010026016279426403,-0.005613839560095221
1761475321768786700,1.99678662109375,0.008732757031917572,-0.007900593082181877,-0.0034605157174170016
1761475321778763500,2.006763427734375,0.009481529572606087,-0.004252481799971428,-0.006261964737903326
1761475321788740600,2.01674072265625,0.004544073170423508,0.007466606699509429,-0.008041833891998976
1761475321798717400,2.026717529296875,-0.00009118541479110717,0.00801908605818462,-0.014338851676974445
1761475321808694500,2.036694580078125,0.0011053308933973312,0.011244414484215667,-0.00836827110107988
1761475321818671600,2.046671630859375,0.007542085942625999,0.006085045259929029,-0.002307491491083056
1761475321828648400,2.0566484375,-0.008620528829097748,0.000876231991147506,-0.00729426692770794
1761475321838625800,2.066625732421875,-0.005181202030181884,-0.010412667234655237,-0.031181320205330848
1761475321848602600,2.0766025390625,-0.012214169406890869,0.008670506592310267,-0.009950553590152412
1761475321858579700,2.086579833984375,-0.008621113350987433,0.004521835080796154,-0.009278371683321893
1761475321868556500,2.096556640625,0.0026017069309949873,-0.010091507847246248,-0.016454035466350613
1761475321878533600,2.10653369140625,-0.0009907646030187607,0.0034108233652834314,-0.018440843635704366
1761475321888510700,2.1165107421875,0.0017027122646570204,0.005687090884329518,-0.0036489874942228196
1761475321898487600,2.126487548828125,0.007989829710125922,0.008179374632588587,-0.010277995446231215
1761475321908464600,2.136464599609375,0.01218318974673748,0.006122643032181076,-0.010901789900381117
1761475321918441500,2.14644140625,0.012930208721756934,0.012803467936394735,-0.01422655040891841
1761475321928418600,2.15641845703125,0.009788403564691543,0.0062868988205824275,-0.0002859225356020033
1761475321938395400,2.1663955078125,0.004403203395009041,-0.0006421726443455554,-0.009950517057534306
1761475321948372500,2.17637255859375,-0.0030757541835308073,0.00042979426474485077,-0.002496620855014771
1761475321958350600,2.1863505859375,0.006952303355932235,0.004074394990684231,-0.01752619474250823
1761475321968327400,2.196327392578125,0.012038228318095206,0.006893315735779469,0.0017272073850966988
1761475321978304500,2.206304443359375,0.013234744626283644,0.00751102750901482,-0.010122859683446585
1761475321988281600,2.216281494140625,-0.0030757541835308073,0.012822685235162497,-0.008161514748912304
1761475321998258700,2.2262587890625,0.008898761248588561,-0.0006489557240478461,-0.006098590869735926
1761475322008235800,2.23623583984375,0.009196867412328719,0.004727219176496146,-0.000595664338208735
1761475322018212600,2.246212646484375,0.002613397368788719,-0.004196785540381097,-0.009856993555184454
1761475322028189700,2.256189697265625,0.011890928801894187,0.006086654407592141,0.00047143517034128305
1761475322038166500,2.26616650390625,-0.008911620730161666,-0.008779883538451395,-0.0029292218523100017
1761475322048143600,2.2761435546875,0.0038069910675287244,0.003731250387863838,-0.009843787013739346
1761475322058120400,2.286120361328125,0.003960720324516296,0.0004792017766216304,-0.015053374888189136
1761475322068097500,2.29609765625,-0.008157587492465972,-0.002736723496002378,-0.009128935008961708
1761475322078074600,2.30607470703125,0.008450432959198952,0.006859976296825334,-0.017572919961065053
1761475322088051500,2.316051513671875,0.0011187748968601225,0.006946232662283,-0.011861282582301645
1761475322098028500,2.326028564453125,0.0026169045001268386,-0.0018309257711865937,-0.009108988199476153
1761475322108005600,2.336005615234375,-0.009054244071245193,-0.0003389610472251661,-0.007884853232000022
1761475322117982700,2.345982666015625,0.0038151743739843367,0.009934317124693188,-0.004113280537724495
1761475322127959600,2.35595947265625,0.00531213493347168,0.01370865488150157,0.0024917985494248567
1761475322137936600,2.3659365234375,-0.005912438914179801,-0.0014114816538087324,0.0010780592939816415
1761475322147913700,2.375913818359375,0.009348843103647232,0.00048787713177734983,-0.0022870880238711833
1761475322157890600,2.385890625,0.018328268373012543,-0.0031118381354201118,-0.0152738857710734
1761475322167867600,2.39586767578125,0.020574585995078085,-0.0008884036320203449,-0.020583152894023803
1761475322177844500,2.405844482421875,0.00755728351175785,0.007635016360753797,-0.009470569787174463
1761475322187821600,2.415821533203125,0.0026209961533546445,-0.020690777986962346,-0.016444664849806577
1761475322197798400,2.42579833984375,0.00755728351175785,0.006901089762747869,0.00039844299936667084
1761475322207775500,2.435775390625,0.006059738430380821,0.0038781840070616453,-0.0013060228309594094
1761475322217752600,2.445752685546875,0.005910100826621055,0.005747185899468604,0.0009299377938732504
1761475322227729700,2.455729736328125,-0.0014203881919384001,0.016277484739490318,-0.00902162044327706
1761475322237706800,2.465706787109375,-0.009651040920615195,-0.0019844438239757438,-0.009479903871100395
1761475322247683600,2.47568359375,-0.00994797804057598,0.00999438359872438,-0.010300426473747938
1761475322257660700,2.48566064453125,-0.011596914291381835,0.0017657578595302766,-0.012193784205988049
1761475322267638800,2.495638671875,0.003665536770224571,-0.002747646748815896,-0.007583203404303639
1761475322277615600,2.50561572265625,0.003961304846405982,0.004254500227121752,-0.010553286989964545
1761475322287592700,2.5155927734375,0.0011158522874116898,0.0127896882895031,-0.010353599699400366
1761475322297569500,2.525569580078125,0.002611643803119659,0.002019364440307254,-0.009472798276878892
1761475322307546600,2.535546630859375,0.003658522507548332,-0.003274708538444247,-0.0018789456143975256
1761475322317523500,2.5455234375,-0.0024748656809329985,0.008980831775162368,-0.016916081753838807
1761475322327500500,2.55550048828125,0.0030628947019577025,0.01279398543870775,-0.002664871827699244
1761475322337477600,2.5654775390625,0.008001520147919654,0.0058952063640550475,0.009477054326888173
1761475322347454500,2.575454345703125,0.011292962908744812,0.0029692564643541116,-0.011783851698227226
1761475322357431600,2.585431640625,0.0066571198016405105,-0.004620087844724185,-0.009880538827553392
1761475322367408600,2.59540869140625,0.018473229801654816,-0.00950948159203399,0.0035340193450450895
1761475322377385700,2.6053857421875,0.007850713500380515,-0.003789353233671863,-0.020501338095776735
1761475322387362600,2.615362548828125,0.00576046322286129,0.002961323748825816,-0.009403075775224715
1761475322397339600,2.625339599609375,0.01309504389464855,0.01424272522558458,-0.025908055977523325
1761475322407316700,2.635316650390625,0.006962240228056907,0.007822093619027873,-0.006681742786243557
1761475322417293600,2.64529345703125,-0.0020166005194187163,0.003447076851353631,-0.014019867121987044
1761475322427270700,2.655270751953125,-0.00396188936829567,0.0008024281110643642,-0.017325137478765098
1761475322437247500,2.66524755859375,-0.0021668226450681687,0.0036541671344835773,-0.002969115471281111
1761475322447224600,2.675224609375,0.0045662850022315975,0.007308752681608893,-0.0077939052792266005
1761475322457201400,2.685201416015625,-0.0003758475750684738,0.009356593726907158,-0.008991481033340095
1761475322467178500,2.695178466796875,0.019226093995571136,-0.0030249738443642853,-0.027585706866160034
1761475322477155600,2.705155517578125,0.007257423782348633,-0.004388550961037981,-0.01984910299843177
1761475322487132700,2.715132568359375,-0.005911269870400428,0.020980230486788785,-0.019272179893311113
1761475322497109800,2.72510986328125,-0.005761632266640663,-0.003587685761041939,-0.001747683917544782
1761475322507086600,2.735086669921875,-0.006661211454868316,0.000268042102328036,-0.0016780162148177624
1761475322517063700,2.745063720703125,0.00665536623597145,0.007215483765941462,-0.01624391811331734
1761475322527040500,2.75504052734375,0.01054360584616661,-0.0005579347060382133,0.010299878484476357
1761475322537017600,2.765017578125,0.000218026664853096,0.0017752460654388413,0.007444361189194023
1761475322546994700,2.77499462890625,0.0050075990289449685,0.002197677865991136,-0.014796751512307672
1761475322556971500,2.784971435546875,0.002465513330698013,-0.001233059201092692,-0.009652812752593307
1761475322566948600,2.794948486328125,-0.004715922605991363,0.007488602760541835,-0.012294157574232667
1761475322576925400,2.804925537109375,-0.0006757073044776916,0.000484771288416232,-0.003034307928290218
1761475322586902500,2.814902587890625,-0.003967150065302848,-0.009190043233431061,-0.011385993220750242
1761475322596880600,2.824880615234375,-0.0008276829957962036,-0.0053403706515120575,-0.0004237235710956156
1761475322606857500,2.834857421875,-0.0008317746490240096,-0.002536108619431616,-0.008365001431759446
1761475322616834600,2.84483447265625,-0.004125555497407913,0.010432019247452263,-0.01470580355953425
1761475322626811400,2.854811279296875,0.0011140987217426299,-0.00410340702685935,-0.0035474268158897757
1761475322636788500,2.86478857421875,0.005606149443984031,0.0035785605980257966,-0.0055359702846035355
1761475322646765600,2.874765625,-0.009055997636914252,0.011246435194654623,0.006392020858358592
1761475322656742700,2.88474267578125,0.012042319971323013,0.014406612833694089,0.008779171723220496
1761475322666719700,2.8947197265625,0.0021668226450681687,0.006591448995663086,-0.008718198783602565
1761475322676696600,2.904696533203125,0.006204699859023094,0.012479138202720787,-0.008642265736870467
1761475322686673700,2.914673583984375,0.013684826481342316,0.007303631836030399,-0.035643304582871495
1761475322696650500,2.924650390625,0.005154898545145988,-0.005073830382281448,-0.0036316345006227493
1761475322706627600,2.934627685546875,0.012640285864472389,-0.001122948748478666,-0.013970292359218001
1761475322716604400,2.9446044921875,0.0018687164813280105,-0.0011893353654420934,-0.01762844954058528
1761475322726581500,2.95458154296875,-0.007557868033647537,0.004285576356219826,0.003505377772450447
1761475322736558600,2.96455859375,0.009349427625536918,0.0006861944491625763,-0.004500909882131964
1761475322746535400,2.974535400390625,0.002617489022016525,0.00949461167482077,0.003048007660079747
1761475322756512800,2.9845126953125,0.0045651159584522245,0.009214754695468582,-0.0032842823676764964
1761475322766489900,2.99448974609375,0.008307225096225739,0.00020060631423839367,-0.010594112190697341
1761475322776466700,3.004466796875,0.012348024919629096,-0.0071372999674407765,-0.013096559998299926
1761475322786443800,3.01444384765625,0.010404489636421203,-0.0017193540138483513,-0.018274401027616113
1761475322796420900,3.0244208984375,-0.007552607336640357,-0.013836811305815353,0.0002636741711758077
1761475322806397700,3.034397705078125,0.006962824749946594,-0.008318751137237996,-0.013170410685800014
1761475322816374800,3.044374755859375,0.0063613517254590985,-0.00426970978351892,0.00047326180124655364
1761475322826351600,3.0543515625,0.022969372177124022,-0.005509263799124164,-0.010666939964890479
1761475322836328700,3.06432861328125,0.015937573844194412,0.008124131605791627,-0.010164415536541491
1761475322846305500,3.074305419921875,0.016236849051713943,0.012901156157208606,-0.017951799743436275
1761475322856282600,3.08428271484375,0.0009732289463281631,-0.002976466519030509,-0.0060035695300437505
1761475322866259700,3.094259765625,0.004867313775420189,-0.008270096539787481,0.0055088996145874255
1761475322876236800,3.10423681640625,0.00920855785012245,0.0034988281590107363,-0.008487002109922467
1761475322886214000,3.1142138671875,0.02117781258523464,-0.018466652788751526,-0.009453965712245552
1761475322896190700,3.124190673828125,0.014143091642856598,-0.018216065286367666,0.006321859965287149
1761475322906167800,3.134167724609375,0.019531214421987533,-0.008137689773685997,-0.007092040620185434
1761475322916144600,3.14414453125,0.005316226586699485,0.005256827974593033,-0.026372093292698264
1761475322926122800,3.154122802734375,0.020582184779644012,0.006128143474494572,-0.003078147070016712
1761475322936099800,3.164099853515625,0.004573883786797523,-0.005236934822390321,-0.014317571426928043
1761475322946076700,3.17407666015625,0.010260697251558303,-0.00016990064872079527,-0.017437639676220713
1761475322956053800,3.1840537109375,0.0020300445228815076,-0.005640024314122274,-0.01145834607090801
1761475322966030600,3.194030517578125,0.014602525848150253,-0.0010418691691709682,-0.010460877732466905
1761475322976007700,3.204007568359375,0.01744330223202705,-0.008298190123110543,-0.003956610404979437
1761475322985984800,3.21398486328125,0.013850246176123618,-0.008969392499118111,0.004363949096854776
1761475322995961600,3.223961669921875,-0.00350654681622982,0.0019381227475067135,0.000814366856496781
1761475323005938700,3.233938720703125,0.0041261400192975995,-0.012034852475853404,0.0028166100570000707
1761475323015915500,3.24391552734375,0.005170680636167526,0.0029488284517894497,-0.013290730863530187
1761475323025892600,3.253892578125,0.006667641195654868,0.0039192181287042325,-0.027645455963071434
1761475323035869700,3.26386962890625,0.004424830704927444,0.0026989636102574877,-0.025191158146131782
1761475323045846800,3.2738466796875,0.0018786533534526824,0.0013247914635110647,-0.004778557779733092
1761475323055824000,3.283823974609375,0.012355039182305336,-0.011341235055349534,0.004865815938077867
1761475323065800700,3.29380078125,0.0015823007553815841,-0.008050392799434484,-0.002595934777334332
1761475323075777800,3.30377783203125,-0.0027560207098722457,-0.010769611463142792,-0.003740209441632032
1761475323085754600,3.313754638671875,0.004874328038096428,-0.004143377706821775,-0.01053759623048827
1761475323095731700,3.323731689453125,0.015199907219409942,-0.00829695372231654,-0.006168514300789684
1761475323105708500,3.33370849609375,-0.011133972954750061,-0.0020119357607443814,-0.018042400636337698
1761475323115685600,3.343685546875,0.013854922351241111,-0.002255454201524844,-0.013443327609356492
1761475323125662700,3.353662841796875,-0.004552840998768806,-0.004924059206136735,-0.01128728208662942
1761475323135639600,3.3636396484375,0.0041226328879594805,-0.010827793082408606,-0.00154176781559363
1761475323145617000,3.373616943359375,0.008012041541934013,-0.00004543287719134241,-0.004126651475951076
1761475323155593700,3.38359375,0.010857494100928306,0.004756102777685737,-0.01736274780910462
1761475323165570800,3.39357080078125,0.01609539475440979,0.007298674816411221,-0.0013360161104239523
1761475323175547600,3.403547607421875,-0.0008159925580024719,0.0008000985858379863,0.0024798706496134398
1761475323185524700,3.413524658203125,0.0009779051214456557,-0.019592979662760624,0.0019506408774293959
1761475323195501800,3.423501708984375,0.011599836900830269,0.0023968651163449976,-0.005605327460076659
1761475323205478700,3.433478759765625,0.012196049228310584,0.007271593871596269,-0.007352846980839967
1761475323215455700,3.443455810546875,0.0015717793613672256,-0.0007351156205608276,-0.007971125009655952
1761475323225432600,3.4534326171875,0.00441021765768528,0.001035782492501312,-0.0015635777886025607
1761475323235409700,3.46340966796875,-0.003970657196640968,-0.004257470214809291,-0.0008742986164987087
1761475323245386500,3.473386474609375,0.00485679238140583,-0.001362977182585746,-0.00915467223841697
1761475323255363600,3.483363525390625,0.004106266275048256,-0.004146202134859049,-0.029604426277428864
1761475323265341000,3.4933408203125,0.02146422831118107,-0.005362639565535937,-0.001477324277255684
1761475323275317800,3.50331787109375,-0.011757657811045647,-0.011803433181531727,-0.003064100278355181
1761475323285295600,3.513295654296875,-0.0038292028993368145,-0.0025775565871386788,-0.008368855622969568
1761475323295272700,3.523272705078125,0.005897825866937637,-0.006866467115582781,0.003928151495475322
1761475323305249800,3.533249755859375,0.006195932030677795,-0.00019465663488663266,0.0020753084367141125
1761475323315227000,3.543226806640625,0.005445990446209907,-0.0028970902730419764,-0.009368442853260784
1761475323325203700,3.55320361328125,-0.004281038320064544,0.005136359383101807,-0.014625249136611819
1761475323335180800,3.563180908203125,0.016966916891932485,0.007506105309547274,-0.011362612345162778
1761475323345157600,3.57315771484375,-0.006522679767012596,-0.009050665016315178,-0.0010323569887317717
1761475323355134700,3.583134765625,-0.0072702832639217375,-0.007926838914179824,-0.02151278016064316
1761475323365111800,3.59311181640625,0.001557166314125061,0.011574389649031217,-0.026652499402966347
1761475323375088600,3.603088623046875,0.002303016245365143,0.004384503831938491,-0.00846824261052534
1761475323385065700,3.613065673828125,0.007087912434339523,-0.004120587632167735,-0.006959482015389948
1761475323395042600,3.62304248046875,0.006941197440028191,0.014578035294287837,0.0057105779328383505
1761475323405019600,3.63301953125,0.005444821402430534,0.005977160442908643,0.0027213147226721047
1761475323414996700,3.642996826171875,0.012474866169691085,0.007573062177846441,-0.01715602798955515
1761475323424973800,3.652973876953125,0.0008066402077674866,-0.00024672189473058095,-0.018668734107445923
1761475323434951000,3.662950927734375,-0.008770750954747199,0.014675029395357704,-0.007453750072047114
1761475323444927700,3.672927734375,0.00828793587386608,0.007228024157928303,-0.0038761838462203738
1761475323454904800,3.68290478515625,0.017115969973802565,0.01964902754880022,-0.011669029679521917
1761475323464881700,3.692881591796875,0.00753682524561882,0.002424294833498425,-0.014605028332490473
1761475323474858800,3.702858642578125,0.00005377601385116577,0.014863291109609416,-0.011346830254141241
1761475323484835600,3.712835693359375,0.016664719074964522,-0.00022314123138785362,-0.005613401168677956
1761475323494812700,3.722812744140625,-0.0005436053574085235,-0.009415463757695397,0.00005967603167518973
1761475323504789800,3.732789794921875,0.005444236880540848,0.012787420983891934,-0.003744629888422787
1761475323514766600,3.7427666015625,0.006492284628748893,0.003275447182316566,-0.004761442248150706
1761475323524743700,3.75274365234375,-0.003682487905025482,0.0036208590907481266,-0.0004062609796412289
1761475323534720800,3.762720703125,0.00365033920109272,0.009582059346121968,-0.012195154179167002
1761475323544697900,3.77269775390625,0.011432079118490219,-0.007947132212715223,-0.006476520804036408
1761475323554674700,3.7826748046875,0.011883914539217949,-0.0033236839379474983,-0.0018814846313558518
1761475323564651800,3.79265185546875,-0.0011339724659919738,0.005960870890988735,-0.015335972955543547
1761475323574628900,3.80262890625,-0.006822539496421813,0.0006050566459947731,-0.019022936106286942
1761475323584605700,3.812605712890625,-0.004575637352466583,-0.004603705819614697,0.0008136362041346729
1761475323594582800,3.822582763671875,0.004402034351229668,0.004171982175976154,-0.0017462226128205655
1761475323604559600,3.8325595703125,0.01667348690330982,-0.0025308433558471734,-0.007983381703030317
1761475323614536700,3.84253662109375,0.01547580155134201,-0.0003769903610285837,-0.011744414736982435
1761475323624513500,3.852513427734375,0.004401449829339981,0.001027514133544173,-0.007755564296524972
1761475323634490600,3.86249072265625,0.008738017728924751,0.012432296536443755,-0.01683267778670415
1761475323644468700,3.87246875,0.011429741030931473,0.0006834054120990913,-0.010919435154926032
1761475323654445600,3.882445556640625,0.001404021579027176,0.0032544757470575857,-0.005382423690706491
1761475323664422700,3.892422607421875,0.012476035213470458,0.00009326777402311563,0.00041183220390230416
1761475323674399500,3.9023994140625,0.005740589478611946,0.008550200114311882,-0.017759875634219498
1761475323684376800,3.912376953125,0.005887304472923278,0.005232687905535567,-0.003511222991347313
1761475323694354000,3.92235400390625,-0.0032400048345327375,0.0024358528405515243,-0.018150628517474978
1761475323704330800,3.932330810546875,0.004237783700227737,0.00022895105931092984,-0.011869374557211994
1761475323714307800,3.942307861328125,0.0037900399327278136,0.005056129187165061,-0.019022351584397256
1761475323724284700,3.95228466796875,0.0024421324551105496,-0.00841910395588493,-0.017867665123939513
1761475323734261800,3.96226171875,0.0037847792357206343,-0.004283032201862079,-0.00469699870981276
1761475323744238600,3.972238525390625,0.005733575215935707,0.0021757993943232576,-0.003821969440951943
1761475323754215700,3.982215576171875,0.006933598655462264,-0.005300199042150052,-0.0002522029290907085
1761475323764193000,3.992193115234375,0.006035773032903671,0.008104167100819177,0.0012346928941085935
1761475323774170000,4.002170166015625,0.02009995422065258,-0.0013306589444720884,-0.004378160285297781
1761475323784147000,4.01214697265625,0.0015454758763313293,-0.005223929781166953,-0.016044450018461793
1761475323794124000,4.0221240234375,-0.005783259576559067,0.0024280017525918083,0.0011599288911558687
1761475323804100900,4.032100830078125,0.0034919337689876553,-0.0016685765287926186,-0.0017799787519499658
1761475323814078200,4.042078125,0.01142331129014492,0.009911064113269094,-0.004612297834735364
1761475323824055300,4.05205517578125,0.008877718460559845,0.012113645341596566,-0.005880454607028514
1761475323834032000,4.0620322265625,0.007676525977253913,-0.007583439153854852,-0.01007306572496891
1761475323844009200,4.07200927734375,0.0007896890729665756,-0.008344174985328572,-0.00048568289140239355
1761475323853986000,4.081986083984375,-0.003998129725456237,0.00136380944129196,-0.003455529015045613
1761475323863963100,4.091963134765625,0.0003407762616872787,0.008634083572059172,-0.01246220761751756
1761475323873940000,4.10193994140625,0.0037841947138309477,0.008628832008206518,-0.004907609253190458
1761475323883917000,4.1119169921875,0.0031909049957990644,-0.005637914555426686,-0.00875379981994629
1761475323893894100,4.12189404296875,0.0037912089765071866,0.0070992078631999895,-0.009433160386234521
1761475323903871000,4.13187109375,0.0028916297882795334,0.0013670842480118153,-0.018337949516810476
1761475323913848000,4.14184814453125,0.004686696511507034,-0.005377467241909471,-0.016403072464093563
1761475323923825200,4.1518251953125,0.0027419921845197675,0.0035161040916194906,-0.003672733695991337
1761475323933802200,4.16180224609375,0.009033201283216476,0.007032158521711244,-0.002075673762895167
1761475323943779000,4.171779052734375,0.0061895022898912425,0.007481525136606069,0.002983454523887485
1761475323953756200,4.181756103515625,-0.01625789183974266,0.0034389078154519665,-0.01548343686852604
1761475323963733200,4.191733154296875,-0.009674421796202658,0.0031855472590250427,-0.003973050083126872
1761475323973710000,4.2017099609375,0.00708498982489109,0.010605688464059494,-0.009219627233408391
1761475323983687200,4.211687255859375,0.00005377601385116577,-0.0006457785279169911,-0.006465853279549628
1761475323993664000,4.2216640625,0.007839023062586783,0.0034259147614939135,-0.012729315854795276
1761475324003641000,4.23164111328125,0.005144377151131629,0.00838296691753494,-0.01248752472186461
1761475324013618000,4.241617919921875,-0.008922142124176025,0.007939344486015033,-0.012515892299823462
1761475324023595000,4.251594970703125,-0.00009644611179828643,0.01437976135938661,0.001003532753046602
1761475324033573000,4.261572998046875,0.00798339996933937,0.0026176300150895257,0.005478394878469408
1761475324043550000,4.271550048828125,0.0033440497308969497,-0.007241365984224831,0.0005112374577671289
1761475324053527000,4.281527099609375,-0.003087444621324539,0.0038106226380972656,-0.012695322253648191
1761475324063504000,4.29150390625,0.006788637226819992,0.015196975476806983,-0.012545154926925896
1761475324073481000,4.30148095703125,-0.0018885902255773544,0.0012882240252540212,-0.004101279572676867
1761475324083458300,4.311458251953125,0.003050619742274284,-0.003340309704118408,-0.013476024302560835
1761475324093435100,4.32143505859375,0.007239888125658035,-0.0018617461719579295,-0.00809756440091878
1761475324103412200,4.331412109375,0.015021043521165846,-0.005331250055073178,-0.0007768478577025235
1761475324113389000,4.34138916015625,0.0035012861192226406,0.0002152741604077164,-0.018799228619318455
1761475324123366100,4.3513662109375,0.004547580301761627,0.0012622915746207581,-0.014353044599108397
1761475324133343000,4.361343017578125,0.00409691392481327,-0.00007862789813952986,0.0033914690691977736
1761475324143320000,4.371320068359375,-0.0018880057036876677,-0.010532225935626775,-0.0024088147073984146
1761475324153297200,4.381297119140625,0.004399111741781234,0.006501797380010247,0.0003657645724713802
1761475324163274000,4.39127392578125,-0.006523848810791969,-0.003055090992237092,0.0000925736542791128
1761475324173251000,4.4012509765625,0.01068389109969139,-0.024546957941481377,0.00500058476626873
1761475324183228000,4.411227783203125,0.01711830806136131,-0.0031522626189980653,-0.017429602500237524
1761475324193205000,4.421205078125,0.0027536826223134993,0.002580095033274847,-0.014571674052160232
1761475324203182000,4.43118212890625,0.005445405924320221,-0.0013173331011959817,-0.00013164528934285044
1761475324213159200,4.4411591796875,-0.0008405424773693085,0.010602727038704324,-0.006753364984039217
1761475324223136300,4.45113623046875,-0.007124737313389778,-0.002261936457949923,-0.015413769165799021
1761475324233113000,4.461113037109375,0.008139467313885687,0.012827369401790202,-0.014476999772340059
1761475324243090200,4.471090087890625,0.0012555530190467834,0.00696206841058738,-0.006412168597243726
1761475324253067000,4.48106689453125,0.006491700106859207,0.003380000110401306,-0.007376848910935222
1761475324263044000,4.491044189453125,0.012775894942879677,-0.003369520386404474,-0.015166607738006859
1761475324273022200,4.501022216796875,0.004244797962903976,0.008829439464089227,-0.0063935186957009135
1761475324282999000,4.5109990234375,-0.012212415841221808,0.003929314260210958,-0.006286094532161951
1761475324292976000,4.52097607421875,-0.010865677407383919,0.009948747508844826,-0.020205570019595324
1761475324302953000,4.530952880859375,-0.010116320344805717,0.0045842744625377236,-0.020607209623046217
1761475324312930000,4.540929931640625,-0.0027852468043565747,-0.000674762593806372,-0.007475706175528466
1761475324322907000,4.550906982421875,0.009185176974534987,-0.011764585308753885,-0.00720103568630293
1761475324332884000,4.560884033203125,0.009487959313392639,0.010194753592589404,-0.010484843129944056
1761475324342861000,4.570861083984375,0.006497545325756073,0.004034291309159016,-0.00905307502746582
1761475324352838100,4.580838134765625,0.005899579432606696,-0.006648533494741423,-0.008293963755853473
1761475324362815200,4.590815185546875,0.0029050737917423247,-0.002148848596960306,-0.007897511784173548
1761475324372792000,4.6007919921875,0.015773907715082167,-0.0024894992777728473,-0.005662537540029734
1761475324382769200,4.61076904296875,0.008593056300282478,0.01329848262843443,-0.004098959751427173
1761475324392746000,4.62074609375,0.005451835665106773,-0.005453713670006254,-0.00750617437902838
1761475324402723000,4.63072314453125,0.011586392897367476,-0.0015229906207096064,-0.0051228959716856474
1761475324412700200,4.6407001953125,-0.0038268648117780685,-0.006881199464655947,-0.008738967576995492
1761475324422677000,4.650677001953125,0.00006079027652740478,0.00022210404752695466,0.003397277755476534
1761475324432654000,4.660654052734375,0.005295183798670769,-0.002375773808432859,-0.002553556940332055
1761475324442631000,4.670630859375,-0.005929390048980712,-0.0006588646258867811,-0.01368884506933391
1761475324452608000,4.68060791015625,0.0076852938055992125,0.0015897191601456143,-0.010486450565140694
1761475324462585000,4.690585205078125,-0.0038350481182336804,0.001274435816030018,-0.014469474053010344
1761475324472562200,4.700562255859375,0.008141220879554748,-0.0059697671543195606,-0.01111493946071714
1761475324482539300,4.710539306640625,0.0015606734454631805,0.011737500939005985,-0.02144108489761129
1761475324492516000,4.72051611328125,-0.0009808277308940886,-0.007506464927506749,-0.02404478285629302
1761475324502493200,4.7304931640625,-0.005766892963647842,-0.00480510215171962,-0.006602375673409551
1761475324512470000,4.740469970703125,-0.008162848189473151,0.013356124249938874,-0.002172960124909878
1761475324522447000,4.750447021484375,-0.00966039327085018,-0.006162946501461556,-0.0020587408944033087
1761475324532424000,4.760423828125,0.01607961266338825,0.015144917637651087,-0.01709722874071449
1761475324542401000,4.770401123046875,-0.005766892963647842,0.0077580405230459285,-0.011073584537021815
1761475324552378000,4.780378173828125,0.004409048613905907,-0.0059953702405677175,-0.01373589908145368
1761475324562355000,4.79035498046875,0.012341010656952858,-0.004005446523876162,-0.002618475402705371
1761475324572332000,4.80033203125,0.00815291131734848,-0.004795010015968,-0.007800937808211892
1761475324582309000,4.81030908203125,-0.0021750059515237806,-0.004189276945716119,-0.0028277890381403267
1761475324592286200,4.8202861328125,-0.0062158057749271385,-0.0023249552241817583,-0.015549688771460204
1761475324602263000,4.830262939453125,0.00994797804057598,0.0192411408676533,0.0004205452333204448
1761475324612240100,4.840240234375,0.013246435064077376,0.008150340334349311,-0.006982808092050254
1761475324622217200,4.85021728515625,0.008007949888706206,-0.0008439320193429011,-0.010018814787082374
1761475324632194000,4.860194091796875,0.010699673190712928,0.0036544451248744733,-0.008128708457853644
1761475324642171100,4.870171142578125,0.0008253449082374572,-0.014696606472926213,-0.020782237396389246
1761475324652148000,4.88014794921875,0.0017208324432373045,-0.0060461266052036075,-0.011309731380455195
1761475324662125000,4.890125,0.019378654208779333,-0.006207496887596789,-0.013078037960920483
1761475324672102000,4.900101806640625,0.014891279661655425,0.0076928868819435585,-0.009270005713775753
1761475324682080000,4.910080078125,0.019977789145708084,0.010610188825952355,-0.00588056420488283
1761475324692057000,4.92005712890625,0.001724339574575424,0.005052405714229098,-0.012660634532757103
1761475324702034000,4.930033935546875,-0.0053045361489057535,0.00467939569610753,-0.016405173089634625
1761475324712011000,4.940010986328125,0.008461538875102996,0.00020505473131488542,0.011278404660429805
1761475324721988000,4.949988037109375,0.006519757157564162,-0.004276180052678683,-0.002969352933298796
1761475324731965200,4.959965087890625,0.011011223357915878,0.003670316834974801,-0.02187518373224884
1761475324741942300,4.9699423828125,0.0072714523077011105,0.013470717939781024,0.010038871194422245
1761475324751919000,4.979919189453125,0.014603110370039939,0.019308826675848104,-0.012264529620949179
1761475324761896000,4.98989599609375,0.0008329436928033829,0.01363589788925601,-0.017941789806075394
1761475324771873000,4.999873046875,0.0024795418560504914,0.00620176126655424,-0.00026531813899055123
1761475324781849900,5.009849853515625,-0.004703647646307945,-0.00009124877605063374,-0.0041814321368001395
1761475324791827000,5.019826904296875,0.003675473642349243,0.009771982152853161,0.0025350349029526114
1761475324801804000,5.029803955078125,-0.003657353463768959,-0.001686978122696746,-0.016471114465314893
1761475324811780900,5.03978076171875,0.00038110827207565303,0.004942281561883283,-0.00010000804206356405
1761475324821758000,5.049758056640625,0.002924363014101982,-0.0054621875249402365,-0.009692834235727787
1761475324831734800,5.05973486328125,0.0036743045985698696,-0.004081007965383469,-0.004392170544341207
1761475324841711900,5.0697119140625,0.009210311415791511,0.00350409570588381,0.003666596216149628
1761475324851689000,5.07968896484375,0.009657470661401749,0.010875794659310486,-0.011962258738745003
1761475324861666000,5.089666015625,0.010258359163999557,0.006101886796875624,0.0017309337121434508
1761475324871643100,5.09964306640625,0.0008323591709136962,0.005925504462551907,0.0013484919995069504
1761475324881620000,5.109619873046875,0.004424830704927444,-0.007065986013610381,-0.013877444710303097
1761475324891597000,5.11959716796875,0.00023731588721275328,-0.007424372138868784,-0.0019705146216787398
1761475324901574000,5.129573974609375,0.01549976694881916,-0.0025439071917528052,-0.008855579693987965
1761475324911551000,5.139551025390625,0.0062216509938240044,0.0007194454106822377,-0.0040900640589185055
1761475324921527800,5.14952783203125,-0.015174188256263732,-0.0008243516776827163,-0.0035592451178468763
1761475324931505000,5.1595048828125,-0.005893149691820144,-0.0009609945150179555,-0.0020935747457668185
1761475324941482000,5.16948193359375,-0.00005669862329959869,0.013443126679956912,-0.00520743244998157
1761475324951458800,5.179458740234375,-0.008138298270106314,0.005307542669211397,-0.003151760295499116
1761475324961436200,5.189436279296875,0.000989011037349701,0.002339079076834605,-0.008115264454390854
1761475324971413000,5.1994130859375,-0.0002098433583974838,-0.006884505095772328,-0.01027910969108343
1761475324981390000,5.20939013671875,0.010263035339117049,-0.0057194525049271755,-0.006743756905477493
1761475324991367000,5.219366943359375,0.008766659301519394,-0.0008068885154061717,-0.008994421909097581
1761475325001344000,5.229343994140625,-0.00410042105615139,0.0003529359152948018,-0.012356591818574816
1761475325011321000,5.239321044921875,0.004278700232505798,-0.006053683719752007,-0.02106858005709946
1761475325021298000,5.2492978515625,0.012957681250572204,0.008830083922305493,-0.004016030708327889
1761475325031275000,5.25927490234375,0.011013561445474624,0.010342201522551477,-0.012353285616636275
1761475325041251800,5.269251953125,-0.007844283759593963,-0.01901270012335153,-0.006049253568984568
1761475325051229000,5.27922900390625,-0.0012613982379436493,-0.00016692495281167793,-0.010126567744184285
1761475325061205800,5.289205810546875,0.0089145433396101,-0.007262401922387652,-0.01010877635916695
1761475325071182800,5.299182861328125,0.013704115703701973,-0.0005777536513603991,0.002487999157141894
1761475325081160200,5.30916015625,0.0024818799436092374,0.013741239693562965,-0.012743819304183125
1761475325091137000,5.319136962890625,0.011758242332935332,-0.0010627338606864214,0.00875617444012314
1761475325101114000,5.329114013671875,0.011160276439785956,-0.0005838237741874763,-0.01904755909088999
1761475325111092000,5.339092041015625,0.005176525855064392,0.007484394659593817,-0.017030830707307903
1761475325121069000,5.349069091796875,-0.0027542671442031858,-0.005564948642271338,-0.008068630567379295
1761475325131046100,5.359046142578125,-0.00021101240217685698,0.005853096813466982,-0.010790657676104456
1761475325141023000,5.36902294921875,0.005921791264414787,0.007594075853945105,-0.010116630872059613
1761475325151000000,5.379,0.002029460000991821,-0.002679043058591196,-0.004056600180733949
1761475325160977000,5.388976806640625,0.0032259763091802597,0.012758354719611816,-0.007693203117419034
1761475325170954000,5.3989541015625,0.004123217409849167,-0.013688113275327487,-0.00006681815851479768
1761475325180930800,5.408930908203125,0.007564297774434089,0.0033545454379142027,-0.010859065003506838
1761475325190908000,5.418907958984375,0.0024777882903814314,-0.0003736521930492017,-0.0031871786687523124
1761475325200885000,5.428885009765625,-0.003954290583729743,0.002402714330996969,0.0008003565974533558
1761475325210861800,5.43886181640625,-0.00844224965274334,0.005257467295409878,-0.004840425768494605
1761475325220839000,5.4488388671875,0.008917465949058533,0.008149522346197044,-0.010458430047053843
1761475325230816000,5.45881591796875,-0.00020867431461811065,0.007212009171466343,-0.018016133683919907
1761475325240793000,5.46879296875,0.012512275570631027,-0.0023082335598883217,-0.0044812005346640945
1761475325250770000,5.47877001953125,0.006376549294590949,0.009526493804805795,-0.012718830993399023
1761475325260747000,5.4887470703125,0.006375380250811576,0.004917619761373498,-0.014407551265321672
1761475325270724000,5.49872412109375,0.007872925332188606,-0.003058255630280473,-0.005402699293754995
1761475325280701000,5.508700927734375,0.011463058778643608,0.007761337591829942,-0.002752440513297915
1761475325290678000,5.518677978515625,0.010268296036124228,0.008306753597123314,-0.00578936052378267
1761475325300654800,5.52865478515625,0.006679916155338287,0.007651206589618232,-0.0076272069428116075
1761475325310632000,5.5386318359375,-0.002744330272078514,0.004104213598568458,0.013279643213935195
1761475325320608800,5.54860888671875,0.011475918260216713,-0.003334882327041123,-0.007479469035193324
1761475325330585900,5.5585859375,0.012970540732145309,-0.006343987886238028,-0.014886165095120668
1761475325340563000,5.56856298828125,0.016710896304249764,-0.0001499686806113459,-0.007277078330889344
1761475325350540000,5.5785400390625,0.0008475567400455475,0.009200739869847893,-0.012272329334914683
1761475325360517000,5.58851708984375,0.005338438418507576,0.009849002044973895,-0.018496939470805225
1761475325370494000,5.598493896484375,0.021197101807594296,0.01833546986535657,-0.015020057140477001
1761475325380471000,5.608470947265625,0.014611293676495551,-0.004031595886929426,-0.010007818469032644
1761475325390447900,5.61844775390625,0.009224339941143989,0.007799232191604096,-0.007592628819774836
1761475325400425000,5.628425048828125,0.00817863028049469,-0.0015570943905331659,-0.014118888783361762
1761475325410402000,5.638402099609375,0.016260814449191092,0.004447473507464747,-0.0073169719498604536
1761475325420379000,5.64837890625,0.006837152543663978,-0.0023266494243463966,0.0018004370180889962
1761475325430356000,5.65835595703125,0.003245265531539917,-0.014311267267016228,-0.009442275274451822
1761475325440332800,5.668332763671875,0.0036941783428192138,0.006546314087638165,-0.01631581430574879
1761475325450310000,5.678309814453125,-0.0027379005312919615,0.001291097543996875,-0.015183449274953454
1761475325460287000,5.688286865234375,0.0035457097828388213,-0.0015514398262370377,-0.005043875918723643
1761475325470264000,5.69826416015625,0.012822656694054602,-0.006610423124191584,-0.008500847972184419
1761475325480241200,5.7082412109375,-0.00528290883898735,-0.008742462150246138,-0.00009198913238942622
1761475325490218000,5.718218017578125,0.007137596794962882,0.0024922483572852798,-0.015497355796024202
1761475325500195000,5.728195068359375,0.007584756040573119,-0.001907828073942801,-0.0026862068766728042
1761475325510172000,5.738171875,0.003845569512248039,-0.002175002526590833,-0.0029059140419587493
1761475325520149000,5.74814892578125,0.008190320718288421,0.004960447977058357,-0.0018094788410700858
1761475325530125800,5.758125732421875,0.0014583821147680282,-0.0018844871559063902,0.004088785417284816
1761475325540103000,5.76810302734375,-0.00033610008656978605,-0.00500058476626873,-0.004695774867106229
1761475325550080000,5.778080078125,0.0008650923967361449,0.0008099760924582369,-0.011272742104623467
1761475325560056800,5.788056884765625,0.012385434320569037,0.001729635662556393,-0.012551639466639607
1761475325570034000,5.798033935546875,0.015975567767024038,-0.0033273206459154604,0.007469769625086337
1761475325580011000,5.808010986328125,0.0031073183655738828,0.0017196177336852997,-0.0018094240421429276
1761475325589988000,5.817988037109375,0.011633739170432091,0.008049152402885375,-0.018219985692948103
1761475325599966000,5.827966064453125,-0.005876198557019234,-0.0013283630977530265,0.008630319570749997
1761475325609943000,5.837943115234375,-0.007667173627018928,-0.01096979308569571,-0.009459372539725154
1761475325619920100,5.847920166015625,0.00011398176848888397,0.004951154992327792,-0.0009239647108130156
1761475325629897000,5.85789697265625,0.004602525359392166,0.0060163502381590656,0.0011546681941486895
1761475325639874000,5.8678740234375,-0.0034779052436351775,-0.005688305593881523,-0.019351711402926592
1761475325649851000,5.877850830078125,0.0004126724541187286,-0.0018545498170133214,-0.018463913984037933
1761475325659828000,5.887827880859375,0.015225041660666464,0.0028683305402606493,-0.012246939165331422
1761475325669805000,5.89780517578125,0.008640987095236778,-0.008170031986330286,-0.013900314129237085
1761475325679782000,5.907781982421875,0.0034030864417552947,-0.010835464932210742,-0.015560155366547404
1761475325689759000,5.917759033203125,0.0016121113717555999,0.001343214748657192,0.0028523024248890577
1761475325699735800,5.92773583984375,-0.003477320721745491,-0.0008384013234550365,-0.010066489853709936
1761475325709713000,5.937712890625,0.0023579613029956815,0.006023783484299201,-0.009649744012672453
1761475325719689700,5.947689697265625,-0.004222586131095886,0.014769870355247985,-0.01534430239247158
1761475325729667000,5.9576669921875,0.0005693243205547332,0.005824440399496234,-0.009661635379865766
1761475325739644200,5.96764404296875,0.004164133942127227,0.0023808957956556694,-0.01895332320248708
1761475325749621000,5.97762109375,0.007906827601790428,0.006598099073802586,-0.01303745022220537
1761475325759598000,5.98759814453125,-0.002270283019542694,-0.00822667238576978,-0.015957721583079544
1761475325769574400,5.997574462890625,0.0005704933643341064,-0.012533466772420798,-0.017689532078057527
1761475325779551500,6.007551513671875,0.0037099604338407515,0.003034889596069115,-0.006302369813527911
1761475325789528600,6.017528564453125,0.008643909704685211,-0.007459745987993665,-0.01003512660106644
1761475325799505400,6.02750537109375,0.0026589900761842724,-0.007649502114654751,-0.009427223835792392
1761475325809482500,6.037482421875,-0.001978022074699402,0.0022423458414908963,0.003972264631837606
1761475325819459300,6.047459228515625,0.004755670094490051,0.006871645614199224,-0.006954257851000875
1761475325829436400,6.0574365234375,0.0007154547929763794,0.0035105791039532048,-0.003806096018385142
1761475325839413500,6.06741357421875,-0.0030243162572383877,0.008237991789160877,-0.011546627142559737
1761475325849390600,6.077390625,0.0001204115092754364,-0.0005100233190372819,-0.012225841578375547
1761475325859367700,6.08736767578125,0.004760346269607543,-0.005115176172822248,-0.013061506951227783
1761475325869344500,6.097344482421875,0.011046879193186759,-0.006027966469072271,-0.015252148863300681
1761475325879321600,6.107321533203125,0.008057634249329567,-0.010887147170386743,-0.006871968128718435
1761475325889298400,6.11729833984375,0.006709726771712303,0.015996302311087493,0.00985407094573602
1761475325899275500,6.127275634765625,0.007310615274310111,-0.006319764477145508,0.00768777802363038
1761475325909252400,6.13725244140625,-0.004960252755880356,0.005109461101377382,0.002740366483014077
1761475325919229400,6.1472294921875,0.013594225588440895,-0.002125222838667105,-0.01585373148564249
1761475325929206500,6.15720654296875,0.009102759388089179,-0.010770886679843533,-0.007841671677399426
1761475325939183400,6.167183349609375,-0.009900631767511367,-0.0021708594993688165,-0.021151582165434956
1761475325949160400,6.177160400390625,0.0014753332495689392,-0.001325310340852593,-0.013514237421099095
1761475325959137500,6.187137451171875,0.009259411254525184,-0.0009179602325340965,0.00005289923101663589
1761475325969114600,6.197114501953125,0.008062894946336746,0.004352651955527836,0.0011228300174698233
1761475325979091500,6.207091552734375,0.0098556235820055,0.011853973775391932,-0.004983012576960027
1761475325989068500,6.217068603515625,0.011202946537733077,-0.007363416323915589,-0.005389748480636626
1761475325999045600,6.227045654296875,0.0210837045609951,0.004169195993023458,-0.011953089051600545
1761475326009022500,6.2370224609375,0.015102876585721969,0.007472195048435241,-0.008765124931558966
1761475326018999600,6.24699951171875,-0.0018061726391315459,-0.004729943710655789,0.004397924431692808
1761475326028976400,6.256976318359375,0.007922025170922279,0.0019710643234167944,0.0029719284828752276
1761475326038953500,6.266953369140625,-0.003149403941631317,0.004485997724079061,-0.014185853072348981
1761475326048930300,6.276930419921875,-0.0053916299104690545,0.01040093455602182,0.006252119197323918
1761475326058907400,6.286907470703125,0.004335983377695083,0.0033769696155650304,-0.007144811987038702
1761475326068884700,6.296884765625,0.005385784691572189,0.005428708805379574,0.003249594646785408
1761475326078861600,6.306861572265625,-0.0097205990254879,0.005736756978643825,-0.002748494990542531
1761475326088838700,6.316838623046875,0.00988134254515171,0.009070377788715995,-0.005008585409633815
1761475326098815500,6.3268154296875,0.018109072664380072,0.0034543845166190293,-0.003313417130615562
1761475326108793600,6.336793701171875,-0.0005967968493700027,0.0021372683278430486,-0.0050323133450932795
1761475326118769400,6.346769287109375,-0.0040390462577342984,0.000995420228538569,-0.0009987287137657402
1761475326128747500,6.35674755859375,0.02095043357014656,-0.00148305818583176,-0.003547572946362197
1761475326138724600,6.366724609375,0.014517185652256012,0.00553044815104804,-0.004113919858541339
1761475326148701400,6.376701416015625,0.0007499415844678879,0.009533057688799453,0.0034952765035443007
1761475326158678500,6.386678466796875,0.00808101512491703,0.001351854142016964,0.0027212599237449466
1761475326168655400,6.3966552734375,-0.005085340440273285,0.0013700936224282487,-0.016365535198990255
1761475326178632400,6.406632568359375,-0.016758827099204062,-0.007628597465588245,-0.02331102522164583
1761475326188609500,6.416609619140625,-0.0016436755537986754,0.003934249588588136,0.006533840481843799
1761475326198586400,6.42658642578125,-0.01585749434530735,0.0013564526853209827,-0.009103964964486658
1761475326208563500,6.4365634765625,0.005991933891177177,-0.006429513028511428,-0.014557663793116807
1761475326218540500,6.44654052734375,0.004045475998520851,0.005846702463654219,-0.0008483056587167084
1761475326228517600,6.456517578125,0.006890344035625457,0.0024557705381070263,-0.014551106188166886
1761475326238494500,6.466494384765625,0.013176876959204673,-0.014943218769802478,-0.014477182435430586
1761475326248471600,6.476471435546875,0.014822890600562095,0.0001493128059519222,-0.01687189555224031
1761475326258448600,6.48644873046875,-0.00014028525352478027,0.0009027563843585085,-0.011311265750415623
1761475326268425500,6.496425537109375,0.0019575638085603713,-0.00042968352524621874,-0.008964830488432197
1761475326278402600,6.506402587890625,0.01243453415930271,0.0031683255545212887,-0.007809815234411507
1761475326288379400,6.51637939453125,0.007197218027710914,0.0028638410239887886,-0.001231057898607105
1761475326298356500,6.5263564453125,0.002709258958697319,-0.013467644633282906,-0.010160250818077475
1761475326308333300,6.536333251953125,-0.004022095122933387,-0.006880000738124363,-0.002142217926774174
1761475326318310400,6.546310302734375,-0.009261164820194245,-0.004468674413231202,-0.011337898029014467
1761475326328287500,6.55628759765625,0.01932137106359005,-0.0018466701879457103,-0.019805957976449278
1761475326338264600,6.5662646484375,0.019323709151148796,-0.0037263510212826073,0.0018478746226988732
1761475326348241700,6.57624169921875,0.0042120647370815275,-0.01015695146600483,-0.010645787579007446
1761475326358218500,6.586218505859375,0.0009206219762563705,0.004458958449281635,-0.008238123649079353
1761475326368195600,6.596195556640625,0.0024187515795230864,0.014363642483291915,-0.006817735457140952
1761475326378172400,6.60617236328125,0.009001637101173401,0.0015397488176211482,-0.01675469891335815
1761475326388149500,6.6161494140625,0.0013689502656459808,-0.004444536056640209,-0.010946451026014983
1761475326398126600,6.626126708984375,-0.004466916280984878,0.00956697479977738,-0.002410714403539896
1761475326408103400,6.636103515625,0.009153028270602225,0.0006878144424466881,-0.006644826575648039
1761475326418080500,6.64608056640625,-0.0035679216146469114,0.011519949198188259,-0.002972969662491232
1761475326428057300,6.656057373046875,0.009904138898849486,0.004337200941357878,-0.0006993621747009456
1761475326438034400,6.666034423828125,0.004221417087316512,0.003072860686012427,-0.003400200364924967
1761475326448011500,6.676011474609375,-0.0002665419816970825,-0.0028232938136468874,-0.000044862055033445356
1761475326457988600,6.685988525390625,-0.0017629180192947386,0.010689249978109728,-0.006934932096023112
1761475326467965700,6.695965576171875,-0.0029606033712625502,0.010471484749804949,-0.011902345245052128
1761475326477942500,6.705942626953125,-0.003257540491223335,-0.0005594764966866932,-0.021681597388908267
1761475326487919600,6.715919677734375,0.011554244193434714,0.006816473940171999,0.003799374016653746
1761475326497896400,6.725896484375,-0.005053191736340523,0.007724284954738686,0.0013453684606589376
1761475326507873500,6.73587353515625,0.013648586124181747,0.007268069044771255,-0.009093973293434829
1761475326517850400,6.745850341796875,-0.002214168918132782,-0.005373682691002614,0.0029749241575598713
1761475326527827500,6.755827392578125,0.013198504269123076,-0.0034417059856699777,0.006868406198453158
1761475326537804500,6.765804443359375,0.004067103308439255,-0.0005293262411287287,-0.005551514913607388
1761475326547781400,6.775781494140625,0.00930266587436199,0.009445246974605833,-0.004413779587950557
1761475326557758500,6.785758544921875,0.0018202011644840239,-0.005276545313571114,-0.01267100979629904
1761475326567735600,6.795735595703125,0.0028676643908023833,-0.004445237026250106,-0.014022789731435477
1761475326577712600,6.805712646484375,0.010499182182550429,0.0037627683333121237,-0.0002498465752229094
1761475326587689500,6.815689453125,0.002869417956471443,0.010291014758008532,-0.009758538149390369
1761475326597666600,6.82566650390625,0.004216156390309334,0.011752250983566045,-0.0030270744699053467
1761475326607643600,6.8356435546875,0.012746668848395346,0.0022406094004865733,-0.0022476693289354443
1761475326617620500,6.845620361328125,0.006759995654225349,-0.008767122238289448,0.002207154655456543
1761475326627597600,6.85559765625,0.0057113633841276166,0.010195309573371196,-0.018790807850845158
1761475326637574400,6.865574462890625,0.001967500680685043,-0.004219258237915346,-0.01724352360991761
1761475326647551500,6.875551513671875,0.007352116328477859,0.001964675111003453,0.0004614800319075584
1761475326657528300,6.8855283203125,0.0018184475988149641,0.004552744529824121,-0.009455116489715873
1761475326667505400,6.89550537109375,0.004067687830328941,0.0061850304691062775,-0.01659063092544675
1761475326677482500,6.905482421875,0.004965513452887535,-0.0021658488224667962,-0.013596125284582376
1761475326687459600,6.91545947265625,-0.011940613162517547,0.000008861443179193883,-0.00869534763097763
1761475326697437400,6.9254375,-0.007899228817224503,-0.00027652109466143885,-0.0014751140538603066
1761475326707414300,6.935414306640625,0.018436989444494248,0.001195802780491067,0.004079159072414041
1761475326717391600,6.9453916015625,0.015894319224357602,-0.009598178222216666,0.013853205318190157
1761475326727368700,6.95536865234375,-0.006101824006438255,-0.003071152215293841,-0.014539616679772735
1761475326737345500,6.965345458984375,-0.0007137012273073196,0.0061403373774315696,-0.0007331913790665567
1761475326747322600,6.975322509765625,0.009762684601545333,0.007847046538838186,-0.0020043986249715087
1761475326757299500,6.985299560546875,0.0006365443378686904,0.0020870981975633185,-0.007617891125194728
1761475326767276500,6.995276611328125,0.004975450325012207,0.0012710502698115305,0.010750179535243659
1761475326777253600,7.005253662109375,0.008265724042057991,0.0025981187429104467,-0.010407722773123532
1761475326787230700,7.015230712890625,0.003029576954245567,0.006880162280795047,-0.01441146025545895
1761475326797207600,7.02520751953125,0.0021288287222385404,-0.0074927948784694305,-0.009581848141923546
1761475326807184600,7.0351845703125,0.011853519400954245,-0.00681982067048375,0.0008115721112117171
1761475326817161500,7.045161376953125,0.007364975810050964,0.005037312605552142,-0.006024320057127624
1761475326827138600,7.055138671875,-0.012983400213718414,-0.0029652315973187795,0.004385211080592126
1761475326837115600,7.06511572265625,-0.0056552492827177045,0.003857789102182141,-0.00848897487130016
1761475326847092700,7.0750927734375,0.004667991811037064,-0.0024099386562273137,-0.01605272465646267
1761475326857069800,7.08506982421875,0.005866261684894561,-0.005502052031981293,-0.009418255078047513
1761475326867046700,7.095046630859375,0.0013794716596603393,-0.0015224785932339726,0.0035415815969929098
1761475326877023700,7.105023681640625,0.000630114597082138,-0.0002669672442047158,0.011445687518734484
1761475326887000600,7.11500048828125,0.0015279402196407318,-0.0026196821207471657,-0.005912511979416012
1761475326896977700,7.124977783203125,-0.0029576807618141173,-0.0034477641212317394,-0.011318499208800493
1761475326906954500,7.13495458984375,0.016645429852604865,0.0020381519099901195,0.004578633027151227
1761475326916931600,7.144931640625,0.011408698242902755,-0.007247494901734171,-0.00020202537812292576
1761475326926908700,7.15490869140625,0.007220014381408691,-0.007846311319898814,-0.0005930705223232507
1761475326936885500,7.164885498046875,0.003332359293103218,0.0017346383479482027,-0.0033159196149557825
1761475326946862600,7.174862548828125,0.0037801030606031414,-0.0003028514083387563,-0.0021760105985216796
1761475326956839700,7.184839599609375,-0.002653144857287407,-0.006318542917727609,-0.0021122429136186836
1761475326966816800,7.194816650390625,-0.002653144857287407,0.002383824684147839,-0.00795389988021925
1761475326976793600,7.204793701171875,-0.002351531562209129,0.004806008617306361,-0.021613701518159358
1761475326986770700,7.214770751953125,0.006778115832805633,-0.004226327299518743,-0.009425671199522912
1761475326996747800,7.224747802734375,0.010968553259968757,-0.005419595629628748,-0.012399243650212883
1761475327006724600,7.234724609375,-0.00010755202770233153,0.00598664008648484,-0.010116229013260453
1761475327016701700,7.24470166015625,-0.009836918881535529,-0.004894007131989928,-0.004857851827330887
1761475327026678500,7.254678466796875,-0.0007107786178588867,-0.008345566078927367,0.0048177024800330395
1761475327036655600,7.264655517578125,0.010512626186013221,-0.0022156678971194197,-0.008032956465799362
1761475327046632400,7.274632568359375,0.0015407997012138366,0.0036621746277145572,-0.007776771481335163
1761475327056609500,7.284609619140625,0.004237783700227737,-0.005598796112946001,0.007330744746886194
1761475327066586600,7.294586669921875,0.00902735606431961,-0.004733055262238485,-0.002334233367536217
1761475327076563700,7.304563720703125,0.01740589283108711,-0.002307506332459161,-0.002532331489212811
1761475327086540800,7.314540771484375,0.017106033101677895,0.00451037868008716,-0.00688785981759429
1761475327096517600,7.324517578125,0.012167992177605629,0.008149089092179202,-0.015877769948355852
1761475327106494700,7.33449462890625,-0.0006979191362857818,-0.004175527552398852,-0.0007867299309000373
1761475327116471600,7.344471435546875,0.006187748724222183,0.009544926223106449,-0.0026359562604688106
1761475327126448600,7.35444873046875,0.0040951603591442105,0.005610405493993312,-0.0007340316292829811
1761475327136425700,7.36442578125,0.0026017069309949873,0.00014084351759520357,0.011636533915717154
1761475327146402600,7.374402587890625,0.009035539370775222,0.008593565473647322,-0.008602152922190725
1761475327156379600,7.384379638671875,0.002006079125404358,0.002524813761393307,-0.014883297284599393
1761475327166356500,7.3943564453125,-0.008467968615889549,0.011912889471952803,-0.0007925934161059558
1761475327176333600,7.40433349609375,-0.0035281741261482236,-0.008869514604506547,-0.014492215607780962
1761475327186310700,7.414310546875,0.012480126866698265,-0.0002598587958724238,0.001984159554541111
1761475327196287700,7.424287841796875,0.01831482436954975,-0.011203960317885503,-0.002092423968296498
1761475327206264800,7.434264892578125,0.0027530981004238128,0.0008719354127650149,0.0019810908146202563
1761475327216241700,7.44424169921875,0.0018535189121961593,-0.0047902550673927175,0.0031072818329557776
1761475327226218800,7.45421875,0.012178513571619986,0.014007594445592257,-0.009898859935533254
1761475327236195600,7.464195556640625,0.012032967621088027,0.008768612654943718,-0.002846091879811138
1761475327246172700,7.474172607421875,-0.0029296237111091613,-0.002036767666257219,-0.008785857192333787
1761475327256149500,7.4841494140625,-0.00023790040910243987,0.0040253373927902425,-0.011544599582254886
1761475327266126600,7.494126708984375,0.010835282269120216,0.011134216124989325,-0.010817801411356777
1761475327276103700,7.504103759765625,0.008595394387841224,0.006304646252293605,-0.0049456031760200855
1761475327286080500,7.51408056640625,0.011590484550595283,0.0005680182794574648,0.001730056929308921
1761475327296057600,7.5240576171875,0.0020154314756393433,-0.0004518662451242562,-0.00895964285666123
1761475327306034700,7.53403466796875,-0.0018716390907764435,0.008001702811010182,-0.0029869068562984463
1761475327316011800,7.54401171875,0.011751228070259094,0.0024850194654776714,-0.005750508084427565
1761475327325988600,7.553988525390625,0.007711012768745422,-0.009590966455073794,-0.015470686984807252
1761475327335966500,7.563966552734375,0.006064999127388,-0.011126043093332554,-0.008277651941869408
1761475327345943800,7.57394384765625,0.002921440404653549,-0.0012687755435123107,0.0017097265273332595
1761475327355920600,7.583920654296875,0.007409983995556831,-0.0011899244539090431,-0.01060638715038076
1761475327365897700,7.593897705078125,0.007408230429887771,-0.0034094956329441626,-0.0063260246837511655
1761475327375874600,7.60387451171875,0.0060620765179395675,0.007790371890069218,0.002385817424301058
1761475327385851600,7.6138515625,0.008155249404907226,0.0008257912911649327,0.002449146717786789
1761475327395828700,7.623828857421875,0.01129471647441387,0.0049079403300420375,-0.015320537924394011
1761475327405805600,7.6338056640625,0.002018354085087776,-0.013745830245356774,-0.009138305625505746
1761475327415782700,7.64378271484375,0.0032137013494968414,0.009359613376122433,0.004700670237932354
1761475327425759500,7.653759521484375,0.009351765713095664,0.0021996597605233544,-0.008185644543170929
1761475327435736600,7.663736572265625,0.005313888499140739,-0.0031545698821602852,0.004904156920779496
1761475327445713400,7.67371337890625,0.01788695434629917,0.006537274547945708,-0.00018178630769252776
1761475327455690500,7.6836904296875,0.008164017233252524,-0.004910003281320678,0.01627051385929808
1761475327465667800,7.693667724609375,0.008465046006441115,-0.012851780040550511,-0.013142718961276114
1761475327475644700,7.703644775390625,0.012656652477383613,0.009123437991581157,-0.005580119953583926
1761475327485621800,7.713621826171875,0.00981295348405838,0.0059371018563339015,0.0033840346814133226
1761475327495598600,7.7235986328125,0.01025952820777893,-0.005811912565596867,-0.0014872428830713033
1761475327505575700,7.73357568359375,0.008467384093999861,-0.005047346517443657,0.016452702025789766
1761475327515552500,7.743552490234375,0.010561141502857207,0.0032778206608491014,0.017171590884868054
1761475327525529600,7.753529541015625,0.003081599402427673,-0.0034116921566077507,-0.013269761140737682
1761475327535506700,7.763506591796875,0.004279284754395485,-0.0010400493881315923,0.013539262264501303
1761475327545483500,7.7734833984375,0.012360299879312515,0.0015510847748548258,0.008929631310887634
1761475327555460600,7.783460693359375,0.006074935999512672,0.010917940742516657,0.001556289531290531
1761475327565437400,7.7934375,0.004279869276285171,0.004951402729144319,-0.0009539397239685058
1761475327575414800,7.803414794921875,-0.006194178465008735,0.005080781854520319,-0.00034368060482665893
1761475327585391600,7.8133916015625,0.002482464465498924,0.002395971208845731,0.016314298202097417
1761475327595368700,7.82336865234375,0.01460135680437088,0.003595431817724602,-0.009932853536680341
1761475327605345800,7.833345703125,-0.0026075521498918532,-0.0016806442800327203,-0.003970584131404757
1761475327615322600,7.843322509765625,0.01011398225724697,-0.014467209030687808,-0.013156436959374695
1761475327625299700,7.8532998046875,0.0026338556349277493,-0.009975354671268723,-0.007705971267446875
1761475327635276500,7.863276611328125,0.0038268648117780685,0.005499982230836758,-0.0021773075064644215
1761475327645253600,7.873253662109375,0.0008317746490240096,-0.005885165031475481,-0.0009117445500567555
1761475327655230500,7.88323046875,0.0017331074029207228,0.008692479820456355,-0.006900006913114339
1761475327665207600,7.89320751953125,0.005626023188233375,0.004226138928206637,0.00007615224244073033
1761475327675184600,7.9031845703125,0.0003898761004209518,-0.010986271579749882,0.005506232733465731
1761475327685161500,7.913161376953125,0.010413257464766502,-0.006853144697239622,0.0051056525759398935
1761475327695138800,7.923138916015625,0.014009236130118369,-0.003830371943116188,0.018160072199255226
1761475327705115600,7.93311572265625,0.011018822142481803,-0.00803902088040486,-0.003593220452684909
1761475327715092700,7.9430927734375,0.003688333123922348,-0.0019961787858977912,-0.015795809019636363
1761475327725069600,7.953069580078125,0.012364976054430007,-0.00402547667339677,-0.0022564919562079013
1761475327735046700,7.963046630859375,0.0018897592693567274,-0.008186928893026198,-0.006761237763240933
1761475327745023700,7.973023681640625,-0.003049450698494911,0.007461160485300934,0.0014154197558760642
1761475327755000600,7.98300048828125,0.0003898761004209518,0.0033007985359930895,-0.0007711670355871319
1761475327764977700,7.992977783203125,0.004730535653233528,-0.006041119353234535,0.00450567738879472
1761475327774954800,8.002954833984376,0.0021866963893175124,-0.004921428857633145,0.004960745946224779
1761475327784931800,8.012931884765624,0.00039279870986938477,0.0011592804371844978,0.014012706728838384
1761475327794908700,8.02290869140625,0.004584989702701568,-0.004797487384133273,-0.000710321960132569
1761475327804885800,8.0328857421875,-0.0034919337689876553,-0.0055905522993416525,0.0007626184029504656
1761475327814862800,8.04286279296875,0.009680267015099525,-0.005345091921580024,-0.0011664682297967373
1761475327824840000,8.05283984375,0.011625555863976478,-0.0026984327456506434,0.002877802192326635
1761475327834817000,8.062817138671875,-0.004984802675247192,0.0020103066343057432,-0.01479362797345966
1761475327844793900,8.0727939453125,-0.002592354580760002,0.015509537140873726,-0.009778174431622029
1761475327854771000,8.08277099609375,-0.0010977321088314056,-0.008095476333465194,-0.003855451585445553
1761475327864747800,8.092747802734374,0.011323358047008514,0.015030375321803149,0.00365702467020601
1761475327874724900,8.102724853515625,0.006834229934215545,0.00914457439444377,-0.005008311414998024
1761475327884702000,8.112701904296875,0.0022001403927803037,-0.00104377685682266,0.013141933509986848
1761475327894678800,8.1226787109375,0.00788929194509983,-0.004538416322838748,0.0014312383795157073
1761475327904656000,8.13265576171875,0.002053425398468971,-0.0005204117114888504,-0.004698807074408978
1761475327914632700,8.1426328125,0.0014537059396505356,0.009290662626025733,-0.01895505850184709
1761475327924609800,8.15260986328125,0.005495674806833267,0.012301103338249958,0.001911386579275131
1761475327934587000,8.1625869140625,-0.0016834230422973632,0.0020281094357662366,-0.011256466823257505
1761475327944564000,8.17256396484375,0.010285831692814827,0.002050264185358537,-0.01163353824103251
1761475327954541000,8.182541015625,0.023753216031193732,0.008129497334075858,-0.0066947666645981365
1761475327964518000,8.192517822265625,0.010585691422224043,-0.0013566376317001414,-0.008755553385615348
1761475327974495000,8.202494873046875,0.00040974984467029567,-0.010826239304494811,-0.001600420933961868
1761475327984471800,8.212471923828126,-0.0009358195453882217,0.0006010848654201254,-0.01082620391352102
1761475327994449000,8.222448974609375,0.004602525359392166,-0.003247978078434244,0.003585950461681932
1761475328004425700,8.23242578125,-0.0015296937853097915,-0.008785680237464838,-0.00707101609846577
1761475328014402800,8.24240283203125,0.017322890722751616,-0.0022739339980646037,-0.0020705409300513563
1761475328024380000,8.2523798828125,0.014629998376965521,-0.00008741798854898661,0.0007916070354171097
1761475328034356700,8.262356689453124,0.007149871754646301,-0.008465304018056485,-0.0036279447061941025
1761475328044333800,8.272333740234375,0.009845686709880829,-0.009434904818749056,0.0014003317845985293
1761475328054311000,8.282310791015625,-0.012898060017824172,0.009486158940306631,-0.00303027107398957
1761475328064288000,8.2922880859375,0.00670680416226387,0.0027366184647253248,-0.009683171358238905
1761475328074264800,8.302264892578124,0.007453238615393638,0.004501482987578492,-0.00765908165210858
1761475328084242000,8.312241943359375,0.0014694880306720733,-0.011011026995093562,-0.0030832616365514694
1761475328094219000,8.322218994140625,0.013141805645823477,-0.004881070589425508,0.004280928722210228
1761475328104195800,8.33219580078125,0.004312017980217933,0.025049233491369522,-0.014186309730075298
1761475328114173000,8.3421728515625,0.0011678747355937957,0.0009039048785401974,-0.007367386962845921
1761475328124149800,8.352149658203125,0.0028162264645099637,0.006954491888085613,0.00228767254576087
1761475328134126800,8.362126953125,-0.002127075156569481,0.0028766845225414723,-0.00284651200491935
1761475328144103700,8.372103759765626,0.0034112697482109066,-0.0027870232029119503,0.007988386671710758
1761475328154080800,8.382080810546874,-0.004814706805348396,0.007745750721986405,0.011892335307691246
1761475328164057900,8.392057861328125,0.010152560701966285,0.0051370888938196,0.0062060880985111
1761475328174035000,8.402034912109375,-0.005259527963399887,0.0009158807274128775,-0.015165639623627067
1761475328184012000,8.412011962890626,0.012100187638401984,-0.010081671439821365,-0.0016128602904267608
1761475328193988900,8.42198876953125,-0.004959668233990669,-0.018539506820763926,-0.007943999540712683
1761475328203966000,8.431966064453125,-0.007501169410347938,-0.004603009416582062,-0.013391232095938175
1761475328213942800,8.44194287109375,0.003273322582244873,-0.012955579483386827,-0.009772968533542007
1761475328223919900,8.451919921875,0.008359832066297531,-0.013524274757923558,0.0018679858289659022
1761475328233897000,8.46189697265625,-0.0013683657437562943,0.0037500492739898617,-0.002998779957182705
1761475328243873800,8.471873779296875,0.005811901149153709,0.0030470509621431116,-0.0005392397095449269
1761475328253851000,8.481850830078125,0.008208440896868705,0.008248494346044025,0.003293360723275691
1761475328263827700,8.49182763671875,0.0031219314128160475,0.00012138419023249298,0.004240249651949852
1761475328273804800,8.5018046875,0.011054477977752684,-0.0036307177602371665,-0.0033375286585651336
1761475328283782000,8.511781982421875,0.005669277808070182,-0.0147008773643116,-0.003707074357010424
1761475328293759000,8.521759033203125,0.017341010901331902,-0.0034273087092034984,0.009019976475462316
1761475328303736000,8.531736083984375,-0.0022620997130870816,0.00035533679329091683,0.004185542056336999
1761475328313713000,8.541712890625,-0.00480710802078247,0.009585443179873981,0.007121303247287869
1761475328323690000,8.55168994140625,0.01554419061243534,-0.00894863854710129,0.0035649076736532148
1761475328333666800,8.561666748046875,0.010157236877083777,-0.017252172707254067,-0.008998093437217176
1761475328343644000,8.571643798828125,0.011654781958460807,-0.007092870595603017,-0.009706004244554787
1761475328353620700,8.581620849609376,0.0065665189087390895,-0.008370292953163152,0.00822277994947508
1761475328363597800,8.591597900390624,0.0016255553752183914,-0.005396157671825494,0.007673073644842952
1761475328373575000,8.601574951171875,0.020627777487039565,-0.01610574490177678,0.0031137298400513826
1761475328383551700,8.6115517578125,0.017933716097474097,-0.000554210091457935,0.015980517936777322
1761475328393528800,8.62152880859375,-0.0033142391145229337,0.003537898652430158,-0.0027125103617087003
1761475328403506000,8.631505859375,0.001925415104627609,0.0035685860516387036,0.008755553385615348
1761475328413483000,8.64148291015625,-0.012142857736349105,-0.000811738791281823,0.020473518507089464
1761475328423459800,8.6514599609375,0.0052139352560043335,-0.010898108097462682,0.011013963304273783
1761475328433438000,8.66143798828125,0.004761515313386917,-0.0019466154395719058,0.004596424412168562
1761475328443415000,8.6714150390625,0.006107669225335121,-0.009946706248808185,-0.016238346889056263
1761475328453392000,8.681391845703125,0.0165828860104084,-0.011984092686284566,-0.004831292613968253
1761475328463368000,8.691367919921875,-0.010949848559498786,0.01170761725739576,-0.008716901875659823
1761475328473346000,8.701345947265626,-0.008706453546881675,0.00015915435077622531,-0.008729870955087244
1761475328483323000,8.711322998046874,0.00011924246549606323,-0.008610903625871287,-0.00002953662173822522
1761475328493300000,8.721300048828125,0.016130466067790984,0.007178037261561257,0.003722765116486698
1761475328503276800,8.73127685546875,0.0011649521261453627,0.009302643041475675,0.003654723115265369
1761475328513254000,8.74125390625,-0.006167290458083153,-0.013499102642404613,0.014728654712159187
1761475328523230700,8.751230712890624,0.0007177928805351257,-0.009051979048922658,-0.010948350722156464
1761475328533207800,8.761207763671875,0.0077519293010234825,-0.0005455963850952685,-0.005351297900080681
1761475328543185000,8.771184814453125,0.0014689035087823868,-0.0007385479741962626,0.004739139084797352
1761475328553162000,8.781161865234376,-0.001672317126393318,0.0024173827479884494,0.005525631553679704
1761475328563139000,8.79113916015625,0.011047463715076446,-0.003290287416777573,-0.014949677051696926
1761475328573116000,8.801115966796875,0.014488544079661369,-0.009062399978237226,0.006121405489742756
1761475328583093000,8.811093017578125,0.01957797617316246,0.0004912803734827321,0.010382478734012693
1761475328593069800,8.82106982421875,0.008504793494939803,-0.003483753887464991,-0.01565031786803156
1761475328603047000,8.831046875,0.0011684592574834824,-0.006155200444778893,-0.011646744782477616
1761475328613024000,8.84102392578125,0.00027297172248363493,0.006752201648481422,0.0017624796278774737
1761475328623000800,8.851000732421875,-0.0024228432327508924,-0.0017528886739804875,-0.014488927672151476
1761475328632978000,8.86097802734375,0.01343757372200489,-0.008799885717686265,-0.005427852001320571
1761475328642954800,8.870954833984374,0.0032592940568923947,-0.0069273903936729764,0.0056783926962874825
1761475328652931800,8.880931884765625,0.011038695886731146,-0.009726387162168976,0.00890077054258436
1761475328662908700,8.89090869140625,0.0037099604338407515,-0.0030669475392787714,0.010684311224799603
1761475328672886000,8.900885986328126,0.006104162093997001,0.002777925439359387,0.010986709971167146
1761475328682862800,8.91086279296875,-0.003177460992336273,-0.0022176018425903747,-0.003259787247236818
1761475328692840000,8.92083984375,0.0037052842587232586,0.003294607398868538,-0.0010326857822947203
1761475328702817000,8.930817138671875,0.01268295596241951,-0.0007558621518895961,0.006125917268078774
1761475328712793900,8.9407939453125,0.007592939347028732,-0.010055717297946102,-0.0008476298052817583
1761475328722771000,8.95077099609375,-0.005125087928771972,-0.0011069349036610218,-0.004704981086868792
1761475328732747800,8.960747802734375,-0.0027291327029466627,-0.0015056518976634833,-0.00283118657162413
1761475328742724900,8.970724853515625,0.01478255859017372,-0.02465474514791276,0.014223079810198396
1761475328752701700,8.98070166015625,0.0055061962008476255,0.0012629862651869189,-0.0029324549890123305
1761475328762678800,8.9906787109375,-0.002876432219147682,-0.002744622533023357,0.006672682696953415
1761475328772655400,9.0006552734375,0.004755085572600365,0.0035003225714201106,0.007719725798163562
1761475328782632400,9.010632568359375,-0.006615034225583076,-0.005312137216760311,-0.011340692774299532
1761475328792609500,9.020609619140625,0.01837444560229778,0.007009883328643627,0.00840538824107498
1761475328802586400,9.03058642578125,0.01657762531340122,-0.00404084548917599,0.001781951513327658
1761475328812563500,9.0405634765625,0.0032569559693336487,0.01558013756700675,0.004200556962378323
1761475328822540300,9.050540283203125,-0.012753098589181899,0.0008876558549934997,0.011276906823087483
1761475328832517400,9.060517333984375,-0.0030272388666868206,0.0009789976750558707,-0.008206157608237117
1761475328842494200,9.070494140625,0.006250877088308334,0.0015943519527791066,-0.012975563967134804
1761475328852471300,9.08047119140625,0.0005628945797681808,0.001754953908547759,0.0064197856481187044
1761475328862448400,9.090448486328125,0.010287585258483885,0.0011605088464682921,0.006346556015126407
1761475328872425200,9.10042529296875,0.003853752818703651,0.00162428815002786,-0.0017142383056692777
1761475328882402300,9.11040234375,0.01058627594411373,-0.001195591576292645,-0.009678659579902887
1761475328892379400,9.12037939453125,0.012233458629250526,-0.008792344015336129,0.00427972314581275
1761475328902356500,9.1303564453125,-0.004378068953752518,0.0005752209134458099,0.0032962102674879133
1761475328912333300,9.140333251953125,0.0017576573222875594,0.004585449785360834,0.004815309593547135
1761475328922310400,9.150310302734376,0.004005143988132477,0.005209745421365369,-0.020502689802646634
1761475328932287500,9.16028759765625,-0.0003372691303491592,-0.0010165589146898127,-0.014489895786531268
1761475328942264300,9.170264404296875,0.0028027824610471724,-0.01053610638465616,-0.0008053980987519025
1761475328952241400,9.180241455078125,0.007142272970080375,0.0024941994274209718,-0.002880158546194434
1761475328962218200,9.19021826171875,0.0010077157378196716,0.007937537833885289,-0.0063107540493831035
1761475328972195300,9.2001953125,0.00220423204600811,0.0020813020693720317,0.009846819221042096
1761475328982172200,9.210172119140625,0.015221534529328345,0.0023977647320658434,-0.014447517949528992
1761475328992149200,9.220149169921875,0.0016068506747484207,-0.0028170781311695463,-0.0019257073655724523
1761475329002126300,9.230126220703125,-0.004977203890681266,-0.0031333410061080936,-0.009702387515362352
1761475329012103400,9.240103515625,0.009093407037854193,0.007572197953099384,-0.0027812830152921376
1761475329022080500,9.25008056640625,0.010739420679211615,0.00610779708949849,0.004862893328629434
1761475329032057300,9.260057373046875,0.003257540491223335,-0.0014549959977273829,0.007102963872998952
1761475329042034400,9.270034423828125,-0.008413608080148696,0.006417429294250905,0.0014483173784799873
1761475329052011300,9.28001123046875,0.0007137012273073196,-0.0031303476147120815,0.001731481701415032
1761475329061988400,9.28998828125,0.0013128361642360687,-0.009242561726068379,-0.0079792169845663
1761475329071965200,9.299965087890625,0.006100070440769195,0.001470426462299656,-0.0006841463392600417
1761475329081942300,9.3099423828125,0.004606032490730286,-0.005019838597654597,-0.008375376695301383
1761475329091919400,9.31991943359375,-0.0010801964521408081,-0.004319192073098384,0.003295479615125805
1761475329101896200,9.329896240234374,0.009393851289153099,-0.004965561401948798,0.008662486540991813
1761475329111873300,9.339873291015625,0.012385434320569037,-0.02256089412422152,-0.0057430736966431134
1761475329121850400,9.349850341796875,0.018370353949069974,-0.009217052825476276,0.0081537150349468
1761475329131827500,9.359827392578126,0.007744915038347244,-0.00969380805832916,-0.004310465343948453
1761475329141804300,9.36980419921875,0.0081955814152956,0.0025147707163472657,0.00023987317048013209
1761475329151781400,9.379781494140625,0.006699205377697944,-0.012114648846950148,-0.014432977967523037
1761475329161758500,9.389758544921875,0.009691957452893257,-0.005908244512963574,-0.006040211746003479
1761475329171735300,9.3997353515625,0.012684709528088568,0.0003554646574542857,0.0024964747245423496
1761475329181712400,9.40971240234375,0.0034089316606521606,0.0039390656151343136,-0.0038630321037024257
1761475329191689200,9.419689208984375,0.015679799690842627,0.008965631922741886,-0.003846245365682989
1761475329201666300,9.429666259765625,0.012688801181316375,0.005520802398223895,-0.005868124848417937
1761475329211643100,9.43964306640625,0.012390695017576217,-0.004276005951920524,-0.008361823093984276
1761475329221620200,9.4496201171875,-0.007509937238693237,-0.004100324016384547,-0.026135270595829933
1761475329231597300,9.459597412109375,-0.0012216507494449615,0.004273437252209987,0.002430314153153449
1761475329241574400,9.469574462890625,0.008506547060608863,-0.004843646347109461,-0.004216558249108493
1761475329251551500,9.479551513671876,-0.0012198971837759018,-0.0030793686294346115,0.006419730849191546
1761475329261528300,9.4895283203125,-0.008106149566173552,-0.0016972574881161562,0.0034368243145756422
1761475329271505400,9.49950537109375,0.000571077886223793,-0.016997703614196506,0.0017095803968608379
1761475329281482200,9.509482177734375,0.012540332621335982,0.0030628102202783338,-0.01511153481621295
1761475329291459300,9.519459228515625,0.01373684892952442,-0.0026882127457356544,-0.005262614969629794
1761475329301436400,9.5294365234375,0.0037111294776201245,0.006082237956556491,0.004020177160482853
1761475329311413200,9.539413330078125,0.005952770924568176,0.0025139841234136837,0.00016289894413203001
1761475329321390300,9.549390380859375,-0.0009305588483810425,0.006488558301702142,-0.0034184301413595674
1761475329331367200,9.5593671875,0.012685878571867941,-0.01602546104855719,-0.0006022584757767618
1761475329341344300,9.56934423828125,0.00954582698047161,-0.008043516675720456,0.00038136400040239093
1761475329351321300,9.5793212890625,0.0011678747355937957,0.001041554075339809,-0.009417414827831089
1761475329361298400,9.58929833984375,0.0017687632381916045,0.013945070011349162,0.0020435798578895626
1761475329371275500,9.599275634765625,0.004461071062088012,-0.005683503837889293,0.01352006437368691
1761475329381252400,9.60925244140625,0.0038572599500417705,-0.006970901883480837,-0.00016357479756698011
1761475329391229400,9.6192294921875,0.01837444560229778,0.01097433683007257,-0.008453647829592228
1761475329401206300,9.629206298828125,0.006703881552815437,0.004956727358233184,-0.004652739442978054
1761475329411183400,9.639183349609375,0.008197919502854346,0.001548742120718816,0.001373717772308737
1761475329421160200,9.64916015625,-0.010509119054675102,0.0011514361990906763,0.004272179160173982
1761475329431137300,9.65913720703125,-0.0072153382062911985,0.006307560870231827,-0.00775987514546141
1761475329441114400,9.6691142578125,-0.005119242709875106,0.0014910194424679502,-0.0038146994499489665
1761475329451091200,9.67909130859375,0.00640226825773716,0.0018422223416913765,-0.009682787765748798
1761475329461068300,9.689068359375,0.002509352472424507,-0.004915718352765543,0.00010148761309683323
1761475329471045400,9.69904541015625,0.006100070440769195,-0.0007717686821415554,0.0021739099729806183
1761475329481022500,9.7090224609375,0.011935352465510368,-0.013473443044762825,0.0020131116543896494
1761475329490999300,9.718999267578125,0.013280921855568884,-0.008742840034514665,0.017533209005184472
1761475329500976400,9.728976318359376,0.0032528643161058423,0.0029251142160617743,-0.006789915868453681
1761475329510953500,9.738953369140624,0.005649988585710525,-0.00953530101987999,-0.004131966971885412
1761475329520930300,9.748930419921875,0.0019072949260473251,-0.006438392167177517,0.0104777192694135
1761475329530907400,9.758907470703125,0.007144026535749435,0.005635135793162044,0.008499733727332204
1761475329540884200,9.76888427734375,0.010884382107853889,-0.008449783363583265,-0.013075572009198367
1761475329550861300,9.778861328125,-0.0033346973806619644,-0.008177047961472998,-0.01934926371751353
1761475329560838100,9.788838134765625,-0.0046820203363895415,-0.0008111793855670839,0.004845266340393573
1761475329570815200,9.798815185546875,-0.0036374797195196148,-0.0053136099379276856,0.007271927231736481
1761475329580792300,9.808792236328125,0.010579846203327178,0.012595540257159154,0.0013518164677545428
1761475329590769400,9.818769287109374,0.013722235882282257,-0.0048110489769605915,-0.015116594583820551
1761475329600746500,9.82874658203125,0.0065402154237031935,0.0014097663332242518,0.00003313508462160826
1761475329610723300,9.838723388671875,0.005942834052443504,0.00032473730069468727,-0.007845799863245339
1761475329620700400,9.848700439453125,0.0033995793104171753,0.01627213727751514,-0.004093644255492836
1761475329630677200,9.85867724609375,0.005945756661891937,-0.0016381511369545478,-0.00923913565147668
1761475329640654300,9.868654296875,-0.0034808278530836104,-0.011358110841625602,0.0072302435144782065
1761475329650632400,9.878632568359375,0.004898293435573578,-0.004380613678932423,-0.016426435073371975
1761475329660608300,9.888608154296875,0.008639818051457405,-0.012253396305581555,-0.007574051983468234
1761475329670585300,9.89858544921875,0.007293079617619514,-0.008531920105527387,-0.0018850830942392348
1761475329680562200,9.908562255859374,0.010730068328976631,-0.0076107215988915405,-0.00852671306580305
1761475329690539300,9.918539306640625,0.008334697625041007,0.0015720248148951212,0.003876731835491955
1761475329700517400,9.928517333984376,0.009534721064567566,-0.0017889429431175812,-0.0017058723361231386
1761475329710494200,9.938494140625,0.01821545564830303,0.0030329779126623178,-0.00012565393997356295
1761475329720471300,9.94847119140625,-0.005277063620090484,-0.011367012242355848,0.0008051241041161119
1761475329730448100,9.9584482421875,0.0034030864417552947,0.005200340555491857,0.0035360834379680453
1761475329740425500,9.968425537109376,0.011487024176120757,0.011171926920028635,-0.004865414079278707
1761475329750402600,9.978402587890624,0.005799041667580604,-0.008408067680284148,-0.00642583179641515
1761475329760379400,9.98837939453125,0.0011643676042556762,-0.0005731328459922224,-0.0025222302203066647
1761475329770356700,9.998356689453125,0.004609539622068405,-0.00436513412365457,0.010347517018485814
1761475329780333600,10.00833349609375,0.00475917722582817,0.00541299350055051,-0.017044000716134905
1761475329790310700,10.018310546875,0.0035620763957500455,-0.0023001552847097626,0.005243654540833085
1761475329800287500,10.02828759765625,0.0019131401449441908,-0.001452399898553267,0.015597984892595559
1761475329810264600,10.0382646484375,0.005506780722737312,-0.0013672537821927107,-0.010191321809776126
1761475329820241700,10.04824169921875,-0.00017886369824409484,-0.0042583960883494,-0.001777366669755429
1761475329830218500,10.058218505859376,0.004758008182048797,-0.007844780374871333,0.0035715200775302946
1761475329840195600,10.068195556640624,0.022118308305740356,-0.00524278460786445,-0.0009780877845361829
1761475329850172400,10.07817236328125,-0.006463058534264564,-0.01023449879779946,0.007084825428109616
1761475329860149500,10.0881494140625,0.0070101710230112075,-0.00030233024770859627,0.01704405551506206
1761475329870126600,10.098126708984376,0.01658814670741558,0.0005812373789900448,0.0028855288410559294
1761475329880103700,10.108103759765624,0.01883329528570175,-0.01181061754921102,-0.0020116138170473276
1761475329890080800,10.118080810546875,0.011949965512752533,0.0046651125840726304,0.0030761195097118612
1761475329900057600,10.1280576171875,0.0053641573816537854,0.002341901792405406,-0.006721800801996141
1761475329910034700,10.13803466796875,0.00027706337571144104,-0.0082094740849745,-0.009995854036603122
1761475329920011500,10.148011474609374,0.009704816934466362,-0.0008934907990915235,0.0019954298672266303
1761475329929988600,10.157988525390625,0.0016226327657699584,-0.010129257458192296,-0.005247490465734154
1761475329939965400,10.16796533203125,0.0053606502503156656,-0.00807539366830606,-0.010618863039463758
1761475329949942500,10.177942626953126,-0.005863339075446129,-0.003355886299163103,-0.0004668685930781066
1761475329959919600,10.187919677734374,0.02062543939948082,-0.003916449641238432,0.0020345197685994205
1761475329969896400,10.197896484375,0.0007253916651010513,0.010245189155172555,-0.00986629110649228
1761475329979873500,10.20787353515625,-0.008105565044283867,-0.006652230139035964,-0.01042465564161539
1761475329989850600,10.2178505859375,0.001772270369529724,-0.0029585495531384365,-0.00438004171513021
1761475329999827700,10.22782763671875,-0.006903203517198562,-0.015810906124068422,-0.002747252881526947
1761475330009804500,10.237804443359375,-0.00016834230422973633,0.0018429564189864321,-0.0029744309672154485
1761475330019781600,10.24778173828125,0.014047230052947998,-0.0026416005499660966,0.00391423256797716
1761475330029758700,10.2577587890625,0.0068646250724792475,-0.004261130326485727,0.006604348434787243
1761475330039735600,10.267735595703124,0.013595979154109953,0.0035976877068926113,-0.008747223948687315
1761475330049712600,10.277712646484375,-0.007499415844678879,-0.0006280801869113929,0.006805442231148481
1761475330059689500,10.287689453125,0.0034276363611221313,-0.02042595303831622,-0.016125022707693278
1761475330069666600,10.29766650390625,0.01794306844770908,0.005480439563438994,0.0032122400447726247
1761475330079643400,10.307643310546876,0.006868132203817367,-0.003127967286313651,0.011520287124905734
1761475330089620500,10.317620361328125,0.006270750832557678,-0.002646628351532854,-0.0007085318618454038
1761475330099597600,10.32759765625,0.015995441511273384,-0.0008797168604214675,-0.0018351978042162953
1761475330109574700,10.33757470703125,0.0065676879525184625,0.0008955571753031108,-0.014256762884091586
1761475330119551700,10.3475517578125,0.007316460493206977,0.010066109686152775,-0.013495477921701967
1761475330129528600,10.357528564453125,0.0032721535384654995,0.002237943661009194,-0.009309314810857176
1761475330139505700,10.367505615234375,0.0017775310665369033,0.002889373899111524,-0.006087284024432301
1761475330149482500,10.377482421875,0.010906009417772292,-0.0036766792187467217,-0.003364380132872611
1761475330159459600,10.38745947265625,0.006117606097459793,0.0016831753054808358,0.0018658121381886301
1761475330169436700,10.397436767578125,0.008959551525115966,-0.005151876612642081,-0.005071439779084175
1761475330179413500,10.40741357421875,0.011352584141492842,0.01302967334112618,-0.007204287089314311
1761475330189390600,10.417390625,0.003422375664114952,0.007624647376255598,0.010780903467070311
1761475330199367400,10.427367431640626,0.0014747487276792525,0.01409152813568944,-0.0005431669659912585
1761475330209344500,10.437344482421874,0.002073299142718315,-0.00042945234227227046,0.00245988730750978
1761475330219321600,10.447321533203125,0.001028174003958702,-0.005830077268305467,0.0038971170363947746
1761475330229298700,10.457298583984375,0.0050660512179136275,0.0009503035868227015,0.0009542867838405072
1761475330239275800,10.46727587890625,0.019728782820701597,-0.011520598793803946,0.004185615121573209
1761475330249252600,10.477252685546874,0.0050648821741342545,-0.01484266388011165,0.003921557357907295
1761475330259229700,10.487229736328125,0.004768529576063156,-0.01862018339962815,0.0016487170550972222
1761475330269206500,10.49720654296875,0.007311199796199798,0.001454241370834643,-0.01247678413214162
1761475330279183600,10.50718359375,0.018985270977020262,0.0015506041425978763,-0.004452175369579345
1761475330289160400,10.517160400390624,0.0194324302226305,0.008816358503518858,-0.006476502537727356
1761475330299137500,10.527137451171875,0.0029711247652769086,-0.010353935342829208,0.006042969958670437
1761475330309114600,10.537114501953125,0.016284195324778556,-0.0050397500161663625,-0.01538730128398165
1761475330319091500,10.547091552734376,0.004609539622068405,0.0173796098956489,-0.008769106986932456
1761475330329068500,10.557068603515624,-0.0025718963146209714,-0.0005564842469349969,0.007283361941203475
1761475330339045600,10.567045654296875,0.01853226651251316,-0.0029242716825567186,0.0034700689970515665
1761475330349022700,10.577022705078125,0.00791150377690792,-0.007878414358058944,0.010332392514590174
1761475330358999600,10.58699951171875,0.002675356689095497,-0.018047406746662453,-0.0012956293011084198
1761475330368976600,10.5969765625,0.01673895335495472,-0.01100793542228639,-0.005887322739232331
1761475330378953700,10.60695361328125,0.004766191488504409,0.0032211482953687664,-0.003713650228269398
1761475330388930600,10.6169306640625,0.003424129229784012,0.012023139205173356,0.013839669983182102
1761475330398907600,10.62690771484375,-0.003601239362359047,0.0023768692161538637,0.012182276431284843
1761475330408884500,10.636884521484374,0.0035796120524406432,-0.006964668505516601,0.001203000847902149
1761475330418861600,10.646861572265625,0.009714169284701347,-0.0011076507146470249,-0.013345401926524936
1761475330428838400,10.65683837890625,0.002531564304232597,0.010443134296510833,-0.010496369170956314
1761475330438815500,10.6668154296875,0.010460603737831115,-0.003256071194988908,-0.003080539956502616
1761475330448792600,10.67679248046875,0.0008814590096473693,-0.008299232444370863,-0.004081661556754261
1761475330458769700,10.686769775390625,0.008659691795706748,0.005097324280656176,-0.012268822203576564
1761475330468746800,10.696746826171875,0.0017728548914194106,-0.0036078905821428633,-0.0005876636948436498
1761475330478723600,10.7067236328125,0.0071586395829916,0.002778520236047916,-0.007515892055444419
1761475330488700700,10.71670068359375,-0.0018202011644840239,-0.006062601674324833,-0.0023200221790932118
1761475330498677500,10.726677490234374,0.005960369709134101,-0.00508118599660811,0.0033384237077087164
1761475330508654600,10.736654541015625,0.002513444125652313,0.0014017885227454825,-0.007175809913501143
1761475330518631700,10.746631591796875,0.0053571431189775465,-0.0022186133394541683,-0.005515292822755873
1761475330528608500,10.7566083984375,0.0013134206861257552,-0.008701741980790392,-0.0026460392630659043
1761475330538585600,10.766585693359374,-0.0018295535147190092,-0.007671140841016313,0.0003165368695743382
1761475330548562400,10.7765625,-0.005869768816232681,-0.006352251678617904,-0.00925351123670116
1761475330558539500,10.78653955078125,-0.001378302615880966,-0.003565407713863533,-0.003471292839758098
1761475330568516600,10.7965166015625,0.020465280401706695,0.003392404075892409,-0.011100801337510346
1761475330578493700,10.80649365234375,0.006700958943367004,-0.005353400808910373,-0.008011603150516747
1761475330588470800,10.816470703125,0.008044774767756462,-0.006110363505920395,-0.009767196379881351
1761475330598447600,10.826447509765625,-0.004228431349992752,0.008158121782005765,-0.0018061543728224933
1761475330608424700,10.8364248046875,0.005648819541931152,0.0170049313643598,0.011682035291567444
1761475330618401500,10.846401611328124,-0.009762684601545333,-0.006319326656550402,-0.0018873298502527177
1761475330628378600,10.856378662109375,0.006250292566418647,-0.004648486817901721,0.0008945376869291066
1761475330638355500,10.86635546875,0.0032592940568923947,-0.0072053453935950525,-0.003836253694631159
1761475330648332500,10.87633251953125,0.005058452433347702,-0.0042403181506088005,-0.004001545525249094
1761475330658309600,10.8863095703125,0.022116554740071296,-0.0026402145937667225,-0.0049130708795972165
1761475330668286500,10.896286376953125,0.002366144609451294,-0.007041893893614178,-0.006347140537016093
1761475330678263600,10.906263671875,0.006560089167952537,0.0034217420515196863,-0.007513773163594305
1761475330688240600,10.91624072265625,0.009555763852596282,-0.01012086637247121,0.0015648198976181446
1761475330698217700,10.9262177734375,0.007907996645569801,-0.01184008224735735,-0.007939469496067613
1761475330708194600,10.936194580078125,0.004015080860257148,-0.011409593292046338,0.0019959595901891587
1761475330718171600,10.946171630859375,0.007756020954251289,-0.0094460541171371,-0.008495057552214712
1761475330728148700,10.956148681640625,-0.0006324526846408844,-0.007594393801887054,-0.009311926893051712
1761475330738125600,10.96612548828125,-0.000495090040564537,-0.017013521096191832,-0.008623122644983232
1761475330748102700,10.9761025390625,0.002791676545143127,-0.04391952718605753,-0.030840306481625883
1761475330758079500,10.98607958984375,0.005185878205299377,0.011274424888344946,-0.00031538609210401774
1761475330768056300,10.996056396484375,0.002348608952760696,0.06051795325889252,0.007837141632754355
1761475330778033400,11.006033447265626,0.014327216038107871,0.012857158326922217,0.012058175127580761
1761475330788010200,11.01601025390625,0.0075993690878152845,-0.05656364440885372,-0.017783475705515594
1761475330797987600,11.025987548828125,0.002963525980710983,-0.009595658613211707,-0.014365721417590975
1761475330807964400,11.03596435546875,0.014783727633953093,0.014133737009332981,0.020462394324876367
