time,seconds_elapsed,z,y,x
1761475335182720500,0.072720458984375,0.006905541604757309,0.0017093988754146266,0.0007372464996762573
1761475335192697300,0.082697265625,0.003465630283951759,0.0021735417926887746,-0.003078987320233136
1761475335202674400,0.09267431640625,0.006606850919127464,0.01539568323654821,-0.0038820290651172397
1761475335212651300,0.1026513671875,-0.0031172552376985546,-0.007443753834418021,-0.011586721690930425
1761475335222628400,0.11262841796875,0.0009252981513738632,-0.0012621397359267575,-0.0032447723411954937
1761475335232604200,0.122604248046875,0.005266542226076126,0.0070810368814476525,-0.014988529491052031
1761475335242581200,0.132581298828125,0.0030219781696796417,-0.0058723751902056386,0.006405355263967067
1761475335252558300,0.142558349609375,0.0055681555211544035,0.002857506610502605,0.01082275158111006
1761475335262535400,0.152535400390625,0.00018178630769252776,0.008627671526759513,0.005781670407671481
1761475335272512300,0.16251220703125,0.004821721068024635,-0.005244978848239407,0.005973009994998574
1761475335282489300,0.1724892578125,0.006619125878810883,-0.0021583950267289763,-0.003989800288528204
1761475335292466400,0.182466552734375,-0.008344049975275993,0.0030929193766409298,0.0021642836281098423
1761475335302443300,0.192443359375,-0.005353635987639427,0.000004556302464334294,0.005643175252433866
1761475335312420400,0.20242041015625,0.0028770167410373687,0.0009229549264156957,0.021100582630559802
1761475335322397200,0.212397216796875,-0.0014595511585474012,0.011718172900739591,0.008341693621408193
1761475335332374300,0.222374267578125,0.000187047004699707,0.0033683102434297323,-0.014227737719006836
1761475335342351000,0.23235107421875,0.003782441148161888,0.005595014416149934,-0.006134009242989123
1761475335352328200,0.242328125,0.007075637474656104,-0.0010530738373083295,0.005581343796290457
1761475335362305300,0.25230517578125,0.00781914931833744,0.020332858794229105,0.00316144143929705
1761475335372282400,0.262282470703125,0.0072188453376293175,0.012294582265918142,0.015970873325597493
1761475335382259500,0.272259521484375,0.017995675417780875,0.009109193124630837,-0.003827449333667755
1761475335392236300,0.282236328125,0.005423778614401817,-0.0006411388854176039,-0.0037498175201937556
1761475335402213400,0.29221337890625,0.0016845920860767364,0.0007380713376944186,0.009019775546062737
1761475335412190200,0.302190185546875,0.0036328035444021223,0.009828504962928126,-0.0014847221324220299
1761475335422167300,0.312167236328125,-0.0036988545179367062,0.0029746530170348703,0.0006314297713339328
1761475335432144400,0.322144287109375,-0.002499415600299835,-0.0021133685749140565,0.008219400682300329
1761475335442121200,0.332121337890625,-0.003100304102897644,0.01227022414279636,-0.00487832835977897
1761475335452098300,0.342098388671875,-0.0013046528577804564,0.00908550343425595,0.0012380904275923967
1761475335462075100,0.3520751953125,-0.0059440030962228775,0.001000089553790167,0.014250296610686927
1761475335472052200,0.36205224609375,0.0006406359910964965,-0.005883291593153262,0.002157050169724971
1761475335482029300,0.372029296875,-0.003847907599806785,-0.0052239189355459525,0.0047314489686861635
1761475335492006400,0.38200634765625,0.005580430480837822,-0.002418804095161613,0.008206139341928065
1761475335501983500,0.3919833984375,-0.0033989947885274883,0.014082856205466667,-0.0003564487548545003
1761475335511960300,0.401960205078125,0.016652444115281103,0.01101427953974926,-0.005903707618452608
1761475335521937400,0.4119375,0.006025836160778999,-0.007953583644743776,0.006867913008108735
1761475335531914200,0.421914306640625,-0.0059440030962228775,-0.0035673833293520143,0.0034873854580335316
1761475335541891300,0.431891357421875,0.00019289222359657285,0.004841325384215452,0.007743800793495029
1761475335551868200,0.4418681640625,-0.005492752197384834,0.01534000866819988,-0.0027354893784970044
1761475335561845200,0.45184521484375,0.014560440272092818,-0.004150152795013855,0.005712842955160885
1761475335571822300,0.461822265625,0.0013923311412334441,0.0009580342313071014,0.009148297296557575
1761475335581799200,0.471799072265625,0.0010959785431623459,-0.0006289466949470807,0.012121376556903124
1761475335591776300,0.4817763671875,-0.007277882048487663,0.00776115093298431,0.013560579047165811
1761475335601753300,0.49175341796875,0.003497778987884521,-0.002960874511787551,-0.008955697333905846
1761475335611730400,0.50173046875,0.005442483314871788,0.0044046578498673624,0.001793568885885179
1761475335621707300,0.511707275390625,0.015317980641126631,-0.003192006111741648,-0.011562865891307592
1761475335631684400,0.521684326171875,-0.0029378070175647736,0.008076035272411537,0.009557024227920919
1761475335641661400,0.531661376953125,0.0034971944659948346,-0.0007402564449148485,0.002691485839989036
1761475335651638300,0.54163818359375,0.007987491622567176,-0.0012612521074712275,0.006471369704883545
1761475335661615400,0.551615478515625,0.0021510405540466305,-0.017181232071114935,0.0072106254985556005
1761475335671592200,0.56159228515625,-0.006681669721007347,0.0008207634895981754,0.00615282354131341
1761475335681569300,0.5715693359375,-0.0021925416082143783,0.0019536308438924607,0.0031482348978519436
1761475335691546000,0.581546142578125,0.004988309806585311,-0.004389220535429194,-0.006502239767182618
1761475335701523200,0.591523193359375,0.0008013795107603073,-0.003919641678745392,0.00244989563645795
1761475335711500300,0.601500244140625,0.02100362506210804,0.002879442164386273,0.0074499324134550985
1761475335721477400,0.611477294921875,0.015166589471697807,-0.0009367796682578046,0.005002009538374841
1761475335731454500,0.621454345703125,0.0037941315859556196,0.007491253087820951,0.0027408779396675526
1761475335741431300,0.631431396484375,-0.0006955810487270354,0.015016668740147723,0.0007855608871206641
1761475335751408400,0.641408447265625,-0.0069791913628578185,0.0069609398951812175,0.01535855011353269
1761475335761385200,0.65138525390625,0.003943184667825699,0.012225354096252703,0.0021257417160086335
1761475335771362300,0.6613623046875,0.014418985974788665,0.0072484076463646486,0.0041198746752925215
1761475335781340200,0.671340087890625,-0.0011415712505578994,0.004243332662424654,-0.013628858510404825
1761475335791317200,0.681317138671875,0.004842179334163666,-0.0010259455142542719,-0.002160411170590669
1761475335801294000,0.691294189453125,0.008579612296819687,-0.006058482621633447,0.002636431184504181
1761475335811271200,0.701271240234375,0.0064876084536314,0.0011438431227463297,0.0014079671017825602
1761475335821248000,0.711248046875,0.014417816931009292,0.005845939845251268,0.0034716764322482046
1761475335831225000,0.72122509765625,-0.0068313073247671125,0.015631891728774643,-0.008828180230408907
1761475335841202200,0.7312021484375,0.001699205133318901,0.004969874534173868,-0.00010035510193556547
1761475335851179000,0.741178955078125,0.005734159737825394,0.00040912022783013525,-0.007637655271589755
1761475335861156400,0.75115625,0.00857552064359188,-0.006533116108525428,0.003955587491672486
1761475335871133200,0.76113330078125,0.014260580542683601,0.006380757966361125,-0.007299290162697434
1761475335881110300,0.7711103515625,0.013811083209514618,0.008439456049102591,0.006448189758695662
1761475335891087000,0.781087158203125,0.013059972581267357,0.009388708752332603,-0.0019086466329172253
1761475335901064200,0.791064208984375,0.006176058286428451,0.012613337350398069,0.00972945818537846
1761475335911040000,0.8010400390625,0.013205518531799316,0.003322821996489074,0.003909538126550614
1761475335921017000,0.81101708984375,0.009462824872136115,-0.0044343605808535354,-0.0007928491444326937
1761475335930994000,0.820993896484375,0.005126841494441032,-0.002670000093965791,0.0012939488006755708
1761475335940971300,0.83097119140625,0.018444003707170486,0.013323361341364215,-0.0027630349725484846
1761475335950948400,0.8409482421875,-0.004900631523132324,-0.013620999430934897,-0.0061028651860542595
1761475335960925200,0.85092529296875,0.010362988582253456,0.01372513680048869,0.00677782357186079
1761475335970902300,0.86090234375,0.02368307340443134,0.001550556193536613,0.002237604592647403
1761475335980879000,0.870879150390625,0.00438099156320095,0.0018196771497430745,-0.008042619343288242
1761475335990856200,0.880856201171875,-0.0017523966252803802,0.012704053549375384,0.0034032873711548743
1761475336000833000,0.8908330078125,0.0004886602997779846,-0.0007816210725868586,0.012100132839474826
1761475336010810000,0.90081005859375,0.014557517662644386,-0.011163273256114917,0.005633676771726459
1761475336020787200,0.910787109375,0.003633388066291809,-0.009164210105853271,0.01204345248248428
1761475336030764000,0.920763916015625,0.011264905858039855,0.011029695162945427,0.018006142012868074
1761475336040741000,0.9307412109375,-0.0005558803170919418,0.0026718124543171143,0.011747940134629606
1761475336050718000,0.940718017578125,0.01545183615386486,0.005797022669608122,-0.0036446583789773285
1761475336060695300,0.9506953125,0.008117840003967284,0.003123940706811845,-0.00506985061019659
1761475336070672100,0.960672119140625,0.013648586124181747,0.0038768488540343237,-0.01250042073605582
1761475336080649200,0.970649169921875,0.0016764087796211243,0.006087744677913724,-0.013876403530687092
1761475336090626300,0.980626220703125,-0.003259878578782081,0.009107367064547725,0.012362930227816104
1761475336100603100,0.99060302734375,0.0027262100934982297,0.00499455345934839,0.003720043436437845
1761475336110580200,1.000580322265625,0.014848609563708304,0.006763045557014993,-0.009688651250954717
1761475336120557000,1.01055712890625,0.005269464835524559,0.002859599244533456,-0.0012392229387536643
1761475336130534100,1.0205341796875,0.0037748423635959624,0.008393109285636455,0.002274867863114923
1761475336140511000,1.030510986328125,0.013351064482331275,-0.0025374460557475685,0.0001486329567618668
1761475336150488000,1.040488037109375,0.004373392778635025,-0.000005144820109126157,0.00586571369562298
1761475336160465200,1.050465087890625,0.010958616387844086,0.006861585444488446,-0.000670154346525669
1761475336170442000,1.06044189453125,0.0009340659797191619,-0.0077073098454071435,0.0034194713209755715
1761475336180419300,1.07041943359375,0.006320435193181037,0.0007033556465175934,0.016413319863472133
1761475336190396200,1.080396240234375,0.007816811230778693,-0.002720619461283786,-0.002298486200720072
1761475336200373200,1.090373291015625,0.001979191118478775,0.00011592028053710237,0.008246380020771176
1761475336210350000,1.10035009765625,-0.0016126958936452864,-0.0008442716585268499,0.014226586941536515
1761475336220327200,1.1103271484375,0.02023673234283924,-0.0008287367334996815,-0.0033459128944203255
1761475336230304300,1.12030419921875,0.00452303038239479,0.0002502472923777532,-0.010462832227535546
1761475336240281000,1.130281005859375,0.00033317747712135315,0.0008858229450444923,-0.005819353803247213
1761475336250258200,1.140258056640625,0.010508534532785415,0.0012655629564076662,-0.004464980052225291
1761475336260235000,1.150235107421875,0.011707973450422286,0.002770463652111357,0.004448923966567963
1761475336270212000,1.160212158203125,0.011109423035383224,0.00821154788187414,-0.0018479659542441366
1761475336280189000,1.17018896484375,0.008863689935207366,0.0014238627864135195,-0.009821027192659676
1761475336290166000,1.180166015625,0.010806056174635887,0.0045993110598210474,-0.015193093886133283
1761475336300143400,1.190143310546875,-0.0008656769186258316,-0.002208256913043442,-0.0015699161978438496
1761475336310120200,1.2001201171875,-0.0077472531259059904,-0.01010120839899755,-0.006431220357585698
1761475336320097300,1.21009716796875,0.0012339257091283798,-0.004465506921077031,0.002683978386968374
1761475336330074000,1.22007421875,0.0051233343631029125,-0.0008307386068074265,-0.0006654964377172291
1761475336340051200,1.23005126953125,0.012307108387351036,-0.004042988926378894,0.0025107589782215655
1761475336350028000,1.240028076171875,0.002881692916154861,0.0000319825946848141,-0.013130444001592695
1761475336360005000,1.250005126953125,0.007220014381408691,0.0012196785588894272,-0.004040397964604199
1761475336369982200,1.259982177734375,0.007070376777648925,-0.005120960313748219,0.0019308949973434208
1761475336379959000,1.269958984375,0.004224339696764946,-0.0023948729470139366,0.00451081022163853
1761475336389936000,1.27993603515625,0.0013800561815500258,0.00789248398260679,0.021240429492667315
1761475336399913000,1.289912841796875,-0.001613280415534973,0.0059034376195719225,0.006230071762297302
1761475336409890000,1.29989013671875,0.0051221653193235395,-0.004963525279311579,0.0015135281017981468
1761475336419867100,1.3098671875,0.017241057658195495,0.0014263595625321614,0.001901029582042247
1761475336429844200,1.31984423828125,-0.003409516182541847,0.004559216511450358,0.0003719385849311948
1761475336439821300,1.3298212890625,0.015590952363610267,-0.001091923422552645,-0.0065068428770638995
1761475336449798100,1.339798095703125,-0.008353402325510979,0.005853886260511353,0.006117898358404636
1761475336459775200,1.349775146484375,0.011550152540206908,0.021072701393079478,0.009479611610155552
1761475336469752000,1.359751953125,0.01050268931388855,0.0090119735488086,0.008740337550174445
1761475336479729200,1.369729248046875,0.016038111609220505,0.0019956713249994207,0.0037667321223765608
1761475336489706000,1.3797060546875,0.011097732597589493,-0.014433343293704092,-0.0012653985596261918
1761475336499682300,1.389682373046875,0.0012204817056655883,0.0018383070725103605,0.004222713995259255
1761475336509659100,1.3996591796875,-0.010751111117005347,-0.006056991634157021,0.018107136435620487
1761475336519636200,1.40963623046875,0.001070259580016136,0.0055273417368647635,-0.001340381758287549
1761475336529613300,1.41961328125,-0.00940729529261589,0.010952344193973113,0.00243572098063305
1761475336539590100,1.429590087890625,0.005403904870152473,0.005094846912490902,-0.013989618114195763
1761475336549567200,1.439567138671875,0.0006155015498399734,0.0019311278927838429,-0.002623699567094445
1761475336559544000,1.4495439453125,0.015130349114537239,0.0016681027464015641,0.004252743807341903
1761475336569521200,1.459521240234375,0.00944470469355583,0.0026939626373321513,0.008475640465691684
1761475336579498000,1.469498046875,-0.005224456650018691,0.008929818540555424,0.0033616036538966
1761475336589475000,1.47947509765625,0.000012859481573104858,-0.008691893586100195,-0.015938925551064312
1761475336599452200,1.4894521484375,0.011088964769244194,-0.0018078428647655526,0.0028814371878281234
1761475336609429200,1.49942919921875,-0.0019295067578554152,0.019115422995598055,-0.004299816085770726
1761475336619406300,1.50940625,0.0016629647761583328,-0.0015024775556434179,-0.0005142696650698781
1761475336629383200,1.519383056640625,-0.0001309329032897949,-0.009681486291228792,0.0004470861803740263
1761475336639360300,1.5293603515625,0.011240940460562706,-0.006502123890284565,0.006136091602221131
1761475336649337000,1.539337158203125,0.00959375777542591,0.006754945019772276,0.007427026461903005
1761475336659314200,1.549314208984375,0.01138882449865341,-0.0023473063365963753,0.0006521620321087539
1761475336669291300,1.559291259765625,0.005703180077672005,-0.0015594661565992282,0.008319098197109997
1761475336679268000,1.56926806640625,0.0045078328132629394,0.002397157377289841,0.0029920579554513094
1761475336689245200,1.5792451171875,0.007950666743516922,-0.0009065369395102607,0.008571849115472286
1761475336699222000,1.589221923828125,0.01139583876132965,0.013545447693404275,0.0049911228181794285
1761475336709199000,1.59919921875,0.01064472813308239,0.01367755078211776,-0.015919380600377918
1761475336719176000,1.609176025390625,0.012590601503849028,0.0025261249398899964,0.000560337296500802
1761475336729153300,1.6191533203125,0.014982465076446532,-0.00883778830897063,0.00031273747729137537
1761475336739130400,1.62913037109375,0.002710428002476692,0.006268976146468776,0.004139784952159971
1761475336749107200,1.639107177734375,0.006601005700230598,-0.004194691193883772,0.003237429284956306
1761475336759084300,1.649084228515625,0.009593173253536223,-0.006604063594530453,-0.007699632858205586
1761475336769061000,1.65906103515625,0.010339607706665992,-0.003254070463325479,-0.0023861096852459012
1761475336779038500,1.66903857421875,0.0018085107266902923,0.009856036857247818,-0.004117646185588092
1761475336789015300,1.679015380859375,0.005847556984424591,-0.01830859213322983,0.000035217443853616714
1761475336798992400,1.688992431640625,0.0034568624556064603,-0.001148726506307139,-0.013140289542172104
1761475336808969500,1.698969482421875,0.00884790784418583,0.0037661909829708744,0.0037928164117038247
1761475336818946300,1.7089462890625,0.005706687209010124,0.003791657642723294,0.006087996410485357
1761475336828923400,1.71892333984375,0.01812836188673973,0.0009946810138440924,-0.010907178461551665
1761475336838900200,1.728900146484375,0.008403671208024025,0.006620451898683677,0.0009798413502052426
1761475336848877300,1.738877197265625,0.005112812969088554,0.017171047462173735,-0.0008963277852162718
1761475336858854400,1.7488544921875,0.011696867534518242,0.004112971152114914,-0.009432283603399991
1761475336868831500,1.75883154296875,0.01633621777296066,0.00825860132317175,0.011231295849382877
1761475336878808600,1.76880859375,-0.005211597168445587,0.012476000964140985,0.012593980771023779
1761475336888785400,1.778785400390625,0.004962006321549415,0.00481227624460007,0.0015874883871525526
1761475336898762500,1.788762451171875,0.0022667758882045745,0.006282939598095253,-0.007757281329575926
1761475336908739300,1.7987392578125,-0.00042728550136089324,0.012612219680612905,0.008238087116461247
1761475336918716400,1.80871630859375,-0.011650105783343315,-0.006115729234204627,0.002852795615233481
1761475336928693200,1.818693359375,0.004211480215191841,0.003429710728843929,0.003891527545824647
1761475336938670300,1.82867041015625,0.0007709843724966049,0.0062776292395603376,0.006499572886060923
1761475336948647400,1.8386474609375,0.010349544578790663,0.006723467031875043,0.010467983326688407
1761475336958624300,1.848624267578125,0.013342881175875662,-0.0036034084865590554,0.0040547552835196255
1761475336968601300,1.858601318359375,-0.004461655583977699,0.011730536908679642,-0.011419146571680902
1761475336978578400,1.868578369140625,0.003918050226569175,-0.009726640607207081,-0.009928761883452535
1761475336988555500,1.878555419921875,-0.011194763231277466,0.007510482373854028,-0.007957096484303474
1761475336998532400,1.888532470703125,0.0012239888370037077,-0.0058429390331672035,0.0029282172053121027
1761475337008508400,1.89850830078125,0.009154197314381598,-0.002515962022190797,0.003955678823217749
1761475337018485200,1.9084853515625,0.009002806144952774,-0.004948048578144517,0.015416764840483665
1761475337028462300,1.91846240234375,0.008552724289894103,0.00472421322701266,0.022242738403007386
1761475337038439400,1.928439453125,0.0019680852025747296,-0.003963880395982414,-0.0029205453555099666
1761475337048416300,1.938416259765625,-0.0032680618852376935,-0.0017710710721759824,-0.009455171288643031
1761475337058393600,1.9483935546875,0.006759411132335662,-0.0006060213354416191,0.0051202108242549
1761475337068370400,1.958370361328125,-0.0002747252881526947,0.004044755050135427,0.007177892272733151
1761475337078347500,1.968347412109375,-0.0013198504269123076,-0.0017192855151894036,-0.007996277717221528
1761475337088324400,1.978324462890625,0.0006266074657440185,0.0014312829036440234,0.0037303821673616766
1761475337098301400,1.988301513671875,0.0022708675414323805,0.021157806410244666,-0.010695070080831646
1761475337108278500,1.998278564453125,-0.009702478846907616,0.008501479301491054,-0.00898528875457123
1761475337118255400,2.00825537109375,0.00825403360426426,-0.002741446478536818,-0.0010503858357667922
1761475337128232400,2.018232421875,0.0028705870002508163,0.0014835222642461303,-0.0037588593431748447
1761475337138209300,2.028209228515625,0.010202245062589644,0.005091145701619098,0.005516224404517561
1761475337148186400,2.038186279296875,0.016635492980480192,0.0018590444706846026,-0.002017733030579984
1761475337158163200,2.0481630859375,0.0036123452782630917,-0.007075452528276946,0.00542164145624265
1761475337168140300,2.058140380859375,0.0007668927192687987,-0.014845639005198608,0.0036778482625260947
1761475337178117600,2.06811767578125,0.012438625812530517,0.003954816881759325,-0.00709227808220312
1761475337188094500,2.078094482421875,0.01438391466140747,0.011351490446238312,-0.007072660066280514
1761475337198071600,2.088071533203125,-0.001477086815237999,0.004271197346062399,0.01328311381265521
1761475337208048400,2.09804833984375,-0.00611468348801136,0.0006122958126012235,0.006898088950663805
1761475337218025500,2.108025390625,-0.0037181437402963634,0.0003850754860730376,-0.001534570889826864
1761475337228002300,2.118002197265625,0.007056932774186134,-0.0036521144580037796,-0.005087167071178555
1761475337237979400,2.1279794921875,0.0078045362710952755,0.010639094118383945,-0.0054021878371015184
1761475337247956500,2.13795654296875,0.0109492640376091,-0.0021131596540042664,-0.005146623907145113
1761475337257933300,2.147933349609375,-0.004909399351477623,0.003354532309004571,-0.01535752720022574
1761475337267910400,2.157910400390625,0.005112228447198867,0.00282113781835651,0.000954177185986191
1761475337277887200,2.16788720703125,0.0025678046613931654,-0.004164628274115966,0.005285667051654308
1761475337287864300,2.1778642578125,-0.009103928431868552,-0.006119417886988958,0.008262289975956082
1761475337297841400,2.18784130859375,-0.002068038445711136,-0.013893596694082952,0.00015581161621958017
1761475337307818500,2.197818603515625,-0.001765256106853485,-0.005370307419582969,-0.012725297266803682
1761475337317795600,2.207795654296875,0.009162965142726898,-0.0074818356638599644,-0.00907643763674423
1761475337327772400,2.2177724609375,0.006921323695778846,-0.007800873876130208,-0.005956661648396402
1761475337337749500,2.22774951171875,0.008718728506565094,0.0036454175724473315,-0.012774616301245987
1761475337347726300,2.237726318359375,0.014705986222624779,0.0011358036634745077,-0.020197350180521607
1761475337357703400,2.247703369140625,-0.007891630032658576,0.002243758055509534,0.003349986281339079
1761475337367680300,2.25768017578125,0.003778349494934082,0.004943442043330287,0.020032880333811044
1761475337377657300,2.2676572265625,0.0015343699604272842,-0.0030281384824076664,-0.008510949241090566
1761475337387634400,2.277634521484375,0.004826397243142128,-0.002338020201731706,-0.008957651828974485
1761475337397611300,2.287611328125,-0.005049100083112716,-0.006165436427714303,-0.0007160575811751186
1761475337407588600,2.297588623046875,0.005724807387590408,-0.009994316241709747,0.014114504869189113
1761475337417565400,2.3075654296875,0.004828150808811187,0.0028381471770175266,0.0003746967975981533
1761475337427542500,2.31754248046875,-0.0008604162216186523,0.005155567548715044,-0.010326821290329097
1761475337437519400,2.327519287109375,0.00018938509225845335,0.010749584738555132,-0.003348853770177811
1761475337447496400,2.337496337890625,-0.003850830209255218,0.007298018370929639,0.0014462715518660844
1761475337457473500,2.3474736328125,0.009768529820442198,0.004047065167408436,0.004815400925092399
1761475337467449300,2.357449462890625,0.01395955176949501,-0.005808343785465695,-0.0012741663879714906
1761475337477426200,2.36742626953125,0.010965046128630638,-0.009730122622370253,-0.007790178952179849
1761475337487403500,2.377403564453125,-0.00549509028494358,0.00023483281082590108,-0.001346208710875362
1761475337497380600,2.387380615234375,0.020093524479866027,-0.008366377113159977,0.009297478242591023
1761475337507357400,2.397357421875,0.012312369084358215,-0.005820160945778479,0.00915359452618286
1761475337517334500,2.40733447265625,0.007373159116506576,0.0026495030119200237,0.004462240105867385
1761475337527311400,2.417311279296875,0.020543606334924698,-0.0009686954767501447,-0.004863824910391122
1761475337537288400,2.427288330078125,0.013063479712605476,0.001878284602338681,0.011659403334651142
1761475337547265300,2.437265380859375,0.0033358664244413374,0.0024650030156888533,-0.010844725950900464
1761475337557242400,2.447242431640625,0.003782441148161888,-0.00030154022984206676,0.0001274623045697808
1761475337567219500,2.457219482421875,0.010960369953513144,-0.002481378761754604,-0.004830415831133723
1761475337577196300,2.4671962890625,0.003480243331193924,-0.009814841763756703,0.004663425233773887
1761475337587173400,2.47717333984375,-0.0034042554855346677,-0.0021223521740350404,0.01015575730605051
1761475337597150200,2.487150146484375,0.009611293432116507,-0.0022836916320316957,-0.007929916216433047
1761475337607127600,2.49712744140625,0.0024257658421993253,-0.0020271025054797065,-0.012388667457271367
1761475337617104400,2.5071044921875,0.001527355697751045,0.005697656802472193,0.0048102680922485885
1761475337627081500,2.51708154296875,-0.0056540802389383315,-0.0062071749438997355,0.010101396770309657
1761475337637058600,2.52705859375,0.012754267632961272,0.0006577526643231976,-0.005804612891841679
1761475337647035400,2.537035400390625,0.004223755174875259,-0.001571272471291013,0.006112692460324615
1761475337657012500,2.547012451171875,0.0052700493574142455,-0.005342124788003275,0.002004508222825825
1761475337666989300,2.5569892578125,0.002727379137277603,0.001993162561615463,-0.00721480848332867
1761475337676966400,2.56696630859375,0.009310264658927916,0.002983215920225484,0.004106777731701731
1761475337686943200,2.576943115234375,-0.0026654198169708252,0.0012472464150050655,-0.001024703405238688
1761475337696920300,2.58692041015625,0.014091069194674491,-0.009112450806685955,0.0018374810928478836
1761475337706897400,2.5968974609375,0.015737082836031913,-0.014049126324156532,0.0142501139475964
1761475337716874200,2.606874267578125,0.003613514322042465,0.0011434835047868545,0.007398585818707943
1761475337726851600,2.6168515625,0.0061585226297378535,0.014137633441382785,-0.002121284736599773
1761475337736828400,2.626828369140625,0.0021159692406654356,0.007356621256947983,-0.012541026741079986
1761475337746805500,2.636805419921875,0.0061561845421791075,-0.0019125476315442938,0.008109327903948724
1761475337756782300,2.6467822265625,-0.0037210663497447964,0.006300883392628747,0.005058762960601598
1761475337766759400,2.656759521484375,-0.00372223539352417,0.01348022783693159,-0.0005176854648627341
1761475337776736300,2.666736328125,-0.0046200610160827636,-0.01075964719155454,0.0033694399004802105
1761475337786713000,2.676713134765625,-0.0049193362236022945,-0.007229964953265153,0.005748553589358925
1761475337796690200,2.686690185546875,0.0018096797704696655,-0.003578174722247058,-0.007149981352500617
1761475337806667000,2.6966669921875,0.012582418197393417,0.013035916993889259,-0.009156023945286869
1761475337816644000,2.70664404296875,0.006594575959444046,-0.001607253675191896,-0.007740932982973754
1761475337826621200,2.71662109375,-0.002683539995551109,0.009596299075672868,0.0010678666935302317
1761475337836598300,2.726598388671875,-0.0008913958817720412,0.0009895772929303347,0.003916040932573378
1761475337846575400,2.736575439453125,0.00523673160970211,0.006689630406821379,-0.01776813200591132
1761475337856552200,2.74655224609375,-0.006434416961669922,-0.012693980821577133,-0.006662417031265795
1761475337866529300,2.756529296875,0.017658406287431715,-0.012745605977537343,-0.0009420118241570889
1761475337876506000,2.766506103515625,0.00658697717487812,-0.0010504497678484766,-0.0007087510575540364
1761475337886483200,2.776483154296875,-0.012717442753911018,0.0010142105523322242,0.001938767776545137
1761475337896459000,2.786458984375,0.007930208477377892,-0.00625909464409342,-0.006829955617897212
1761475337906436000,2.79643603515625,0.005834697502851486,-0.003941708521725377,0.00047397418729960914
1761475337916413200,2.8064130859375,0.0005956278055906295,0.005640302875335328,0.010575571887008845
1761475337926390300,2.816390380859375,0.00658171647787094,-0.01089319788526045,0.004305661304667592
1761475337936367400,2.826367431640625,0.010176526099443434,0.016044656656082953,0.011186872185766696
1761475337946344200,2.83634423828125,0.0038929157853126524,0.008765997147816233,-0.020939985241368413
1761475337956321300,2.8463212890625,0.008232406294345854,-0.0018928645418956876,0.01735701218806207
1761475337966298000,2.856298095703125,0.0034440029740333555,-0.005827232290670508,0.005385273234918713
1761475337976275200,2.866275146484375,0.0023977087914943693,0.005537597127753542,-0.0018925357483327388
1761475337986252300,2.876252197265625,0.0035977322310209274,-0.003135846915381262,-0.004030187097843736
1761475337996229000,2.88622900390625,0.008832125753164291,0.008150832383049419,-0.00249897720888257
1761475338006206200,2.896206298828125,0.00015314473509788512,-0.0014339223853021394,0.0069246664303354915
1761475338016183000,2.90618310546875,0.0013496610432863236,-0.013569258968898794,-0.009549498508591204
1761475338026160000,2.91616015625,0.00658522360920906,-0.005717062472552061,-0.007523088981211185
1761475338036137200,2.92613720703125,-0.001499298647046089,-0.004762590742332395,0.009679207569174468
1761475338046114300,2.9361142578125,0.008522913673520087,0.006380538199830334,-0.005120831878762692
1761475338056091400,2.94609130859375,-0.0022504092752933503,0.004843203389114933,-0.0024072986037470398
1761475338066068200,2.956068115234375,0.001939443629980087,0.004804872681212146,-0.0018295352484099566
1761475338076045300,2.96604541015625,-0.008536357676982879,0.004206732116482453,0.005603884421661496
1761475338086022100,2.976022216796875,-0.008534604111313819,0.009568630184035282,-0.009276362389326095
1761475338095999200,2.985999267578125,0.0077758946985006325,-0.0035927432453609067,-0.0044898039662279185
1761475338105976000,2.99597607421875,0.003437573233246803,0.004119945457240101,-0.008777966146823019
1761475338115953200,3.005953125,-0.00239595522582531,0.0018373406705970408,-0.01600358828511089
1761475338125930200,3.01593017578125,-0.0032931963264942166,0.012298105380276684,-0.004613065019715577
1761475338135907000,3.025906982421875,-0.006882160729169845,-0.007302259579562815,0.011933945959713308
1761475338145884200,3.03588427734375,0.015113397979736327,0.012796524455666076,-0.0033672296770848333
1761475338155861200,3.045861328125,0.01197451543211937,0.007553133634669938,0.012779785666707903
1761475338165838300,3.05583837890625,0.009577975684404372,-0.004754514750442467,0.004164316605217755
1761475338175815200,3.065815185546875,-0.00838555102944374,-0.002200488594296621,-0.006592237871885299
1761475338185792300,3.075792236328125,0.0025356559574604034,-0.006499230392766185,-0.009204283533804118
1761475338195769000,3.08576904296875,0.004780804535746574,0.0028098092818108853,-0.0054371678189374505
1761475338205746200,3.09574609375,0.0038800563037395476,0.012899920898058916,0.0017801066161133349
1761475338215723300,3.10572314453125,0.005226794737577438,0.006612121890933485,-0.006011862434353679
1761475338225700000,3.1157001953125,0.007319967624545097,-0.003946740889869398,-0.00907177972793579
1761475338235677200,3.12567724609375,0.008666706058382987,-0.010314994996861787,-0.00909114201553166
1761475338245654000,3.135654052734375,0.0145002345174551,-0.004762476577900816,0.005787625224422663
1761475338255631000,3.145631103515625,0.001782207241654396,-0.007760606939467834,0.0017991401101462542
1761475338265608200,3.155608154296875,-0.012285481077432632,-0.004615020656428532,-0.011745729911234229
1761475338275585300,3.165585205078125,0.03140869922041893,0.0007447699357173405,-0.00022582637881860137
1761475338285562400,3.175562255859375,0.006416881304979324,0.00407818182487972,-0.00001607435196638107
1761475338295538200,3.1855380859375,0.008062894946336746,-0.0011822103632672225,0.008516958856768906
1761475338305515300,3.195515380859375,0.012402385455369948,0.0002400421338388696,-0.01168767958106473
1761475338315492000,3.2054921875,0.01329728846848011,0.005894330152042675,-0.004466952813602983
1761475338325469200,3.21546923828125,0.0038701194316148758,-0.004688534558855462,-0.0028380364375188943
1761475338335446000,3.225446044921875,0.006409867042303085,0.0070741213710047305,-0.0034498481929302214
1761475338345423000,3.235423095703125,-0.009006313276290893,-0.0018722373123979195,0.0008919804036617279
1761475338355400200,3.245400146484375,0.0025146131694316863,0.0010802615258668083,-0.0007894516109488904
1761475338365377300,3.255377197265625,0.012392448583245277,0.011232160074129933,-0.00848647238695994
1761475338375354400,3.265354248046875,0.010148469048738479,-0.0008305793474253732,0.0049997445160523055
1761475338385331200,3.275331298828125,-0.004814122283458709,-0.008701353821723023,-0.0033395014199428257
1761475338395308300,3.285308349609375,0.004167641073465347,-0.0018243396251287776,-0.02758992638355121
1761475338405285000,3.29528515625,0.007015431720018387,-0.004300021581747569,0.00658184434203431
1761475338415262200,3.30526220703125,0.010008768317103385,-0.004886711453989847,0.0003293598185293376
1761475338425239000,3.315239013671875,0.014648118555545805,-0.002880308101599803,0.005117324747424572
1761475338435216100,3.325216064453125,0.006116437053680419,-0.010104224623279878,0.006961947967112064
1761475338445193200,3.335193115234375,-0.004359364253282547,0.0010247890285623724,-0.004591236780397594
1761475338455170000,3.345170166015625,0.008809329399466515,0.013679630858061136,-0.004727813973184674
1761475338465147100,3.355147216796875,-0.016926584881544113,0.0025189434263214933,-0.003910615838784724
1761475338475124200,3.365124267578125,-0.007496493235230445,-0.01365908468530979,-0.015456877655163407
1761475338485101300,3.375101318359375,0.0029758009403944015,-0.004814452218665974,-0.014642766526993364
1761475338495078100,3.385078125,0.005370002600550651,0.005018367018131539,0.008692808614019304
1761475338505055200,3.39505517578125,0.008811082965135573,0.00887339847846888,0.009138287359196692
1761475338515032300,3.4050322265625,0.018986440020799637,0.004553459769987967,-0.0029732071245089173
1761475338525009200,3.415009033203125,0.004025017732381821,0.0059655664740595965,0.0066751486486755305
1761475338534986200,3.424986328125,-0.008096212694048881,-0.012704149447497912,0.003974639252014458
1761475338544963000,3.434963134765625,0.013900515058636664,-0.011374371281615458,-0.002301628005877137
1761475338554940200,3.444940185546875,0.0013350479960441588,-0.0019622456918994427,-0.016209047729335724
1761475338564917000,3.4549169921875,0.0007347440153360367,-0.005933065002033254,0.006920647842343896
1761475338574894000,3.46489404296875,-0.0025607903987169265,0.001314425333123654,0.013051314350776373
1761475338584871200,3.47487109375,0.0022252748340368268,-0.002479759910114808,-0.007405380885675549
1761475338594848300,3.48484814453125,0.01045475851893425,0.011977649245766223,-0.013716737723257391
1761475338604825300,3.494825439453125,0.0020738836646080018,0.005433754302433226,0.0025538857338950035
1761475338614802200,3.50480224609375,0.008357493978738785,-0.007786010808782885,0.0008729286433197558
1761475338624779300,3.514779296875,0.004166472029685974,-0.0007706510123563929,-0.007560808909405022
1761475338634756000,3.524756103515625,0.003119593325257301,-0.0013705143183586187,-0.01396057468280196
1761475338644733200,3.534733154296875,0.011647183173894881,-0.0031968381213082465,-0.01659110584948212
1761475338654710300,3.544710205078125,0.002523380997776985,0.005006668588827597,-0.002496109398361295
1761475338664687000,3.55468701171875,0.0005780921489000321,-0.008209342795878182,0.01591664065402001
1761475338674663400,3.564663330078125,0.0068622869849205015,-0.017584842152654892,0.005426756022777408
1761475338684640300,3.57464013671875,0.01179974338710308,-0.009465132135298336,0.0012072020989842712
1761475338694617300,3.584617431640625,0.0126963999658823,-0.004194674069219036,0.0010136157556436954
1761475338704594200,3.59459423828125,0.010450082343816756,0.006305330097238765,-0.004437178729847073
1761475338714571300,3.6045712890625,-0.00047404725253581996,-0.007583849574986379,0.007950337949953973
1761475338724548000,3.614548095703125,0.0026665888607501982,0.009800478736619697,-0.00004508125074207783
1761475338734525200,3.624525146484375,-0.0013736264407634734,0.004954901868972229,0.004160462414007634
1761475338744502300,3.634502197265625,-0.007210077509284019,-0.004133899775712052,0.0023283150834031404
1761475338754479000,3.64447900390625,-0.0036211131066083905,-0.0030666153207828755,0.0008946472847834229
1761475338764456200,3.654456298828125,0.015084171885251999,0.009638271628943039,-0.0041928120473399754
1761475338774433000,3.66443310546875,-0.004967851540446281,0.010106717974465572,0.005236201886739581
1761475338784409300,3.674409423828125,0.011043956583738326,-0.0006457733905175701,0.001657357019279152
1761475338794386400,3.684386474609375,0.00027004911303520204,-0.007209209859604016,-0.01151153756286949
1761475338804363500,3.694363525390625,0.002214168918132782,-0.002557820981851546,-0.018143121064454315
1761475338814340400,3.70434033203125,0.012688801181316375,-0.00848146399334655,-0.010340100897010415
1761475338824317400,3.7143173828125,0.01807692396044731,-0.004696019178989809,0.009599055005051194
1761475338834294300,3.724294189453125,0.0038590135157108305,-0.0017059716591786127,0.003946837929636239
1761475338844271400,3.734271240234375,0.0013104980766773223,0.0030747095789818556,-0.00788949287449941
1761475338854248200,3.744248291015625,0.0059475102275609966,0.004560529973235679,-0.006906948110554367
1761475338864225300,3.754225341796875,0.012830255478620529,-0.00811822131316876,0.009363985873851925
1761475338874202400,3.764202392578125,0.015073065969347953,-0.007137645885668462,0.005110584479384124
1761475338884179500,3.774179443359375,-0.004381576085090637,-0.006034533207176718,-0.004526628845278173
1761475338894156500,3.784156494140625,0.00893675517141819,-0.012746682548127136,-0.011708174379821867
1761475338904133400,3.79413330078125,0.005044423907995223,0.00017458481534849852,0.00005737447673454881
1761475338914110500,3.8041103515625,-0.0019891279906034467,0.00010500501923379487,0.0022617709195241332
1761475338924087300,3.81408740234375,0.008636895442008971,-0.006704064215905964,-0.01262037558760494
1761475338934064400,3.824064453125,-0.0018365677773952483,-0.0008943835649464745,-0.004810578619502484
1761475338944041500,3.83404150390625,0.009984218397736548,-0.008302629977854666,-0.014550028475932775
1761475338954018300,3.844018310546875,0.01312602355480194,0.002784857503644889,0.018181388981919736
1761475338963995400,3.853995361328125,0.0041512744605541226,0.007765777446574066,-0.00413552890215069
1761475338973972200,3.86397216796875,-0.008118424525856972,-0.008899124291480985,0.0021746406253427266
1761475338983949300,3.87394921875,0.0031061493217945098,-0.004064777778967982,0.002265625110734254
1761475338993926400,3.883926513671875,0.010140285742282866,-0.0015786714681016746,0.0006544270544312894
1761475339003903500,3.893903564453125,-0.011257891595363617,-0.005441140741156414,0.008292593782674522
1761475339013880600,3.903880615234375,-0.0004851531684398651,0.00010268063140683807,-0.010600487132556735
1761475339023857400,3.913857421875,-0.00018646248281002043,-0.0061393087559030385,-0.014667279913742094
1761475339033833500,3.92383349609375,-0.0025800796210765837,-0.005156678368634311,-0.007328497990872711
1761475339043810300,3.933810302734375,-0.009614800563454628,-0.012831598052335903,-0.0013993636702187358
1761475339053787400,3.943787353515625,-0.00018938509225845335,-0.00037643894682405513,-0.0019372516728937625
1761475339063764200,3.95376416015625,0.011930091768503188,0.008636926266405498,0.0002767163158394396
1761475339073741300,3.9637412109375,-0.003335281902551651,-0.0002951298970088828,-0.012084716074634343
1761475339083718400,3.973718505859375,0.0066904375493526454,-0.00036394250814337283,-0.014346505260467528
1761475339093695500,3.983695556640625,0.011179565662145613,0.0023086331353988497,-0.005357471912540495
1761475339103672600,3.993672607421875,0.007137012273073196,0.003255905656563118,0.004401778622902929
1761475339113649400,4.0036494140625,0.013719313272833824,-0.004650523511361098,-0.002541428111121058
1761475339123626500,4.01362646484375,0.009974866047501564,-0.010862239916349062,-0.0047659540264867245
1761475339133603300,4.023603271484375,0.009230185160040856,-0.011854777492990251,-0.0049173634622246025
1761475339143580400,4.033580322265625,-0.0021399346381425857,-0.008088426679815165,0.0013026070311665534
1761475339153557200,4.04355712890625,-0.0003442833930253982,-0.006125853335997089,-0.003023622137494385
1761475339163534300,4.053534423828125,0.010580430725216866,-0.003110178184584947,0.00538322740830481
1761475339173511400,4.063511474609375,-0.0013905775755643844,-0.002437079537368845,0.0067403045730665325
1761475339183488300,4.07348828125,0.0047451487004756925,0.006581138805847149,-0.008492810796201228
1761475339193465300,4.08346533203125,0.00893500160574913,-0.010566762959468177,-0.010148450782429427
1761475339203442400,4.0934423828125,-0.0006412205129861831,-0.004495229060016572,0.005436930356919765
1761475339213419500,4.10341943359375,-0.004678513205051422,-0.013622193590889219,-0.003417462026979774
1761475339223396400,4.113396240234375,-0.0015349544823169707,0.001037246651336318,-0.0015759988787584006
1761475339233373400,4.12337353515625,0.014924012887477875,0.004243138012068812,-0.011204754902329295
1761475339243350500,4.1333505859375,0.0016097732841968534,-0.008066052734514233,0.0010568155765533446
1761475339253327400,4.143327392578125,0.0019090484917163848,-0.015074087741010588,-0.007472893163934349
1761475339263304400,4.153304443359375,-0.0006377133816480637,-0.005059914879716234,-0.00025843174047768117
1761475339273281300,4.16328125,0.009836334359645843,0.00014561444919090717,-0.003416146852727979
1761475339283258400,4.17325830078125,0.0038490766435861586,0.001499653698428301,-0.0054344461388885976
1761475339293235200,4.183235107421875,-0.004530044645071029,0.0011427676938008517,-0.00225797152724117
1761475339303212300,4.19321240234375,0.0005599719703197479,-0.004812502290174598,-0.0014405907297506927
1761475339313189600,4.203189697265625,-0.003481412374973297,0.004125118247634963,-0.005967347439192235
1761475339323166500,4.21316650390625,0.005498012894392014,-0.012636949979781638,-0.011024758692923933
1761475339333143600,4.2231435546875,0.014328385081887244,-0.009066086347732925,0.007898242436535656
1761475339343120400,4.233120361328125,0.008940846824645996,-0.010408270762395113,-0.0030507293401286005
1761475339353097500,4.243097412109375,-0.000339022696018219,-0.002203955768083688,0.003003456132300198
1761475339363074300,4.25307421875,0.008785364001989364,-0.0027585642934078347,-0.0050734673393890255
1761475339373050400,4.26305029296875,-0.0004915829092264175,-0.004319045942625962,-0.004000961003359407
1761475339383027200,4.273027099609375,0.0016027590215206145,0.00008434810698381624,0.004206694442220032
1761475339393004500,4.283004638671875,0.005939326921105385,0.0032663471354753707,0.0028917393861338497
1761475339402981400,4.2929814453125,-0.0012409399718046187,-0.0128463218390767,-0.00494198644682765
1761475339412958500,4.30295849609375,0.008338789278268813,0.007871514259814284,-0.0031818997054360804
1761475339422935600,4.312935546875,0.017466683107614515,0.009041014696913771,-0.002575147717632353
1761475339432912400,4.322912353515625,-0.0018377368211746215,0.0035431524995714423,0.008595796246640384
1761475339442889500,4.332889404296875,-0.0033329438149929044,-0.00328354029887123,-0.010360413032677023
1761475339452867600,4.34286767578125,0.002649637725949287,-0.004444385930412681,0.010475746508035809
1761475339462843400,4.352843505859375,0.015668109253048897,0.002418716188549297,0.007934884652495384
1761475339472820200,4.3628203125,0.021352000108361243,-0.0009284422398195602,-0.004436813403666019
1761475339482797300,4.37279736328125,0.010431962165236473,-0.015314418710861354,-0.007284220457728952
1761475339492774400,4.3827744140625,0.008185060021281242,0.0029272719238186253,0.0062499272402375934
1761475339502751200,4.392751220703125,-0.0034878421157598493,-0.0014680838081636465,0.0026023279855027794
1761475339512728600,4.402728515625,0.016261398971080778,-0.007029644050105708,0.002804554293025285
1761475339522705400,4.412705322265625,0.016407529443502426,0.0052841372482711445,0.004905472095031291
1761475339532682500,4.4226826171875,-0.0008019640326499939,0.0036588638591987543,0.010985358264297246
1761475339542659300,4.432659423828125,0.024188684839010238,-0.013064875943603692,0.011330080048739909
1761475339552636400,4.442636474609375,0.005783844098448753,0.0005512246915721334,0.007323547821119427
1761475339562613500,4.452613525390625,0.0009913491249084472,-0.00023013608611072414,-0.008398447043634951
1761475339572590300,4.46259033203125,-0.003050619742274284,-0.001678445473080501,0.009480561458226292
1761475339582567400,4.4725673828125,0.005627192232012748,-0.015202199641196056,-0.0038735900303348897
1761475339592544300,4.482544189453125,0.008617606219649314,0.001880147765862057,-0.0006812602624297142
1761475339602521300,4.492521240234375,0.00846446148455143,-0.0028625749404425733,-0.0006801825501956046
1761475339612498200,4.502498291015625,0.006218143862485885,0.0003457618224143516,-0.0044866256284527475
1761475339622475300,4.512475341796875,0.00651683454811573,-0.004668854894139804,-0.000021335048973560333
1761475339632452600,4.52245263671875,0.005619008925557136,-0.005604901626746869,0.002811769485101104
1761475339642429400,4.532429443359375,0.001429156020283699,0.005791204279352678,-0.01095419594105333
1761475339652406500,4.542406494140625,-0.0008183306455612182,-0.0027045428260287735,0.008972867664415388
1761475339662383400,4.55238330078125,0.0060644146054983136,0.005223880119639215,-0.003751461488008499
1761475339672360400,4.5623603515625,0.015194062000513075,0.009677243940951302,0.0005102876096963882
1761475339682337300,4.572337158203125,0.013098551025986671,-0.005473677604156546,-0.01404576874822378
1761475339692314400,4.582314453125,0.0002291325807571411,-0.011924776272568851,0.002858184176404029
1761475339702291500,4.59229150390625,0.0003828618377447128,-0.004156814860418671,-0.0038651509955525396
1761475339712268300,4.602268310546875,0.0039770869374275205,-0.010467011787375668,-0.005246138758864254
1761475339722245400,4.612245361328125,0.010410334855318068,-0.002352130925474921,-0.012778251296747475
1761475339732222200,4.62222216796875,0.013104396244883536,0.0031722174199938307,0.007286394148506224
1761475339742199300,4.63219921875,0.0003863689690828323,-0.0022933065604593137,0.0025560228920541704
1761475339752176400,4.64217626953125,0.020738836646080016,-0.0016537357235094532,0.0005166625515557825
1761475339762153500,4.652153564453125,0.011613280904293059,0.0020699335752753538,0.001662508118432015
1761475339772130600,4.662130615234375,0.017596446967124937,0.003593511571985436,-0.020886008298117667
1761475339782107600,4.672107666015625,0.0017336919248104093,-0.0005759766819828655,-0.006564674011524766
1761475339792084700,4.682084716796875,0.0030757541835308073,-0.011419360059167957,-0.0028632987429387867
1761475339802061600,4.6920615234375,0.010559387937188148,-0.007803411751444218,0.011295337528921662
1761475339812037600,4.70203759765625,0.013854337829351424,-0.00398612876040861,-0.007159516365826129
1761475339822014500,4.712014404296875,0.011907879936695098,0.001203537420730572,-0.019320896139554677
1761475339831991600,4.721991455078125,0.0023328268617391584,-0.0017867281531449405,-0.019854783820547162
1761475339841968600,4.73196875,-0.00021101240217685698,0.0025540375725890043,-0.012218224527500569
1761475339851945700,4.74194580078125,0.0017331074029207228,-0.007478610518667847,0.01080088680917397
1761475339861922800,4.7519228515625,-0.00395312153995037,-0.009232756143040022,-0.008959350595716387
1761475339871899600,4.761899658203125,-0.006498129847645759,-0.0064676251115277405,0.007311565122380852
1761475339881876700,4.771876708984375,-0.003953706061840057,0.0012018489287875125,-0.008697356924973428
1761475339891853600,4.781853515625,-0.0012619827598333358,-0.012444491581025067,-0.0005261062333360314
1761475339901830700,4.79183056640625,-0.004551087433099747,-0.001855355817900272,0.004373009186144918
1761475339911807500,4.801807373046875,-0.006495207238197327,0.006190481820714194,0.003068374594673514
1761475339921784600,4.81178466796875,-0.006495207238197327,0.0006324013106466736,0.005034103443380445
1761475339931761700,4.82176171875,-0.0024584990680217743,-0.006878814569680252,-0.010517448491603135
1761475339941738500,4.831738525390625,0.021782208219170568,-0.008050035464763641,-0.008618830062355845
1761475339951715600,4.841715576171875,0.0032259763091802597,-0.001034035205875989,-0.007756404546741396
1761475339961692700,4.851692626953125,0.009511340188980102,-0.0028526312184520065,-0.013429445214476435
1761475339971669800,4.861669677734375,0.002926116579771042,-0.008995786174054955,-0.010648746721073984
1761475339981646600,4.871646484375,0.007262099957466125,0.0026592115551815365,0.00013831249214708803
1761475339991623700,4.881623779296875,-0.0015635960549116134,-0.003810031266341684,0.0011575542709790169
1761475340001600800,4.891600830078125,-0.0006675239980220794,0.005865320969978347,-0.012400083900429308
1761475340011577600,4.90157763671875,0.011454875472187995,0.013340704060165444,-0.0028936025496572254
1761475340021554700,4.9115546875,0.006519172635674476,0.006188975991861662,0.015601528556551784
1761475340031531500,4.921531494140625,0.011752397114038467,0.0009608489553676918,-0.009400299296248704
1761475340041508600,4.931508544921875,0.0035240824729204177,-0.0007972307753167114,-0.009944251713529228
1761475340051485400,4.9414853515625,0.0030740006178617474,-0.0002358020668500103,-0.001178523993771523
1761475340061462500,4.951462646484375,0.007865911069512366,-0.006458797917678021,-0.002225439230818301
1761475340071439600,4.961439697265625,0.007116554006934166,-0.016638896222185576,-0.009010898119863123
1761475340081416700,4.971416748046875,0.004271101447939872,-0.007846758844470605,-0.005671871623955667
1761475340091393800,4.981393798828125,-0.0030611411362886426,-0.0011440783014753833,0.0010653459428809583
1761475340101370600,4.99137060546875,-0.009199790021777152,0.006134028650942491,-0.0002814472898840904
1761475340111347700,5.00134765625,-0.0032177930027246474,-0.006778314478916581,-0.02375193738956004
1761475340121324500,5.011324462890625,0.007558452555537223,0.0021301884206186513,0.00462618022961542
1761475340131300600,5.021300537109375,-0.009352350234985351,0.015883736181550194,0.004867003248166293
1761475340141277400,5.03127734375,0.003669628423452377,0.010364087985729565,-0.02373456612965092
1761475340151254500,5.041254638671875,-0.017279051581025124,0.0005347793052031193,-0.013526841174345463
1761475340161232000,5.05123193359375,0.003969488152861595,0.00553295063538826,-0.005302709518000483
1761475340171208700,5.061208740234375,0.011154431220889091,0.00040423798591364174,-0.013130224805884062
1761475340181185800,5.071185791015625,0.007114215919375419,0.010293307179794646,-0.007284622316528111
1761475340191162600,5.08116259765625,0.01160451307594776,0.0005246837445185519,-0.012171079183835535
1761475340201139700,5.0911396484375,0.007267945176362991,0.005091958552371943,0.010691690813656896
1761475340211116500,5.101116455078125,0.012207739666104316,0.004294343042920809,0.004756510344706475
1761475340221093600,5.11109375,0.009364040672779083,-0.005268148519628448,-0.012015888622123747
1761475340231070700,5.12107080078125,0.003230652484297752,-0.004341176717687631,0.0067602696488611395
1761475340241047600,5.131047607421875,0.010409165811538695,-0.000015106237586587667,-0.005698284706845879
1761475340251024600,5.141024658203125,0.011005962660908699,0.006833244695171015,-0.0071023428184911605
1761475340261001500,5.15100146484375,0.007118307572603225,-0.006743610775005072,0.006641739569418132
1761475340270978800,5.160978759765625,-0.008143558967113494,0.001498550870019244,-0.01621814435124397
1761475340280955600,5.17095556640625,-0.00006137479841709136,-0.0021360507641802542,-0.016298187317512928
1761475340290932700,5.1809326171875,0.0021855273455381394,0.000011495216615730896,-0.005738360988907515
1761475340300909800,5.190909912109375,0.0005389291822910309,-0.007166786356829107,-0.0056014915351755915
1761475340310886700,5.20088671875,0.0033837972193956375,-0.005653818802390014,0.009129209003597497
1761475340320863700,5.21086376953125,0.008618775263428687,0.0027918306671257595,-0.0002367496316321194
1761475340330840600,5.220840576171875,0.01205985562801361,0.015727233870519556,0.00826362341651693
1761475340340817700,5.230817626953125,0.013106734332442282,-0.002099513579497579,-0.0008761069810949265
1761475340350794500,5.24079443359375,0.002034136176109314,0.0027952179258107206,-0.006247917946241795
1761475340360771600,5.250771484375,0.009515431842207909,0.008055990281514823,-0.011215605089906603
1761475340370748700,5.260748779296875,-0.004252981269359589,0.007774964258383261,0.002630458101443946
1761475340380725500,5.2707255859375,-0.009490881922841072,-0.011355754487757804,-0.0045862683443352575
1761475340390702800,5.280702880859375,0.011163783571124077,0.004312101320252986,-0.004246259267628193
1761475340400679700,5.2906796875,0.009816460615396498,0.00027286326627363447,0.003065506784152239
1761475340410656800,5.30065673828125,0.00921732567846775,-0.006413167536020046,-0.0018997692067176102
1761475340420633600,5.310633544921875,0.002484218031167984,-0.01043046432789415,0.009663754271715879
1761475340430610700,5.320610595703125,0.004728782087564468,0.0010873020463623105,-0.005603939220588654
1761475340440586500,5.33058642578125,0.004575637352466583,-0.007901283776992932,-0.0027476547403261064
1761475340450563600,5.3405634765625,-0.0014110358417034148,-0.00869506221989868,0.002601158941723406
1761475340460540400,5.35054052734375,0.004725274956226349,-0.004818123746785568,-0.006041855713818222
1761475340470517800,5.360517822265625,0.016549568262696265,0.004761828123929444,-0.007415007230546325
1761475340480494800,5.370494873046875,0.0008370353460311889,-0.0028828391270479185,-0.002346636191383004
1761475340490471700,5.3804716796875,0.015053776746988295,-0.00467724597986089,-0.00395169676784426
1761475340500448800,5.39044873046875,0.00023906945288181304,0.006607663769880309,0.004098959751427173
1761475340510425600,5.400425537109375,0.021334464451670646,0.007366785316291497,0.0024802542421035467
1761475340520402700,5.410402587890625,0.007715104421973228,-0.006469569331797538,0.0029925511457957327
1761475340530379500,5.420379638671875,0.01370119309425354,-0.0035144447116064836,-0.012987144807074219
1761475340540356600,5.430356689453125,-0.005156067588925361,0.0022740173380996565,-0.004130176873598248
1761475340550333700,5.440333740234375,0.015194646522402763,-0.0011236839674180373,-0.0017324315494857728
1761475340560310500,5.450310546875,0.006218143862485885,-0.005305974620743654,-0.025303295017406344
1761475340570287600,5.46028759765625,0.016540800434350966,-0.003272011974570341,-0.011187054848857224
1761475340580264400,5.470264404296875,0.007708674681186675,0.008106965841859345,0.00363528776243329
1761475340590241800,5.48024169921875,-0.0036637832045555113,-0.00021771042937762102,-0.0041508360691368575
1761475340600218600,5.490218505859375,0.013692425265908241,-0.004770898488018429,0.004600625663250684
1761475340610195700,5.50019580078125,0.01878010379374027,0.003921289071493084,-0.014842727812193333
1761475340620172800,5.5101728515625,-0.005911854392290115,-0.00820196320702089,0.002729443230200559
1761475340630149600,5.520149658203125,-0.001572363883256912,-0.005811223012430127,-0.0010106383472681046
1761475340640126700,5.530126708984375,-0.0003752630531787872,0.0005197883736924268,-0.010283073480147868
1761475340650103600,5.540103515625,0.0156330379396677,-0.010730207609583157,-0.009942461615242064
1761475340660080600,5.55008056640625,0.0012678279787302017,0.0020751862807723226,-0.01488030160991475
1761475340670057500,5.560057373046875,-0.011449614775180816,-0.001555602261412423,0.01270814520260319
1761475340680034600,5.57003466796875,0.0021668226450681687,-0.012531306781375314,0.0025104301846586166
1761475340690011600,5.58001171875,0.004110942450165749,-0.018528624667145777,-0.007414660170674324
1761475340699988500,5.589988525390625,0.009646364745497703,-0.0023011542234860826,-0.010461791047919541
1761475340709965800,5.5999658203125,-0.004118541234731674,-0.005042064129194477,0.004275412296876311
1761475340719942700,5.609942626953125,0.0033697686940431593,0.0016203825848235282,-0.002821742889843881
1761475340729919700,5.619919677734375,-0.006651859104633331,-0.006007792472367873,-0.010729776068031787
1761475340739896600,5.629896484375,0.01833703620135784,-0.0015786166691745165,-0.00192305875075981
1761475340749872600,5.63987255859375,0.012352116572856902,0.005813572516432032,0.0003193681474775076
1761475340759849500,5.649849365234375,0.00007657236754894256,0.014308595819317269,-0.022327877669502047
1761475340769826600,5.65982666015625,-0.0021656536012887953,-0.0008952603477810043,-0.006081986794807016
1761475340779803600,5.6698037109375,0.006214052209258079,-0.007272165835398482,0.011877795325685291
1761475340789780700,5.67978076171875,-0.0047141690403223035,-0.0022243147111672443,-0.004766428950522095
1761475340799757800,5.6897578125,0.005307458758354187,-0.005343139709800016,-0.009425013612397014
1761475340809735000,5.69973486328125,0.012642623952031135,-0.006525738232134608,-0.011858104244526475
1761475340819711700,5.709711669921875,-0.00022328736186027524,0.0003155459223082289,-0.005005060011986643
1761475340829688800,5.719688720703125,0.004264087185263633,0.00629057891103439,-0.00611400763457641
1761475340839666000,5.729666015625,0.0099514851719141,-0.007103598627238534,0.011733619348332286
1761475340849642800,5.739642822265625,0.006209376034140586,0.012454007186397211,-0.0029849158286117017
1761475340859619800,5.749619873046875,0.021468319964408872,0.007731810103246244,0.009428520743735134
1761475340869596700,5.7595966796875,0.00919511384665966,0.0009128473784658126,-0.0038393041682429608
1761475340879573800,5.76957373046875,0.013385551273822783,0.001375103728508111,0.0026075521498918532
1761475340889550600,5.779550537109375,-0.003824526724219322,-0.014754757267795503,0.0013371851542033255
1761475340899527700,5.789527587890625,0.0003635726153850555,0.013078541426063748,-0.00352983636027202
1761475340909504800,5.7995048828125,0.016374796217679975,0.0007137035105959511,-0.01593114410340786
1761475340919481900,5.80948193359375,0.00006605097353458404,0.00603507548822672,-0.008993764321971685
1761475340929459000,5.819458984375,0.008445172262191773,-0.010170076950703514,-0.0052657202421687544
1761475340939435800,5.829435791015625,0.0070960957407951355,0.0075623078883916605,0.006302990868035704
1761475340949412900,5.839412841796875,0.009786649999022482,0.004145901882403996,-0.00457892528809607
1761475340959389700,5.8493896484375,0.019361118552088736,-0.00018058529787231235,0.0035578751446679233
1761475340969366800,5.85936669921875,0.01487140591740608,-0.009422351297852582,-0.013539883319009094
1761475340979344000,5.86934375,-0.00697217710018158,0.001244082918606,0.003359667425137013
1761475340989320700,5.87932080078125,-0.0012836100697517395,0.005142461471969727,-0.010905552760045975
1761475340999297800,5.8892978515625,0.004703063124418258,-0.0057285839469870545,-0.011925232930295168
1761475341009274600,5.899274658203125,0.009342997884750365,-0.005088376072508981,0.008036280934046954
1761475341019251700,5.909251708984375,0.0038028994143009184,-0.013457323027023812,-0.014848317302763462
1761475341029228800,5.919228759765625,0.00963818143904209,0.013244567333976737,-0.0021575250937603415
1761475341039206000,5.929205810546875,0.004848024553060532,-0.010429081796627724,-0.006709215315058827
1761475341049181700,5.939181640625,0.00709025052189827,0.009537068285280838,-0.0035075149306096134
1761475341059158800,5.94915869140625,0.0075362407237291335,0.015933128281228708,-0.00482546566138044
1761475341069135600,5.959135498046875,-0.005633037450909614,-0.009799208086496218,-0.016107724513020366
1761475341079112700,5.96911279296875,-0.0009942717343568801,-0.006655916508531663,-0.004886164606362581
1761475341089089800,5.97908984375,0.005438976183533668,0.007074218410771572,-0.007465860634949058
1761475341099066600,5.989066650390625,-0.0009977788656949996,-0.0036887612405407705,-0.014893562950287013
1761475341109043700,5.999043701171875,-0.004441197317838669,-0.0030857275882735847,0.012265132409147917
1761475341119020800,6.009020751953125,-0.003689502167701721,0.013228987313999095,-0.002105959303304553
1761475341128998000,6.018997802734375,0.00139817636013031,-0.007743352127278922,0.01451879308745265
1761475341138974700,6.028974609375,0.004688450077176094,-0.013061085684475256,0.011160787896439433
1761475341148951800,6.038951904296875,0.006931260567903518,-0.00513823167977971,-0.009711630267743021
1761475341158929000,6.048928955078125,0.011570026284456253,0.0008205785432190168,-0.009280819368734955
1761475341168905700,6.05890576171875,0.009625321957468985,-0.014846974729048088,-0.004325973440334201
1761475341178882800,6.0688828125,-0.009825812965631484,-0.006553614903037669,-0.014270188621245324
1761475341188859600,6.078859619140625,-0.011022329273819922,0.008227513206808361,-0.004370762430131435
1761475341198836700,6.088836669921875,0.0005009352594614029,0.005493286486924626,-0.00013833075845614076
1761475341208813600,6.0988134765625,0.004240121787786483,0.0023955122678307817,-0.00275307983411476
1761475341218790700,6.108790771484375,-0.0032417584002017974,-0.0019716516994172707,-0.008893390953727065
1761475341228767700,6.118767822265625,0.005886135429143905,-0.004186611777060898,0.0003986073961481452
1761475341238744800,6.128744873046875,-0.002492401337623596,0.001124346121121198,0.0032969957187771793
1761475341248722000,6.138721923828125,-0.0015963292807340621,-0.011450617138890083,-0.010393968242406845
1761475341258698800,6.14869873046875,-0.002941314148902893,0.0015296264282951596,0.00013392857797443866
1761475341268675800,6.15867578125,-0.0005459434449672699,-0.0008746473888371838,-0.022402678205072878
1761475341278652700,6.168652587890625,0.011274842730164528,0.004663562231091782,-0.020487784494459628
1761475341288629800,6.178629638671875,0.003496609944105148,0.0038859340594994134,-0.0036198161986656487
1761475341298606800,6.18860693359375,0.0054430678367614746,0.002882373336167075,-0.006999868824705481
1761475341308583700,6.198583740234375,0.01068564466536045,0.003641121564886998,-0.017123404361587016
1761475341318560800,6.208560791015625,-0.006523848810791969,0.0005547603640181478,0.006171418643929064
1761475341328536800,6.218536865234375,-0.0014385083705186843,-0.0008610469801031285,-0.013670158635172992
1761475341338514000,6.228513916015625,0.00005903671085834503,-0.003387252976739546,-0.01585771354101598
1761475341348490800,6.23849072265625,-0.001889174747467041,-0.003636159978690557,-0.02389991275919601
1761475341358467800,6.2484677734375,-0.00488251134455204,0.005651316318049794,-0.008230177804641425
1761475341368444700,6.258444580078125,0.010979659175872802,-0.00023924469528428742,-0.0011736651555635034
1761475341378421800,6.268421875,0.0055932899624109265,0.006072459772991715,-0.00922664149608463
1761475341388398800,6.27839892578125,0.010236147332191466,0.002470531999110244,-0.008763572295289486
1761475341398375700,6.288375732421875,-0.006672317370772361,0.0009044072020391468,-0.009778210964240133
1761475341408352800,6.298352783203125,0.005001169288158416,0.0018414562983554788,0.0021033106884919108
1761475341418329600,6.30832958984375,0.009640519526600838,0.01008794591698097,0.0016710750173777342
1761475341428307000,6.318306884765625,-0.009362287107110023,-0.0072676928729692005,-0.00499660271089524
1761475341438283800,6.32828369140625,-0.006220481950044631,0.007827173936233157,-0.007129249091725796
1761475341448260900,6.3382607421875,0.00485328525006771,0.001660285907771322,0.0014198219363577662
1761475341458238000,6.348238037109375,0.0054512511432170865,-0.005197159934428055,-0.006675769703183323
1761475341468214800,6.35821484375,0.008146481576561927,0.009181730350345606,0.007457786926347762
1761475341478191900,6.36819189453125,-0.0015817162334918974,-0.008865532549133057,-0.007273552933242172
1761475341488168700,6.378168701171875,0.00769581519961357,-0.01140002973761293,-0.015368760980293154
1761475341498145800,6.388145751953125,0.006498714369535446,-0.003208106150705134,-0.015364103071484714
1761475341508122600,6.39812255859375,0.0008107318609952926,0.00749214071627648,0.0052280733792111275
1761475341518099700,6.408099609375,0.005296937364339828,-0.00020976686822832562,0.018871691067330536
1761475341528076800,6.418076904296875,0.006794482445716858,0.00506473946859478,0.005012366535607725
1761475341538053600,6.4280537109375,-0.0015834697991609571,0.007548121816123602,0.00461463592229411
1761475341548031000,6.438031005859375,0.004700140514969826,0.012877529828093247,-0.019512856781389563
1761475341558007800,6.4480078125,-0.003081599402427673,0.009217596248170593,-0.009673070089332759
1761475341567985000,6.45798486328125,0.0011111761122941971,0.012762358466227305,0.0025716588526032863
1761475341577961700,6.467961669921875,0.021909633991122245,0.004767696175712626,-0.00587941342741251
1761475341587938800,6.477938720703125,0.0020095862567424774,-0.0013336095242062582,-0.004760748128406703
1761475341597916000,6.487916015625,0.0005132102191448212,0.0016513548242888644,0.0009286226196214556
1761475341607891700,6.4978916015625,0.0036509237229824065,-0.01026547274973127,-0.013023257300071417
1761475341617868500,6.50786865234375,-0.008474398356676101,-0.0008280095060705207,0.0048985308975912625
1761475341627846000,6.517845947265625,0.0017038813084363936,0.009221300883975344,0.006362265040911734
1761475341637823000,6.527822998046875,-0.0020376433074474334,0.003613669585669413,-0.009532949232589454
1761475341647799800,6.5377998046875,-0.0015904840618371963,0.006447981979430187,0.0035823519987985488
1761475341657777000,6.54777685546875,0.009933364993333816,0.0016196564990386831,0.0013976466371677814
1761475341667753700,6.557753662109375,0.0034983635097742076,-0.0003398903456982225,-0.004626107164379209
1761475341677730800,6.567730712890625,0.006192424899339676,-0.007411882550053996,0.005285429589636624
1761475341687707600,6.577707763671875,0.005149053326249122,0.003604837254420272,-0.00908905965629965
1761475341697684700,6.587684814453125,-0.006671148326992988,0.0011423007612756917,0.01551536637675017
1761475341707661800,6.597661865234375,-0.0033802900880575176,-0.008928369223096524,0.0006399418713524937
1761475341717638700,6.607638671875,0.00021335048973560332,0.006872148508520331,0.008381532441452145
1761475341727615700,6.61761572265625,0.007696399721503257,0.004305253166824696,-0.007725936343241482
1761475341737592600,6.627592529296875,0.009341828840970992,-0.0178590479926439,-0.017783822765387595
1761475341747570000,6.63756982421875,0.008893500551581382,-0.0006296528019563993,0.000055511313211172816
1761475341757546800,6.647546630859375,0.006349661287665367,-0.006023498073220252,0.009769863261003047
1761475341767523800,6.65752392578125,0.006500467935204505,-0.005341698954673483,-0.014109335503727196
1761475341777501200,6.667501220703125,0.002762450450658798,0.017313328309962524,-0.017448453331179916
1761475341787478000,6.67747802734375,0.0000672200173139572,0.00432880757234816,0.0032880452273413535
1761475341797455000,6.687455078125,0.00021627309918403624,0.0030561064848559907,-0.013195837388001381
1761475341807432000,6.697431884765625,0.006056231299042702,0.0008785209880006732,-0.0009181194919161498
1761475341817409000,6.707408935546875,0.009196867412328719,0.0038250182020972716,-0.0014255027584731577
1761475341827386000,6.71738623046875,0.004407295048236846,-0.00000975192574551329,0.012423044650908559
1761475341837363000,6.727363037109375,-0.014300328031182289,0.015661937523877713,-0.005783259576559067
1761475341847340000,6.737340087890625,0.00694470457136631,0.008654258139585726,-0.009362615900672971
1761475341857316900,6.74731689453125,0.009787819042801857,-0.013377542638947488,-0.009670275344047696
1761475341867294000,6.7572939453125,-0.0029319617986679077,0.014532094385375966,-0.012669511958956717
1761475341877271000,6.76727099609375,0.005000000244379043,-0.00113537954261119,0.0027859591904096305
1761475341887247000,6.7772470703125,-0.0006873977422714233,0.002024803804649855,-0.00011036503929644822
1761475341897224000,6.787223876953125,0.008289104917645455,-0.0015599359432351774,-0.006622158086113631
1761475341907201000,6.797200927734375,0.010679799446463585,-0.0014913385320542147,0.001471004134323448
1761475341917177900,6.807177734375,0.013822189125418662,0.004388045212606084,-0.005409019436687231
1761475341927155000,6.817155029296875,0.004691957208514213,-0.002444823881585034,0.004973039172217249
1761475341937132000,6.827132080078125,-0.006231587865948677,0.0025566936080896993,0.006628715691063553
1761475341947108900,6.83710888671875,0.008432312780618668,-0.0011641107342846226,0.007045187537465244
1761475341957086200,6.847086181640625,0.0045434886485338204,0.011814036773936823,-0.004396536192204803
1761475341967063000,6.85706298828125,0.022801029872894285,-0.003628606859897263,-0.004321699124015867
1761475341977040100,6.8670400390625,0.01576981606185436,-0.011903396699466974,-0.0005178315953351557
1761475341987017000,6.877016845703125,0.008588964647054671,-0.0037901432515383927,-0.001953600019495934
1761475341996994000,6.886994140625,0.01741816779077053,0.010181710306281457,-0.006888608736265451
1761475342006971100,6.89697119140625,0.014123217898607253,0.006282896786433411,-0.004907444856408983
1761475342016948000,6.906947998046875,0.0033481413841247557,0.008963984529994196,0.001938639912381768
1761475342026925000,6.916925048828125,-0.004281622841954231,-0.0007138119668059517,0.0029197599042207
1761475342036902000,6.92690185546875,-0.005927636483311653,0.01377107770940056,0.008750256155990064
1761475342046879000,6.93687890625,0.008436404433846472,0.007389445814315695,-0.005806384723819792
1761475342056855800,6.946855712890625,0.004094575837254524,0.0011262840623472584,-0.023409626757912336
1761475342066833000,6.9568330078125,0.007386603119969367,-0.00784477352500544,-0.004551050900481641
1761475342076810200,6.966810302734375,0.017114216408133504,-0.005724483160604722,-0.00778471732577309
1761475342086787000,6.976787109375,0.008138298270106314,0.0022164316571666857,-0.006801277512684464
1761475342096764200,6.98676416015625,-0.007122983747720718,0.0035152210297412236,0.016002729768585414
1761475342106741000,6.996740966796875,0.006491700106859207,0.003373214176588226,-0.012515399109479039
1761475342116718000,7.006718017578125,0.003494856378436088,0.009348099322375491,0.0061883515124209225
1761475342126695000,7.01669482421875,0.004540566039085388,-0.00021331053218455053,-0.0069007558317855
1761475342136672000,7.026672119140625,0.008882394635677337,-0.005116212785860989,-0.0081604735692963
1761475342146649000,7.036649169921875,-0.005333762243390083,0.0059886111353960585,-0.008191635892540216
1761475342156625200,7.046625244140625,-0.0011450783818960188,0.011230231836880556,-0.0010607610993087291
1761475342166602200,7.056602294921875,0.0063338791966438285,0.00025660682203888427,-0.004764054330345243
1761475342176579000,7.0665791015625,-0.013120178335905074,-0.0004456979408860206,0.008350972906406968
1761475342186556200,7.07655615234375,-0.003242342922091484,0.00006140276870282833,-0.003100103173498064
1761475342196533000,7.086532958984375,0.011273089164495468,0.00123970185854414,-0.009660301939304918
1761475342206510000,7.096510009765625,0.0013987608820199965,0.006795250772341387,-0.022452746158186345
1761475342216487000,7.10648681640625,0.01980360162258148,-0.009178905351486173,-0.009765442814212292
1761475342226464000,7.116464111328125,0.007831424278020858,-0.003266153626763844,-0.005628269944246858
1761475342236441000,7.126441162109375,-0.0007008417457342147,0.0022143104820279403,0.008494363432470708
1761475342246418000,7.13641796875,-0.005789689317345619,0.006029996312665753,-0.01401429589772597
1761475342256395000,7.14639501953125,0.005430792877078056,0.006627588888123864,-0.006915752471517771
1761475342266371800,7.156371826171875,0.013657938474416731,-0.0010726010925078298,-0.011821608159039168
1761475342276349200,7.16634912109375,0.005274725532531738,0.014113301576080265,0.0077931563605554395
1761475342286326000,7.176325927734375,0.010062544330954552,-0.0004330827711964957,-0.011678181100357322
1761475342296303000,7.18630322265625,0.008265139520168304,0.000773323601699667,-0.004405523216258735
1761475342306280200,7.1962802734375,0.0006353752940893173,0.0034623674644972194,0.006577789221424609
1761475342316257000,7.206257080078125,-0.0028086276799440383,-0.01074289127793163,-0.013271204179152845
1761475342326234000,7.216234130859375,0.0072176762938499445,-0.0008286596725083654,-0.007999912712723016
1761475342336211000,7.2262109375,0.0015291092634201048,-0.000910227875583223,-0.010789141572453082
1761475342346188000,7.23618798828125,0.004669160854816437,-0.009125436439955956,0.001527045170497149
1761475342356164900,7.246164794921875,0.00003039513826370239,0.0007146059804275864,0.0007840265171602368
1761475342366142000,7.256141845703125,0.009158873489499092,0.008065199355388176,0.00140506275864318
1761475342376119000,7.266119140625,-0.009691957452893257,0.0011961589735175948,-0.004584660909138619
1761475342386096000,7.27609619140625,-0.0044528877556324,0.001584235271674697,-0.008256645686458796
1761475342396073200,7.2860732421875,-0.0035562311768531796,0.006697770330792991,0.0012823131618089974
1761475342406050000,7.296050048828125,-0.0019090484917163848,0.011342931538802803,-0.0018321655969135461
1761475342416027100,7.306027099609375,0.009162965142726898,-0.01117372500982601,-0.003657956251967698
1761475342426003000,7.3160029296875,0.005422025048732757,-0.0034774314612441228,-0.0008300393496640026
1761475342435980000,7.32597998046875,0.00557224717438221,0.0027672773228259754,-0.018921978216152636
1761475342445956900,7.335956787109375,0.02487842066884041,-0.008267946823540841,-0.0026452355454675853
1761475342455934000,7.345933837890625,0.006623217532038688,0.0042899260210630015,-0.0003802680218592286
1761475342465910800,7.355910888671875,0.014855039304494857,-0.011502879332378506,0.0003054126873612404
1761475342475888000,7.36588818359375,0.0067751932233572005,-0.0024800675832579145,-0.010746964664850383
1761475342485865200,7.375865234375,0.00303425312936306,-0.004700452183868037,0.006913597047049551
1761475342495842000,7.385842041015625,0.004233692046999931,-0.02089504098794423,-0.005576229229755699
1761475342505819100,7.395819091796875,0.012314122650027274,0.011489248099247925,-0.010049849246162921
1761475342515796000,7.4057958984375,0.00004793079495429992,0.007477500269570737,0.0031359416718594727
1761475342525773000,7.41577294921875,0.005139700976014137,-0.010598470988695043,0.008985014759935439
1761475342535750000,7.42575,0.014570377144217491,0.0016365671054663835,-0.0006095102004706859
1761475342545727000,7.43572705078125,-0.003985854765772819,-0.006751036029634997,-0.005460548694524914
1761475342555704000,7.4457041015625,-0.0009895955592393875,-0.009896924848417983,-0.013100249792728572
1761475342565681000,7.455680908203125,0.013525836527347564,-0.004859302857256261,0.001584602310322225
1761475342575658000,7.465657958984375,0.010384615892171859,-0.002277440558580565,-0.007191555471904576
1761475342585635000,7.475635009765625,0.004697802427411079,-0.0009300028675992507,-0.008410648938082159
1761475342595612200,7.485612060546875,0.00933364553451538,-0.007215697824250674,-0.0071929985103197395
1761475342605589000,7.495589111328125,0.01082768348455429,0.005118153581197839,-0.004725439353007823
1761475342615566000,7.505566162109375,0.0021516250759363175,0.002960521172871813,-0.0001397372642531991
1761475342625543200,7.515543212890625,0.00005377601385116577,0.012985624136845581,-0.01148649445315823
1761475342635520000,7.52552001953125,0.016364274823665616,-0.004073618672549491,-0.018513415681570767
1761475342645497000,7.5354970703125,0.0031949966490268707,-0.0028280818699073277,0.0018035422906279564
1761475342655474000,7.545473876953125,-0.00623100334405899,-0.0023876560424716444,0.002585851774737239
1761475342665451000,7.555450927734375,0.01337093822658062,0.0019069016295805339,0.006895111542288213
1761475342675427000,7.565427001953125,0.007238719081878662,0.009741020759008824,-0.0033032793290913103
1761475342685404200,7.575404052734375,-0.0011398176848888397,0.004117588532550144,-0.005070873523503542
1761475342695381000,7.585381103515625,0.012327566653490066,-0.005551750092336442,-0.01793468421185389
1761475342705358000,7.595358154296875,0.012326982131600378,0.005580056592324399,-0.012871190277207642
1761475342715335200,7.605335205078125,0.0005050269126892089,0.014744706231239251,-0.014390234804339706
1761475342725312000,7.61531201171875,0.020706687942147254,-0.0015458783059526468,-0.005234156060125678
1761475342735289000,7.6252890625,-0.0026350246787071228,-0.0001432483913464239,-0.014151731607038526
1761475342745266000,7.635265869140625,0.006792144358158111,0.011181826117890887,-0.00819280493631959
1761475342755243000,7.645242919921875,-0.009372223979234694,0.010377913298393831,0.006495353368669748
1761475342765219800,7.6552197265625,0.00888356367945671,-0.00043101981991785577,-0.0020273228428326546
1761475342775197000,7.665197021484375,0.014122633376717566,-0.0008816479517816333,-0.003167597185447812
1761475342785173800,7.675173828125,0.00888707081079483,-0.002494148624248919,-0.011787176166474818
1761475342795150600,7.685150634765625,0.013524082961678504,-0.004418644134380156,-0.0096092110728845
1761475342805127700,7.695127685546875,0.0013993454039096832,-0.007472075175782083,-0.007384831287991255
1761475342815104500,7.7051044921875,-0.0047369653940200806,0.015495933307206724,-0.007416870394069701
1761475342825081600,7.71508154296875,-0.0017459668844938276,0.0019023259191628312,-0.014378270371910183
1761475342835058400,7.725058349609375,-0.008781272348761558,-0.019919366639491634,0.0009326777402311563
1761475342845035500,7.735035400390625,0.002294248417019844,0.0104245985593996,-0.003618044366687536
1761475342855012600,7.7450126953125,-0.003989946419000625,0.008631734068057267,-0.01661434059459716
1761475342864989400,7.754989501953125,-0.006086041915416717,0.002576835067931097,-0.014710771995596587
1761475342874966500,7.764966552734375,-0.0036976854741573332,-0.003234918238283717,-0.003273322582244873
1761475342884943400,7.774943359375,0.0049812955439090725,0.012216537177201826,-0.008202248618099837
1761475342894920700,7.784920654296875,0.0015419687449932098,-0.006946695599053055,-0.006612732670642435
1761475342904897500,7.7948974609375,0.010374679020047187,-0.00354385346918134,-0.0027096973501145837
1761475342914874600,7.80487451171875,0.0013987608820199965,-0.005866871322959196,-0.008903181695379316
1761475342924850400,7.814850341796875,-0.007877016985416412,0.006504978571896208,-0.0053688700893893835
1761475342934827500,7.82482763671875,-0.011168459746241569,0.009787759677297435,0.003469100882671773
1761475342944804600,7.8348046875,0.0018494272589683531,0.005903708760096924,-0.010771587649453431
1761475342954781400,7.844781494140625,0.011729016238451004,0.0010700478049955563,0.003881207081209868
1761475342964758500,7.854758544921875,-0.0015875614523887633,-0.001853725549817318,0.017393837067112325
1761475342974735600,7.864735595703125,0.00005962123274803161,-0.0033095224110322305,-0.0071043155798688525
1761475342984712700,7.874712646484375,0.011432079118490219,0.00035701386879081836,-0.005440985477529466
1761475342994689500,7.884689453125,-0.0029331308424472807,-0.0006593652369192569,-0.003951623702608049
1761475343004666600,7.89466650390625,-0.008772504520416259,-0.004574201163917314,-0.013652294184919447
1761475343014643700,7.904643798828125,0.005142039063572883,0.003001043267038767,-0.006975702497828752
1761475343024620500,7.91462060546875,0.018312486281991003,-0.0016050086316448868,0.004186729366425425
1761475343034597600,7.92459765625,0.01935878046452999,0.016601039296673843,-0.001856825114134699
1761475343044574500,7.934574462890625,0.008434650868177414,0.0022493823662312934,-0.00951031727567315
1761475343054551600,7.944551513671875,-0.0012929624199867248,0.009720804521464742,-0.016731244972534476
1761475343064528400,7.9545283203125,0.011877484798431396,0.0050015471724269445,-0.012609141807537525
1761475343074505500,7.96450537109375,0.015322656816244125,0.005537126770295435,-0.014127035557199269
1761475343084482600,7.974482666015625,0.00005552957952022552,-0.0019523122447077184,0.005619721311610192
1761475343094459600,7.984459716796875,0.004542904126644134,0.016965332289622163,-0.0010334712335839868
1761475343104436700,7.994436767578125,0.01247252808213234,0.011650318129186052,-0.00003799392282962799
1761475343114412500,8.00441259765625,0.01202069266140461,0.009506211351891397,-0.00581555441096425
1761475343124389600,8.0143896484375,-0.003988777375221252,0.009237612127137253,-0.012638039108458905
1761475343134366500,8.024366455078125,-0.0068313073247671125,0.0027287359815469244,-0.016496175841335205
1761475343144343600,8.034343505859376,0.0061859951585531234,0.0052037358056870285,-0.00247724030110985
1761475343154320400,8.0443203125,-0.00189443544447422,0.005880189174725091,0.005447524816170335
1761475343164297500,8.05429736328125,0.000052022448182106015,0.015253258541575632,-0.006786006878316402
1761475343174274600,8.064274658203125,0.013669628912210463,-0.0017574010231386635,0.004927482997439801
1761475343184251600,8.074251708984375,0.010071896681189536,0.00517531571208965,-0.0026615473594516514
1761475343194228700,8.084228759765624,0.010071896681189536,0.0023136460955895015,-0.013736282673943787
1761475343204205600,8.09420556640625,0.017250994530320165,-0.00677677040497947,-0.010145162846799938
1761475343214182700,8.1041826171875,0.00931494083404541,0.0020285501104721332,-0.009892448461055754
1761475343224159500,8.114159423828125,0.00452303038239479,0.012986064811551477,-0.008383322539739311
1761475343234136600,8.124136474609376,-0.0016103578060865402,0.0014268167910806368,-0.010578202235512434
1761475343244113700,8.13411376953125,-0.012680617874860764,0.005859407823244692,-0.017177490902692077
1761475343254090500,8.144090576171875,0.0034790742874145505,0.007154539938253583,-0.002569430362898856
1761475343264067600,8.154067626953125,0.0013823942691087723,0.01078684001751244,0.002145889454893768
1761475343274044400,8.16404443359375,-0.00879471635222435,0.005742532557237427,-0.004799655366688966
1761475343284021500,8.174021484375,-0.012689385703206062,0.0005370728686335496,-0.012901987274270504
1761475343293998600,8.18399853515625,-0.002364391043782234,0.0011229173532599816,-0.00795031968364492
1761475343303975700,8.1939755859375,0.002125321590900421,-0.002507899159210501,0.009876903832051902
1761475343313952800,8.203952880859376,-0.004908230307698249,-0.00602005144903087,-0.003175670894049108
1761475343323929600,8.2139296875,0.012899229061603545,0.005190913998376345,-0.006135634944494813
1761475343333906700,8.22390673828125,0.009158873489499092,0.000859525168230175,0.004047594890370965
1761475343343882500,8.233882568359375,-0.0002671265035867691,0.010681457114010117,-0.004425214297417551
1761475343353859600,8.243859619140625,-0.0055061962008476255,-0.0009083607163047417,0.007926719612348825
1761475343363836400,8.25383642578125,0.008406593817472458,0.010269524445408023,0.0018006562137976288
1761475343373813500,8.2638134765625,0.015590952363610267,-0.006280946287119877,0.004110303129348904
1761475343383790600,8.27379052734375,-0.000571077886223793,-0.004519252110531669,-0.01268383274525404
1761475343393767700,8.283767578125,0.004365793994069099,0.0025675552121101645,-0.015874536811653524
1761475343403744500,8.29374462890625,0.004662146592140198,0.008809391619081725,0.0030223982947878538
1761475343413721600,8.3037216796875,-0.002670680513978004,0.00822178900220897,-0.005834240845125168
1761475343423698700,8.31369873046875,-0.007007248413562774,0.004106182935013203,-0.003616601328272372
1761475343433675500,8.323675537109375,-0.0001233341187238693,-0.008770571145767462,-0.0037439905676059423
1761475343443652600,8.333652587890626,0.015590952363610267,0.0031594749569630945,-0.00904268149761483
1761475343453629400,8.34362939453125,-0.005507949766516685,0.009801428584690438,-0.007416705997288227
1761475343463606500,8.3536064453125,0.0030219781696796417,0.019520727277302648,-0.00021760653974488376
1761475343473583400,8.363583251953125,0.005564648389816284,-0.00039749258047377223,0.006029672085680067
1761475343483560400,8.373560546875,0.0009258826732635498,-0.0025974605849623912,-0.007885857878997921
1761475343493537800,8.383537841796874,0.007657236754894256,-0.007337756155451643,-0.018901940075121818
1761475343503514600,8.3935146484375,0.01050093574821949,-0.005131682637162157,0.0020616635038517416
1761475343513491700,8.40349169921875,0.009154781836271286,0.0036744467332871862,-0.016306790749076754
1761475343523468500,8.413468505859376,0.001076104798913002,0.006674201083893422,-0.00681981781637296
1761475343533445600,8.423445556640624,0.0057137014716863626,-0.0022364886353287146,-0.005653203456103801
1761475343543422500,8.43342236328125,-0.0013216039925813673,-0.008920657415743334,-0.014291797664854675
1761475343553399600,8.443399658203125,-0.00386427421271801,-0.002404176206543343,0.008216952996887267
1761475343563376600,8.453376708984376,-0.007157470539212226,0.004819503423941205,-0.011281710862368344
1761475343573353500,8.463353515625,0.004064765220880508,0.00603312955549045,-0.0059141194146126504
1761475343583330600,8.47333056640625,0.0030196400821208952,0.00636622369257675,0.008081252586934715
1761475343593307400,8.483307373046875,0.003919219270348549,0.007262873421490076,-0.011291629468183963
1761475343603284500,8.493284423828126,0.0030249007791280746,0.0022587598326412263,-0.014760218894202261
1761475343613260500,8.503260498046876,0.003769581666588783,0.0048813520047493505,-0.011888535915408283
1761475343623237600,8.513237548828124,0.005115735578536987,-0.0035833629248401846,-0.016846267920639365
1761475343633214500,8.52321435546875,0.011400514936447143,0.010685641240427503,-0.005626680775359273
1761475343643191600,8.533191650390625,0.013493687823414802,0.002332944451103685,-0.012277462167758494
1761475343653168600,8.543168701171876,-0.004161211332678795,-0.00998531209299108,-0.014450276162195949
1761475343663145500,8.5531455078125,0.009603110125660896,0.0007378795414493651,-0.014984255174733698
1761475343673122600,8.56312255859375,0.013938508981466292,0.008947994088885025,-0.00045709611773490905
1761475343683099400,8.573099365234375,0.007055179208517074,0.007103937695600325,-0.00674987611901015
1761475343693076700,8.58307666015625,0.00720481681227684,0.013663472024415386,0.0014732691566459834
1761475343703053600,8.593053466796874,0.002118307328224182,0.00819517156498623,-0.0037197146428748964
1761475343713030700,8.60303076171875,0.007502338454127311,-0.0038502542496979,-0.008008424812741577
1761475343723007700,8.6130078125,0.012590601503849028,-0.010845068444195203,-0.021914109236840156
1761475343732984600,8.622984619140626,-0.009108020085096358,-0.00213599767771957,-0.008780011973436922
1761475343742961700,8.632961669921874,0.010491583397984503,0.0040140790673700395,0.005597929604910313
1761475343752938500,8.6429384765625,0.0003109656453132629,-0.0025785726505797354,0.007939889621175825
1761475343762915600,8.65291552734375,0.0006108253747224808,-0.011347531223751138,-0.014467720487341284
1761475343772892400,8.662892333984376,0.00031330373287200925,-0.002779141861377866,-0.013647892004437744
1761475343782869500,8.672869384765624,0.0062993924051523206,-0.004517382667964557,0.002374327915906906
1761475343792846600,8.6828466796875,0.00031330373287200925,0.008171293503299239,-0.012313118003029375
1761475343802823700,8.69282373046875,0.0018108488142490385,0.008096066563576459,-0.014654036839678882
1761475343812800800,8.70280078125,0.002113631153106689,0.0017043294038303427,0.004942570968717337
1761475343822777900,8.71277783203125,0.005856324812769889,-0.002557648593559861,-0.0063715077932924025
1761475343832754700,8.722754638671875,-0.0008785364001989365,-0.007210151145342388,-0.014341829085350036
1761475343842730800,8.732730712890625,0.00481061515212059,-0.0126836203994113,-0.004664667342789471
1761475343852707600,8.74270751953125,-0.0005745850175619125,-0.0024180043733183993,-0.01761462194463238
1761475343862684700,8.7526845703125,-0.002822656205296516,-0.0006528966802259674,0.002896360762324184
1761475343872661500,8.76266162109375,0.013337035956978797,-0.012490349149901886,-0.015700440620072184
1761475343882638600,8.772638671875,0.00974631798863411,-0.0022735121604899175,-0.009682221510168164
1761475343892615700,8.78261572265625,-0.0008820435315370559,-0.006265420495247235,-0.01327399892443791
1761475343902592800,8.7925927734375,-0.0086661215364933,0.004106033950429992,-0.009191478851158171
1761475343912569900,8.80256982421875,0.0012105448335409164,0.012476157369412249,0.0008614391349256039
1761475343922546700,8.812546630859375,0.012282558467984199,0.00013307519884838255,-0.008750712813716382
1761475343932523800,8.822523681640625,-0.003731587743759155,-0.0023939476442959855,-0.002575239049177617
1761475343942500600,8.83250048828125,0.006145663148164749,0.016002689811034358,0.008837678711116313
1761475343952477700,8.842477783203124,0.00001052139401435852,0.007717523566278396,-0.017942666588909924
1761475343962454800,8.852454833984375,0.004793664017319679,0.0033431135825579984,-0.022941168995946646
1761475343972431600,8.862431640625,-0.004335983377695083,0.0042104847013484685,0.002732548502739519
1761475343982408700,8.87240869140625,0.005392798954248428,-0.005329716255934909,-0.0015228804520331322
1761475343992385500,8.882385498046874,0.00883738645017147,0.0021048336420091797,-0.0031861192228272556
1761475344002362600,8.892362548828125,0.010034487280249594,-0.013933413822884903,-0.02160042191147804
1761475344012339700,8.902339599609375,0.003449263671040535,-0.00613475359508302,-0.014937128097377716
1761475344022316800,8.91231689453125,0.005689151552319526,0.004584776215214515,0.007631188998185098
1761475344032294000,8.9222939453125,0.0013484919995069504,-0.010515683509490918,-0.008710472134873271
1761475344042270700,8.932270751953125,0.0071866966336965555,-0.007902394596912199,0.006947334919869899
1761475344052247800,8.942247802734375,0.008231237250566481,-0.005104182138061151,-0.00048413025513291354
1761475344062224600,8.952224609375,0.0076291797041893004,-0.006068822494201594,-0.0013831066551618276
1761475344072201700,8.96220166015625,0.014960253244638443,0.016874500784568952,-0.008907693473715334
1761475344082177500,8.972177490234374,-0.0070388125956058496,0.0026360259007720743,0.0010272789548151195
1761475344092154600,8.982154541015625,0.008521744629740714,0.0043244493451726155,0.0002148848596960306
1761475344102131700,8.992131591796875,0.0005891980648040771,-0.01593406785450061,-0.009858345262054353
1761475344112108800,9.00210888671875,-0.001954056677222252,-0.0003075475622317754,-0.006104052496142685
1761475344122085600,9.012085693359374,0.005527238988876342,0.002212849177303724,-0.0047840011398307975
1761475344132062700,9.022062744140625,0.00298632233440876,0.007932581955910427,-0.016054660885222255
1761475344142039800,9.032039794921875,0.002542085698246956,-0.003949718298244988,-0.006582739391177892
1761475344152016600,9.0420166015625,0.0038888241320848465,0.004662733397318515,-0.006732577924337238
1761475344161993700,9.05199365234375,0.011969839257001876,0.016564836613775696,-0.02721762247243896
1761475344171970600,9.061970458984375,-0.00808101512491703,-0.0008713166415458544,0.006188260180875658
1761475344181947600,9.07194775390625,0.0040402153015136714,-0.004885352897254051,0.005467873484455049
1761475344191924500,9.081924560546875,-0.0016448445975780486,-0.003968756358855171,-0.01454613775210455
1761475344201901600,9.091901611328124,0.0071831895023584365,0.001109373455919558,-0.012786069277022033
1761475344211878700,9.101878662109375,0.009127309307456016,-0.005900715368700912,-0.011935535128600894
1761475344221855700,9.111855712890625,0.00029752164185047145,-0.005221423301071627,-0.01240786534808576
1761475344231832800,9.121832763671875,0.013165771043300628,0.0007988998593064025,-0.0106471575521864
1761475344241809700,9.1318095703125,-0.0047884033203125,0.0013735796333465258,-0.015951547570619732
1761475344251786800,9.141786865234375,0.0014934534281492232,0.0006187266950320918,-0.01828937940103933
1761475344261763600,9.151763671875,0.009422492861747742,0.009307912871637382,-0.013872512806858866
1761475344271740700,9.16174072265625,-0.006440262180566788,0.0050462562471220735,-0.01346546637592837
1761475344281717800,9.1717177734375,0.004933364748954772,-0.008543918787286383,0.0002066284880042076
1761475344291694600,9.181694580078124,0.008373860591650009,-0.016894131358579034,-0.010627028079610317
1761475344301671700,9.191671630859375,0.0026847090393304824,0.007060831489524571,-0.01717330791791901
1761475344311647700,9.201647705078125,0.008373276069760321,-0.0011354120794741902,-0.011711060456652194
1761475344321624800,9.211624755859376,0.008675473886728286,-0.007363150320790009,-0.014730444810446351
1761475344331601700,9.2216015625,-0.002699322086572647,-0.013527884637250099,-0.017971143764723092
1761475344341578800,9.231578857421875,0.00927402430176735,0.009553994303906802,-0.0006722001731395721
1761475344351555600,9.2415556640625,-0.004044891476631164,0.010028502780746202,-0.019726517798379063
1761475344361532700,9.25153271484375,-0.0028489596903324126,0.002035900016577216,-0.012288823811989277
1761475344371509800,9.261509765625,0.003588379880785942,0.00353277609438519,0.003520703205745667
1761475344381486600,9.271486572265625,0.011816694521903991,-0.006978265489317709,0.013639069377165287
1761475344391463700,9.281463623046875,0.0035842882275581357,0.002479334076785017,0.0021704941731877626
1761475344401440500,9.2914404296875,0.010918284377455711,0.009956678511906647,-0.009423625372909009
1761475344411417600,9.30141748046875,-0.000004091653227806091,-0.0035009904333448503,-0.010276588940434157
1761475344421394700,9.311394775390625,-0.0038987610042095183,-0.013787948929099365,0.009313059404212981
1761475344431371800,9.321371826171875,0.01196399403810501,-0.008821282415452878,-0.003666413553059101
1761475344441348900,9.331348876953125,0.0029869068562984463,-0.008423135101963998,-0.006020758126862347
1761475344451325700,9.34132568359375,0.002537409523129463,0.0013102457732835319,0.005181275095418095
1761475344461302800,9.351302734375,0.016153262421488762,0.000828074579796521,-0.01820518998261541
1761475344471279600,9.361279541015625,-0.0006049801558256149,-0.009821648247167468,-0.0108223497223109
1761475344481256700,9.371256591796875,0.010613748472929,-0.006794197034637909,-0.02565397161860019
1761475344491233500,9.381233642578126,-0.0039034371793270108,-0.0028643148063798433,-0.017517847039271145
1761475344501210600,9.391210693359374,0.0037239889591932293,0.005495420220150845,-0.015737411629594862
1761475344511187700,9.401187744140625,0.004019172513484955,-0.009041149410943035,-0.02455709802629426
1761475344521164500,9.41116455078125,0.003124269500374794,-0.0005729490412573796,0.0038378428635187445
1761475344531140900,9.421140869140626,0.009256488645076751,0.0014668565405241678,-0.014836553799733518
1761475344541117700,9.43111767578125,0.004016834425926208,-0.0025691917592368554,-0.016146759615465998
1761475344551094800,9.4410947265625,0.02257131277024746,0.0055010702178697095,-0.01794973565051332
1761475344561071600,9.451071533203125,-0.006909633257985114,-0.005449023795156972,-0.020429642832744864
1761475344571048700,9.461048583984375,0.0017687632381916045,0.002592580626334529,-0.006681687987316399
1761475344581025500,9.471025634765626,-0.0025660510957241055,-0.0026343374088290145,-0.002322360266651958
1761475344591002600,9.481002685546875,0.021227496945858,-0.0022604123627883383,-0.0018300101724453269
1761475344600979700,9.490979736328125,0.010450666865706443,-0.002130938480934128,-0.01569676909195259
1761475344610956500,9.50095654296875,0.00656301177740097,-0.008338356595073128,0.00012220160756260155
1761475344620934000,9.510933837890626,0.005365910947322845,-0.007571989032189594,-0.008087938056048006
1761475344630910700,9.52091064453125,-0.00810147339105606,-0.007681253526365617,0.001788856178149581
1761475344640887800,9.5308876953125,-0.001668225473165512,-0.007677256629616022,-0.010239928458165376
1761475344650864600,9.54086474609375,0.012994506129622458,-0.006678229946683859,-0.004770867663621902
1761475344660841700,9.550841796875,0.004312017980217933,0.0007615589570254088,-0.01927985174311325
1761475344670818800,9.56081884765625,0.0056564183264970775,0.00013195353330811485,-0.018309928998723624
1761475344680795600,9.570795654296875,0.005951601880788803,0.003417922109639039,-0.008895802106522023
1761475344690772700,9.580772705078125,-0.0009340659797191619,-0.009337725771300029,-0.008239804149512201
1761475344700749600,9.59074951171875,0.010291092389822006,0.0017410532473586498,-0.010091660827584564
1761475344710726700,9.6007265625,0.0032592940568923947,0.00035609027853934094,-0.012586327187530695
1761475344720703500,9.610703369140625,0.0040080665975809095,-0.005208068345865467,-0.013165423983428626
1761475344730680800,9.620680908203125,0.0010123919129371643,0.005879083492205245,-0.004158160859066993
1761475344740656600,9.63065673828125,0.013429974937438964,-0.00011820242752437479,-0.013072740731295197
1761475344750633700,9.6406337890625,0.014179332000017164,-0.002118129231710918,-0.0004567125252448022
1761475344760610600,9.650610595703125,0.0002618658065795898,0.0059645743851491715,-0.004220613369718193
1761475344770587600,9.660587646484375,-0.004075871136784553,-0.004664395631442312,-0.017753117099869997
1761475344780564500,9.670564453125,0.009541150805354118,0.001653769972838927,-0.008940938156191259
1761475344790541300,9.680541259765626,0.005649988585710525,-0.0007157972862711176,-0.0002718574776314199
1761475344800518400,9.690518310546874,0.0034071780949831007,0.014317782631126465,-0.013367138834297656
1761475344810495500,9.70049560546875,0.0008627543091773986,0.007907267134852009,0.0012717552351765335
1761475344820472600,9.71047265625,0.009389175114035605,-0.0140143415634986,-0.008418558249901979
1761475344830449700,9.72044970703125,-0.005724222865700721,0.0021198302817414514,0.004586980730388313
1761475344840426500,9.730426513671874,-0.00003799392282962799,0.0028164285355538592,-0.0007833506637252867
1761475344850403600,9.740403564453125,-0.0007826748102903366,-0.008952767874591518,-0.0041006402518600224
1761475344860380400,9.75038037109375,-0.006167290458083153,0.0013361325581441633,-0.00716174485553056
1761475344870357500,9.760357421875,-0.004675006073713303,-0.013758615520049351,-0.016159144173003733
1761475344880334600,9.77033447265625,-0.008118424525856972,0.0045051316828117706,0.0015845657777041197
1761475344890311400,9.7803115234375,0.005495674806833267,0.004128104789165081,-0.01155643615052104
1761475344900288500,9.79028857421875,0.008186813586950302,-0.011948629788903053,-0.012698811118677258
1761475344910265300,9.800265380859376,0.006691022071242332,-0.004664693600608734,0.00948277168162167
1761475344920242400,9.810242431640624,-0.018597732964158058,-0.00457264966929215,-0.0006920008521527052
1761475344930219500,9.820219482421875,0.0017529811471700667,-0.009864975932240486,0.0018666889210231601
1761475344940196600,9.830196533203125,0.008935586127638817,0.00793816459661466,-0.013848602208308875
1761475344950172400,9.84017236328125,0.0017494740158319473,-0.0006641903966199607,0.003227748141158372
1761475344960150500,9.850150634765624,-0.006931260567903518,-0.009587288077088306,-0.0037213586106896396
1761475344970126600,9.860126708984374,0.0021931261301040648,-0.0036619360240525566,0.0031797808135859665
1761475344980103400,9.870103515625,-0.0031955811709165572,-0.00007442607623524963,-0.003176529410574585
1761475344990080500,9.88008056640625,-0.002596446233987808,-0.002606466446147533,0.00282031811773777
1761475345000057300,9.890057373046876,0.0020405659168958664,0.007290942459460347,-0.008772230525780468
1761475345010034700,9.90003466796875,0.0011415712505578994,0.002139938063075533,-0.00118822340387851
1761475345020011500,9.910011474609375,0.005628945797681808,0.001514414017787203,-0.0039500162674114105
1761475345029988600,9.919988525390625,0.007122983747720718,-0.006104593635548371,-0.0028413426394574342
1761475345039965700,9.929965576171876,-0.00410042105615139,-0.0045115671318199015,-0.025017354215495287
1761475345049942500,9.939942626953124,-0.0017050503522157668,0.0019000831589044537,-0.021068543524481356
1761475345059919600,9.949919677734375,0.004731704697012901,0.0009226278453192207,-0.005709719416312873
1761475345069896400,9.959896484375,0.005179448464512825,-0.006147403014102019,-0.008167487831972539
1761475345079873500,9.96987353515625,0.023732173243165015,-0.00554517079614452,-0.006914272900484502
1761475345089850400,9.979850341796874,0.0017348609685897826,-0.0001552430773503147,0.013864895755983889
1761475345099827500,9.989827392578125,-0.009933364993333816,-0.0009472291386802681,-0.007852722794376312
1761475345109804500,9.999804443359375,0.006826046627759933,0.011796816211077385,-0.002474043697025627
1761475345119781400,10.009781494140626,-0.0040951603591442105,0.005111565151851391,-0.014511084705032408
1761475345129758700,10.0197587890625,0.005934066224098205,-0.004655873256624908,-0.0013603651003912091
1761475345139735600,10.029735595703125,-0.004541150560975074,0.00722007717184606,-0.004363729901146143
1761475345149712600,10.039712646484375,0.009526537758111953,-0.006883434804226271,-0.0028153314153663814
1761475345159689500,10.049689453125,-0.00035129765570163723,-0.01094896264350973,-0.014845522557478397
1761475345169665500,10.05966552734375,0.0047357963502407075,-0.00045936228170176033,-0.00978973700525239
1761475345179642400,10.069642333984374,0.008473229312896728,0.00000968799366382882,-0.004537588630709797
1761475345189619500,10.079619384765625,0.0008440496087074279,-0.005754654536582529,-0.011173921372648329
1761475345199596300,10.08959619140625,0.006979775884747505,0.0002211844530305825,-0.005324300295300782
1761475345209573600,10.09957373046875,0.01790215191543102,-0.001774570782826049,-0.002079454888869077
1761475345219550700,10.10955078125,0.0068313073247671125,0.00931347496274393,-0.014107344476040453
1761475345229527600,10.119527587890625,0.003985854765772819,-0.001215304348693462,-0.01989447651011869
1761475345239504600,10.129504638671875,0.006828384715318679,-0.008860800433444092,-0.003301617094967514
1761475345249481500,10.1394814453125,0.003986439287662506,0.004081949251121841,0.010356083917431532
1761475345259458600,10.14945849609375,0.018052374041080475,0.008389823062473442,-0.013435838422644883
1761475345269435400,10.159435302734375,0.011467150431871414,0.005914820384222548,-0.009890457433369011
1761475345279412500,10.16941259765625,0.0005441898792982101,-0.0034922317381540775,-0.0035867359129711984
1761475345289389600,10.1793896484375,0.0005418517917394638,-0.007861641319771297,-0.003217774736415595
1761475345299366400,10.189366455078124,0.011166706180572509,0.012700894619553583,-0.006206124631129205
1761475345309343500,10.199343505859375,0.005931728136539459,-0.005148745082283858,-0.02226253908202052
1761475345319320300,10.2093203125,-0.004990647894144058,0.010567658008611761,-0.003668148852419108
1761475345329297700,10.219297607421876,0.004885433954000473,0.0018382345780963078,-0.016245963939931243
1761475345339274500,10.2292744140625,0.004134907847642899,-0.020493903707992284,-0.013034783341083675
1761475345349251600,10.23925146484375,0.003385550785064697,0.0017617980662209447,-0.005590860543306916
1761475345359228700,10.249228759765625,0.0024912322938442227,-0.0012747623263043351,-0.0027680216749198733
1761475345369205500,10.25920556640625,0.002791676545143127,0.0007903272521391045,-0.012593761575315146
1761475345379181600,10.269181640625,0.019403788650035857,-0.003562208826490678,-0.010882007487677037
1761475345389158400,10.279158447265624,0.003392565047740936,0.0005305449464358389,-0.00025554566364735363
1761475345399135500,10.289135498046875,-0.0004997662156820296,-0.004620827059418661,-0.0006210362414829433
1761475345409112600,10.299112548828125,0.006084288349747657,-0.004439607578128925,-0.009301314167492091
1761475345419089700,10.309089599609376,0.01731003124117851,0.002134780114056775,0.013558788948878644
1761475345429066500,10.31906640625,-0.0007949497699737549,-0.0019500466515630249,-0.014973094459902494
1761475345439043600,10.329043701171875,0.006240355694293975,0.00012832767096115276,-0.003674889120459556
1761475345449020700,10.339020751953125,0.011927753680944442,0.010010709112440236,-0.0030105617265217006
1761475345458997500,10.34899755859375,0.0014519523739814758,-0.0067283806690102204,-0.013390154383704065
1761475345468974600,10.358974609375,-0.009473346266150474,0.0005389805562852416,-0.011670143924374132
1761475345478951400,10.368951416015625,-0.0006423895567655563,-0.006001737190916901,-0.013201280748099087
1761475345488928500,10.378928466796875,-0.007373159116506576,0.00530754723578866,-0.005173219653125852
1761475345498905300,10.3889052734375,0.0017523966252803802,-0.006640889044402866,0.0013250745913013814
1761475345508882400,10.39888232421875,0.005493921241164207,0.0013933003972575533,-0.006891293883696198
1761475345518859500,10.408859619140625,0.00983341175019741,0.005167787138649146,-0.01662393040684983
1761475345528836600,10.418836669921875,0.009087561818957328,-0.009577034969488158,-0.0075501961838454
1761475345538813700,10.428813720703126,-0.012159224349260329,0.00415616926055809,-0.009125427877623587
1761475345548790500,10.43879052734375,-0.001536123526096344,0.006961106004429166,-0.0019891645232215523
1761475345558767600,10.448767578125,0.016419804403185842,0.000034119752843980674,-0.006066515231039375
1761475345568744400,10.458744384765625,0.004746902266144752,-0.0025610775222623485,0.0007592574020847678
1761475345578721500,10.468721435546875,0.015373510220646857,0.0019383819007663986,0.006536050705239177
1761475345588697300,10.478697265625,0.004302081108093261,0.004030898913074634,-0.011196662927418947
1761475345598674400,10.48867431640625,-0.00258066414296627,0.002102050883989432,-0.013564414972066879
1761475345608651500,10.498651611328125,-0.0009328969359397888,0.003394690789456945,-0.010218977001681923
1761475345618628600,10.508628662109375,0.012092588853836059,0.006331194620035239,0.00008362316284328699
1761475345628605700,10.518605712890626,-0.008405424773693083,0.0026480776689917548,-0.001302259971294552
1761475345638582500,10.52858251953125,-0.004063596177101135,0.005713934937948943,-0.015431505751889198
1761475345648559600,10.5385595703125,0.0011754735201597213,0.004399094617116498,-0.013722948268335311
1761475345658536400,10.548536376953125,-0.0025666356176137924,0.004860346890983055,0.0005943308976478875
1761475345668513500,10.558513427734376,-0.001218143618106842,0.003072952017557691,-0.02445044104773551
1761475345678490600,10.56849072265625,-0.007648468926548958,-0.006724331827444256,-0.00963615387873724
1761475345688467500,10.578467529296875,0.015995441511273384,-0.0007122707469796296,0.005380852788127958
1761475345698444500,10.588444580078125,0.0020797288835048672,-0.011507300920813576,-0.014498901076894253
1761475345708421400,10.59842138671875,0.013455693900585174,-0.0035364202230412046,-0.008078567439503968
1761475345718398500,10.6083984375,-0.004048983129858971,-0.0009602507337462156,-0.006007295857090503
1761475345728375600,10.61837548828125,0.002688216170668602,0.003047277007717639,-0.01903170393463224
1761475345738352600,10.6283525390625,0.0008913958817720412,-0.004306937092190492,-0.006517948792967945
1761475345748329700,10.638329833984375,-0.011082535028457642,0.00619430747081642,-0.0019799217708408832
1761475345758306600,10.648306640625,0.010465279912948608,-0.0070655892922106426,-0.009476579402852802
1761475345768283600,10.65828369140625,0.004323123896121979,-0.012855025735340314,-0.007191610270831733
1761475345778260500,10.668260498046875,0.014797756159305571,-0.00045647962980438023,-0.009739687318447977
1761475345788237000,10.678237060546875,-0.006003039807081222,-0.010667723132891114,-0.01727411967758089
1761475345798214000,10.6882138671875,0.016891513568162916,-0.009106875015847617,-0.014414474196452646
1761475345808191000,10.69819091796875,0.016590484794974325,-0.0036011902716534677,-0.006856752293277531
1761475345818167800,10.708167724609375,0.0007242226213216781,0.007983598615450319,0.006287921163067221
1761475345828145200,10.718145263671875,-0.008554477855563163,0.008714643703203183,0.005786584044806659
1761475345838122200,10.728122314453126,0.001173135432600975,0.00621395174455829,-0.012425875928811728
1761475345848099000,10.73809912109375,-0.000020458266139030454,0.0010089156059955712,-0.008848474099766463
1761475345858076200,10.748076171875,-0.0018196166425943374,0.00027489196822280064,0.00031098391162231564
1761475345868053000,10.758052978515625,0.004313187023997306,-0.006131271579919848,-0.007728183099254965
1761475345878030000,10.768030029296876,0.016733108136057852,-0.006634820063220104,0.004391129364725202
1761475345888007000,10.7780068359375,0.0031149171501398086,-0.006363818818825529,-0.02076915871910751
1761475345897984000,10.78798388671875,0.001319265905022621,-0.005882942249992629,-0.008072064633481204
1761475345907961000,10.797961181640625,0.002215337961912155,-0.0005104234653699677,0.0005495784404687584
1761475345917938000,10.80793798828125,-0.0013736264407634734,-0.018822759050311288,-0.0038446744631044564
1761475345927915000,10.8179150390625,-0.0006266074657440185,-0.004856001221894985,-0.001483973213750869
1761475345937891800,10.827891845703125,0.010735913547873496,-0.0004399223622924182,-0.002019851922430098
1761475345947869200,10.837869140625,0.011625555863976478,-0.02328310288497014,-0.0008497852297499775
1761475345957846000,10.847845947265625,-0.014713585007190704,0.011180404770717722,-0.013992376326862722
1761475345967823000,10.857822998046874,0.00504325486421585,0.05033174601565115,-0.014125391589384525
1761475345977800200,10.86780029296875,0.009238952988386154,0.0419125393117778,-0.0013126717674545943
1761475345987776000,10.87777587890625,0.006701543465256691,-0.021313832655595614,-0.004960307554807514
1761475345997752800,10.8877529296875,-0.004067687830328941,-0.05282469077596906,-0.012392923507280646
1761475346007730000,10.89772998046875,0.0071557169735431666,-0.017975705775409006,-0.009534136542677879
1761475346017707000,10.90770703125,0.015385785180330276,0.019935660187166648,0.007818491731211543
