time,seconds_elapsed,z,y,x
1761475319853195500,0.081195556640625,-0.0012542193289846182,-0.00014534033834934235,-0.00030648603569716215
1761475319863172600,0.091172607421875,-0.0006766197038814425,-0.0015727488789707422,-0.000033125863410532475
1761475319873149400,0.1011494140625,-0.0008635736303403974,0.0030451721977442503,0.0006326644215732813
1761475319883126500,0.11112646484375,0.0015921497251838446,0.00022199982777237892,0.00030717189656570554
1761475319893103600,0.121103515625,-0.00022758828708902001,0.003134166356176138,-0.0016326747136190534
1761475319903080400,0.13108056640625,0.0003772556083276868,0.0013085538521409035,-0.0030812609475106
1761475319913057500,0.1410576171875,-0.0002003840054385364,0.00027285050600767136,0.0017398595809936523
1761475319923034400,0.151034423828125,0.0017526685260236263,-0.0008356735343113542,-0.0016692752251401544
1761475319933011500,0.161011474609375,-0.002901471685618162,-0.0009920011507347226,-0.0005406276322901249
1761475319942988300,0.17098828125,0.0005756969912908971,0.0010446363594383001,0.002016867510974407
1761475319952965400,0.18096533203125,-0.000027242640499025583,-0.00020704930648207664,0.0000916683638934046
1761475319962942700,0.190942626953125,-0.0007395909633487463,-0.0007419706089422107,-0.00007487228867830709
1761475319972919600,0.20091943359375,0.0005626947968266904,-0.0023859399370849133,-0.0003449168289080262
1761475319982896600,0.210896728515625,0.001116100698709488,0.002271475736051798,-0.0014057792723178864
1761475319992873500,0.22087353515625,-0.00023279042216017842,0.0008051395416259766,0.0005324693629518151
1761475320002850600,0.2308505859375,-0.00044748198706656694,0.0028800193686038256,0.0006985755171626806
1761475320012827400,0.240827392578125,-0.0007806434296071529,0.002043520798906684,-0.0018988053780049086
1761475320022804500,0.250804443359375,-0.0006091876421123743,0.0009048637002706528,-0.001875199843198061
1761475320032781600,0.260781494140625,-0.0002869452000595629,0.004330753814429045,-0.00516260601580143
1761475320042758400,0.27075830078125,0.001524010207504034,-0.0014270178508013487,0.0037783875595778227
1761475320052735500,0.280735595703125,0.0005437005311250687,0.0007218869868665934,0.0013698245165869594
1761475320062712300,0.29071240234375,0.00015774957137182355,-0.0013001395855098963,-0.0007961129304021597
1761475320072689400,0.300689453125,0.0009210115531459451,-0.0017305065412074327,0.0018942124443128705
1761475320082666500,0.31066650390625,0.0005879004602320492,0.00023883208632469177,0.00016019390022847801
1761475320092643600,0.3206435546875,-0.0025232043117284775,0.0017360611818730831,-0.00024647079408168793
1761475320102621400,0.330621337890625,0.0006756620714440942,-0.00012531084939837456,-0.0002743495861068368
1761475320112598500,0.3405986328125,-0.0002457916853018105,0.0008984082378447056,-0.0010522590018808842
1761475320122575600,0.35057568359375,0.00022057769820094109,-0.0005606584018096328,0.0007025185041129589
1761475320132552400,0.360552490234375,0.0012514872942119837,-0.00011138315312564373,-0.0009049655054695904
1761475320142529500,0.370529541015625,-0.00021727842977270484,-0.000686340150423348,-0.002259674249216914
1761475320152506600,0.380506591796875,-0.0018103814218193293,0.0018316784407943487,0.0014525058213621378
1761475320162483500,0.3904833984375,-0.000008267874363809824,0.0005616855341941118,0.0013700558338314295
1761475320172460500,0.40046044921875,-0.00023543555289506912,0.0006463739555329084,0.0027122891042381525
1761475320182437400,0.410437255859375,0.00030809134477749467,0.0008105076849460602,-0.0010335544357076287
1761475320192414500,0.42041455078125,0.00014563853619620204,0.00017747445963323116,0.0034807699266821146
1761475320202391300,0.430391357421875,0.0013330288929864764,0.00002630637027323246,-0.0019120945362374187
1761475320212368400,0.440368408203125,0.0017114640213549137,-0.0008458788506686687,0.0016770475776866078
1761475320222345500,0.450345458984375,0.0006083634216338396,-0.002467379905283451,-0.002872761571779847
1761475320232322600,0.460322509765625,0.0009995817672461271,-0.0010455182055011392,0.0010319652501493692
1761475320242299600,0.470299560546875,-0.0008435736526735127,-0.0006556352600455284,0.0009970184182748199
1761475320252276500,0.4802763671875,0.0021788477897644043,-0.0003626876277849078,0.001696364488452673
1761475320262253600,0.490253662109375,0.0016796054551377892,0.0025980013888329268,-0.0025700582191348076
1761475320272230400,0.50023046875,-0.004025951027870178,-0.0016124562826007605,0.0003881811280734837
1761475320282207500,0.51020751953125,0.0002820213558152318,0.00019231485202908516,-0.0005630480591207743
1761475320292184600,0.5201845703125,0.0010727138724178076,-0.0005453807534649968,0.0014005005359649658
1761475320302161400,0.530161376953125,0.0006485860794782639,-0.00007025804370641708,-0.004914633929729462
1761475320312138500,0.540138427734375,-0.0029112612828612328,-0.0004771890817210078,0.0024082602467387915
1761475320322115300,0.550115234375,0.0006345374276861548,0.00024910434149205685,0.00018954306142404675
1761475320332092400,0.560092529296875,-0.0007234084187075496,-0.001145593007095158,-0.0014421757077798247
1761475320342070500,0.570070556640625,0.001808407949283719,-0.00015656114555895329,-0.0010621673427522182
1761475320352047400,0.58004736328125,-0.0014893843326717615,-0.0006681544473394752,-0.0023239729925990105
1761475320362024400,0.5900244140625,-0.00037112587597221136,-0.0004398935707286,0.0010040411725640297
1761475320372001500,0.60000146484375,-0.00030721002258360386,0.0002956714015454054,0.002185951918363571
1761475320381978600,0.609978515625,-0.0006282152025960386,-0.0011814109748229384,0.0022154555190354586
1761475320391955700,0.619955810546875,-0.0038216114044189453,0.00004337681457400322,-0.002034683246165514
1761475320401932500,0.6299326171875,0.002537909196689725,-0.00037162494845688343,-0.00015878018166404217
1761475320411909600,0.63990966796875,-0.0006568189128302038,-0.0014307640958577394,0.002214362844824791
1761475320421886500,0.649886474609375,0.0005061198025941849,0.0005833504255861044,0.003651568666100502
1761475320431863600,0.659863525390625,0.001907741418108344,-0.003113383427262306,0.003002822631970048
1761475320441840400,0.66984033203125,-0.0024750535376369953,-0.0009252701420336962,0.0035465238615870476
1761475320451817500,0.6798173828125,0.00038731194217689335,0.0005700946785509586,0.00028228736482560635
1761475320461794600,0.689794677734375,0.0010820856550708413,-0.002783206757158041,0.0036367657594382763
1761475320471771400,0.699771484375,-0.00007665576413273811,-0.0009991551050916314,0.0016540423966944218
1761475320481748500,0.70974853515625,0.001559330616146326,-0.0014693564735352993,-0.0005077362875454128
1761475320491725600,0.7197255859375,0.00045891242916695774,-0.0009737422224134207,0.002729069674387574
1761475320501702700,0.72970263671875,-0.0022045294754207134,0.0000445519108325243,0.0023154981900006533
1761475320511679500,0.739679443359375,0.0004623598069883883,-0.0007461404893547297,0.0031972709111869335
1761475320521656600,0.749656494140625,0.0009637791663408279,-0.001410474767908454,0.0012837252579629421
1761475320531633700,0.759633544921875,-0.0007523618987761438,-0.0024677496403455734,-0.0009706407436169684
1761475320541610500,0.769610595703125,0.00018669338896870613,-0.0021919417195022106,0.000852820638101548
1761475320551587600,0.779587646484375,0.00009561330080032349,-0.003368259873241186,0.0005857055657543242
1761475320561564400,0.789564453125,-0.002695780247449875,-0.00011231191456317902,0.00031324278097599745
1761475320571541500,0.79954150390625,-0.0004866881063207984,0.00031778845004737377,0.0006008641794323921
1761475320581518300,0.809518310546875,-0.002187367295846343,-0.000013210345059633255,-0.0019849101081490517
1761475320591496400,0.819496337890625,0.000021458487026393414,-0.0009447840275242925,-0.0009193791775032878
1761475320601473500,0.8294736328125,0.0008279539761133492,-0.0012912023812532425,0.0026756650768220425
1761475320611450400,0.839450439453125,0.001178425969555974,0.00023638689890503883,-0.00024528999347239733
1761475320621427500,0.849427490234375,-0.0003729628515429795,0.0017856534104794264,-0.0016801253659650683
1761475320631404300,0.859404296875,-0.00017162784934043884,0.0017803271766752005,0.00016890736878849566
1761475320641381400,0.86938134765625,0.0029606628231704235,-0.0011101203272119164,-0.0010894096922129393
1761475320651358700,0.879358642578125,0.0022852851543575525,-0.0024499567225575447,0.0027170462999492884
1761475320661335600,0.88933544921875,0.0012659758795052767,0.000630850438028574,-0.0016041516792029142
1761475320671312600,0.899312744140625,0.00039592108805663884,0.00008809822611510754,0.0015455689281225204
1761475320681289500,0.90928955078125,-0.00153752276673913,0.00034262542612850666,-0.0012441871222108603
1761475320691266600,0.9192666015625,0.0007839548052288592,0.00007764087058603764,0.0013486664975062013
1761475320701243400,0.929243408203125,-0.0006248767604120076,-0.0014999922132119536,0.0023083281703293324
1761475320711220500,0.939220458984375,-0.002589224372059107,0.0021658488549292088,0.000029194881790317595
1761475320721197600,0.949197509765625,-0.00012519641313701868,0.0001577502116560936,0.001166904461570084
1761475320731174400,0.95917431640625,0.00017121341079473495,0.000988656422123313,0.0014260300667956471
1761475320741151500,0.9691513671875,-0.0006442929734475911,0.0024583761114627123,-0.003728084731847048
1761475320751128300,0.97912841796875,-0.0007127362187020481,0.0014415811747312546,-0.0011062027188017964
1761475320761105400,0.98910546875,0.0012700457591563463,-0.0007164524868130684,-0.0020713387057185173
1761475320771082200,0.999082275390625,0.0007190376636572182,-0.00019766855984926224,0.0010344398906454444
1761475320781059300,1.009059326171875,-0.0006872304948046803,0.0016284610610455275,0.0014401111984625459
1761475320791036200,1.0190361328125,0.002327734138816595,-0.0003622518852353096,-0.0025024323258548975
1761475320801013200,1.02901318359375,-0.0004973163595423102,-0.00113604252692312,0.0034957053139805794
1761475320810990000,1.038989990234375,-0.002636101096868515,0.0012655961327254772,-0.00117787579074502
1761475320820967200,1.04896728515625,0.001961032161489129,-0.00007387693040072918,-0.0009701356757432222
1761475320830944300,1.0589443359375,-0.002745306119322777,-0.0014821565710008144,-0.0009677389170974493
1761475320840922000,1.068922119140625,0.0018127411603927612,-0.0012845132732763886,-0.0009465156472288072
1761475320850899200,1.078899169921875,-0.0006418943521566689,0.0010066041722893715,-0.0010991147719323635
1761475320860876300,1.088876220703125,0.00020684819901362062,0.0002148051280528307,0.0015415650559589267
1761475320870853000,1.09885302734375,-0.0013825264759361744,-0.0016691149212419987,-0.00018762546824291348
1761475320880830200,1.108830322265625,-0.0008097022073343396,-0.001578633557073772,-0.00047754187835380435
1761475320890807000,1.11880712890625,0.00001827458618208766,-0.0015357566298916936,0.0012535128043964505
1761475320900784000,1.1287841796875,0.001763557200320065,0.0009536272846162319,-0.0033314900938421488
1761475320910761200,1.13876123046875,-0.00036910222843289375,-0.001836566487327218,-0.003659857902675867
1761475320920738300,1.14873828125,-0.0036734940949827433,0.000590507872402668,0.0007250688504427671
1761475320930715400,1.15871533203125,-0.00044281367445364594,-0.0005013882182538509,0.0004576875362545252
1761475320940692200,1.168692138671875,0.00011503818677738309,-0.001817065291106701,-0.0006400716956704855
1761475320950669300,1.17866943359375,0.0008412821916863322,-0.0005017300136387348,-0.0012054607504978776
1761475320960646100,1.188646240234375,-0.001623556250706315,0.0025137693155556917,0.000997715163975954
1761475320970623200,1.198623291015625,0.002736038528382778,0.00024076108820736408,-0.0004382612241897732
1761475320980600000,1.20860009765625,-0.0017027969006448984,-0.0004934725584462285,-0.0013336651027202606
1761475320990577200,1.2185771484375,0.001128143398091197,-0.0013390262611210346,-0.002703861566260457
1761475321000554200,1.22855419921875,-0.0005737062310799956,0.0017217325512319803,0.00033071116195060313
1761475321010531000,1.238531005859375,0.002478276379406452,0.0007363627664744854,-0.0013774402905255556
1761475321020508400,1.24850830078125,-0.0023862808011472225,0.0002992013469338417,0.0022214173804968596
1761475321030485200,1.2584853515625,-0.0018360717222094536,-0.00034981092903763056,0.0013074204325675964
1761475321040462300,1.26846240234375,-0.00033155339770019054,0.0014138638507574797,0.0016483631916344166
1761475321050439200,1.278439208984375,0.0019467808306217194,0.0015092049725353718,-0.00043449507211335003
1761475321060416300,1.288416259765625,-5.272449925541878e-7,0.00035161664709448814,-0.0011575889075174928
1761475321070393300,1.298393310546875,-0.0001379463355988264,0.0013939777854830027,-0.0026007560081779957
1761475321080370200,1.3083701171875,-0.0019777677953243256,0.0008159491699188948,-0.0007689299527555704
1761475321090347300,1.31834716796875,-0.0006413936498574913,-0.0014008661964908242,-0.00045254643191583455
1761475321100325000,1.3283251953125,0.0015100702876225114,-0.00017058849334716797,-0.0008459019591100514
1761475321110302200,1.33830224609375,-0.003079088870435953,0.0001737580168992281,-0.0027524589095264673
1761475321120279300,1.348279296875,-0.00253201462328434,0.001754156081005931,-0.00019231537589803338
1761475321130256100,1.358256103515625,-0.001054226653650403,-0.0004549361765384674,-0.003431251971051097
1761475321140233200,1.368233154296875,0.002075726632028818,-0.0010284683667123318,-0.001408006763085723
1761475321150210000,1.3782099609375,0.001244820305146277,-0.0005610836669802666,-0.0010234463261440396
1761475321160187100,1.388187255859375,0.0006216849433258176,0.0009497702121734619,-0.0012998658930882812
1761475321170164200,1.398164306640625,0.002170046791434288,0.0013572338502854109,0.0011454486520960927
1761475321180141300,1.408141357421875,-0.0009960883762687445,0.0008815126493573189,-0.0017854523612186313
1761475321190118400,1.418118408203125,0.0017467013094574213,0.0014138785190880299,0.00005399306974140927
1761475321200095200,1.42809521484375,0.0012244831304997206,0.00041307415813207626,-0.0011873655021190643
1761475321210072300,1.438072265625,-0.0007017813040874898,0.00016832957044243813,-0.0007245081360451877
1761475321220049200,1.448049072265625,0.00036978645948693156,0.0012264912948012352,-0.0007375905988737941
1761475321230026200,1.458026123046875,0.00008323031943291426,-0.0006840605055913329,-0.00044517553760670125
1761475321240003000,1.468003173828125,-0.001088909455575049,0.001355054322630167,-0.0010765697807073593
1761475321249980200,1.477980224609375,-0.0006689289584755898,-0.0002130148932337761,0.0022454573772847652
1761475321259957200,1.487957275390625,0.00017783866496756673,-0.001257358817383647,-0.0011102179996669292
1761475321269934000,1.49793408203125,0.0011155377142131329,0.0025901098269969225,-0.0008460324024781585
1761475321279911200,1.5079111328125,-0.0012952514225617051,-0.00030907581094652414,0.0010732702212408185
1761475321289888300,1.51788818359375,0.002900558989495039,-0.0005476950900629163,0.0006034885300323367
1761475321299865300,1.527865234375,-0.0018351433100178838,0.0009197124745696783,0.00018926378106698394
1761475321309842200,1.53784228515625,-0.000434320536442101,0.00009732833132147789,0.0008830172009766102
1761475321319819300,1.5478193359375,-0.0022529929410666227,0.00026540993712842464,-0.0008970022900030017
1761475321329796400,1.55779638671875,0.0002290732809342444,0.00015888363122940063,0.00043298036325722933
1761475321339773200,1.567773193359375,0.0004984878469258547,-0.00008581764996051788,0.00019538862397894263
1761475321349750300,1.577750244140625,-0.001690097851678729,-0.0009675902547314763,0.0016231093322858214
1761475321359727000,1.58772705078125,0.0007029780535958707,0.00008717970922589302,-0.001197263365611434
1761475321369704200,1.5977041015625,-0.0015314139891415834,0.0020565874874591827,0.00041927542770281434
1761475321379682300,1.607682373046875,0.000028989568818360567,-0.001128721283748746,0.001335587934590876
1761475321389659100,1.6176591796875,-0.00017634016694501042,0.0009083305485546589,-0.0025579535868018866
1761475321399636200,1.62763623046875,-0.0006369652692228556,0.0008574225939810276,-0.0021754044573754072
1761475321409613000,1.637613037109375,0.0021479022689163685,-0.0031562275253236294,-0.0009058754658326507
1761475321419590100,1.647590087890625,-0.00004927010741084814,0.001181447645649314,0.0023512730840593576
1761475321429567000,1.65756689453125,0.0016317171975970268,0.0008261818438768387,0.0010993210598826408
1761475321439544300,1.66754443359375,-0.0001233997754752636,-0.00013535190373659134,-0.001815364696085453
1761475321449521400,1.677521484375,0.0002451817272230983,-0.0004586597206071019,0.0009639101917855442
1761475321459498200,1.687498291015625,0.0013018151512369514,0.001172311371192336,-0.0006619741907343268
1761475321469475300,1.697475341796875,0.0012208550469949841,-0.000264730304479599,0.0015990495448932052
1761475321479452200,1.7074521484375,0.0001151622855104506,0.0000018649734556674957,-0.0020163184963166714
1761475321489429200,1.71742919921875,0.0006179671036079526,-0.0004045333480462432,-0.0018916826229542494
1761475321499406000,1.727406005859375,0.003412994323298335,-0.0007345263147726655,-0.0018589458195492625
1761475321509383200,1.737383056640625,0.0010931146098300815,0.00013952329754829407,-0.0006860896246507764
1761475321519360300,1.7473603515625,0.0013323193415999413,0.000514936400577426,0.00003848080086754635
1761475321529337000,1.757337158203125,0.00023882539244368672,-0.0011873561888933182,-0.00022943320800550282
1761475321539314200,1.767314208984375,-0.0022171763703227043,0.001741431886330247,-0.00031719819526188076
1761475321549291000,1.777291015625,-0.0006528355879709125,0.002014672150835395,0.001379501773044467
1761475321559268400,1.787268310546875,-0.000060833815950900316,-0.0015102112665772438,0.000008761067874729633
1761475321569245200,1.7972451171875,-0.00039905525045469403,-0.0008358989143744111,0.000310230883769691
1761475321579222300,1.80722216796875,0.0003725839196704328,0.0006704614497721195,-0.0020769608672708273
1761475321589199400,1.817199462890625,-0.0018378397217020392,0.000056869350373744965,0.0009385364246554673
1761475321599176200,1.82717626953125,-0.00017651461530476809,0.0010456126183271408,0.0030892060603946447
1761475321609153300,1.8371533203125,-0.0007845142390578985,0.0002791548613458872,-0.00011004919360857457
1761475321619130000,1.847130126953125,0.002837324747815728,-0.00035121082328259945,-0.0010145106352865696
1761475321629107200,1.857107177734375,-0.00035607157042250037,0.0007020693738013506,-0.0019234474748373032
1761475321639084000,1.867083984375,-0.0013125808909535408,0.0013434914872050285,-0.0012141400948166847
1761475321649061000,1.87706103515625,0.0001827838714234531,-0.000404873862862587,-0.0006977530429139733
1761475321659039200,1.887039306640625,-0.004127146676182747,-0.001194596290588379,-0.0004943708190694451
1761475321669016000,1.89701611328125,-0.0003369359765201807,-0.0009551780531182885,0.000740803312510252
1761475321678993200,1.9069931640625,-0.0000988583778962493,0.00047246390022337437,-0.00148884323425591
1761475321688970200,1.91697021484375,-0.0001595784560777247,0.00023943744599819183,-0.002233196748420596
1761475321698947000,1.926947021484375,-0.0016748367343097925,0.0005173515528440475,-0.0002028527669608593
1761475321708924400,1.93692431640625,-0.0014061236288398504,0.0014049832243472338,0.0000783770447014831
1761475321718901200,1.9469013671875,-0.00042537995614111423,0.0006858245469629765,0.00043582869693636894
1761475321728878300,1.95687841796875,-0.001483720145188272,-0.0021991778630763292,-0.003339468501508236
1761475321738855200,1.966855224609375,0.0022684773430228233,-0.0003943772753700614,0.00015481605078093708
1761475321748832300,1.976832275390625,-0.0028589065186679363,0.00021655182354152203,0.001414491212926805
1761475321758809300,1.986809326171875,-0.00020074989879503846,0.00012357905507087708,-0.0021755362395197153
1761475321768786700,1.99678662109375,-0.0009000959689728916,0.001236514188349247,-0.00009028124623000622
1761475321778763500,2.006763427734375,-0.0008017703075893223,-0.0005442703841254115,-0.0007317477138713002
1761475321788740600,2.01674072265625,-0.001476349076256156,-0.000819641281850636,0.0016142308013513684
1761475321798717400,2.026717529296875,0.0006890133372507989,-0.0012748040026053786,-0.0010062839137390256
1761475321808694500,2.036694580078125,-0.000816205283626914,0.0028091534040868282,-0.001082184026017785
1761475321818671600,2.046671630859375,-0.0003735320642590523,-0.00020708609372377396,0.0008714741561561823
1761475321828648400,2.0566484375,-0.0010792696848511696,0.0009556498844176531,0.001808107946999371
1761475321838625800,2.066625732421875,0.0003709236334543675,0.00129656121134758,0.00008166088082361966
1761475321848602600,2.0766025390625,-0.000712184002622962,0.0002432810142636299,0.0015581173356622458
1761475321858579700,2.086579833984375,-0.0009064172045327723,-0.0007213846547529101,-0.001142960856668651
1761475321868556500,2.096556640625,-0.0016576950438320637,0.0008016771171241999,-0.0005778380436822772
1761475321878533600,2.10653369140625,0.000058923440519720316,-0.0004192228661850095,0.0005195990670472383
1761475321888510700,2.1165107421875,-0.0013807814102619886,-0.0007939295610412955,0.0012809968320652843
1761475321898487600,2.126487548828125,-0.0013796321582049131,0.00022799521684646606,-0.002237618202343583
1761475321908464600,2.136464599609375,0.00030215398874133825,-0.0012037201086059213,0.0006311388569884002
1761475321918441500,2.14644140625,-0.0024751946330070496,-0.0000314230564981699,-0.0016523082740604877
1761475321928418600,2.15641845703125,-0.002238972345367074,0.0001834940630942583,0.00003853267844533548
1761475321938395400,2.1663955078125,-0.000810302619356662,-0.0015279718209058046,0.0011571114882826805
1761475321948372500,2.17637255859375,-0.0008385321707464755,-0.0015077318530529737,0.002093745395541191
1761475321958350600,2.1863505859375,0.0002914802171289921,-0.0015969957457855344,0.00036982924211770296
1761475321968327400,2.196327392578125,-0.0017287936061620712,-0.00022280472330749035,-0.002277619205415249
1761475321978304500,2.206304443359375,0.0022952863946557045,0.0013088551349937916,-0.0002833629841916263
1761475321988281600,2.216281494140625,-0.0008973110234364867,-0.002036075107753277,-0.003048789454624057
1761475321998258700,2.2262587890625,0.002441982738673687,-0.0002727613318711519,0.00006942784239072353
1761475322008235800,2.23623583984375,-0.001987653085961938,0.0006279197987169027,-0.0015268709976226091
1761475322018212600,2.246212646484375,-0.0006933864206075668,0.0009923574980348349,0.004058500751852989
1761475322028189700,2.256189697265625,0.0017255628481507301,-0.0012486926279962063,-0.0005785952089354396
1761475322038166500,2.26616650390625,0.000249797070864588,0.002612243639305234,-0.0010940106585621834
1761475322048143600,2.2761435546875,0.001889239065349102,-0.0009044604375958443,-0.0006087826332077384
1761475322058120400,2.286120361328125,0.0011740286136046052,-0.0008583646267652512,-0.0004548929864540696
1761475322068097500,2.29609765625,-0.0006792651256546378,0.00044844835065305233,-0.0018477262929081917
1761475322078074600,2.30607470703125,-0.00043862086022272706,0.002256205305457115,-0.0005068858154118061
1761475322088051500,2.316051513671875,0.000567255076020956,-0.0008724764920771122,-0.00040675094351172447
1761475322098028500,2.326028564453125,-0.0013972616288810968,0.0003241775557398796,-0.0011866872664541006
1761475322108005600,2.336005615234375,-0.0008731514681130648,-0.0001570556778460741,-0.0009640470379963517
1761475322117982700,2.345982666015625,0.00019821047317236662,0.00003658118657767773,0.000354661897290498
1761475322127959600,2.35595947265625,0.00003788812318816781,-0.00023532751947641373,0.0018247268162667751
1761475322137936600,2.3659365234375,0.001957271248102188,0.0010470228735357523,0.0024374634958803654
1761475322147913700,2.375913818359375,-0.0026236320845782757,0.0007657930254936218,0.0003159893094561994
1761475322157890600,2.385890625,-0.0032518450170755386,-0.0016654008068144321,-0.0026407125405967236
1761475322167867600,2.39586767578125,0.0018337271176278591,0.001357286935672164,0.0035197115503251553
1761475322177844500,2.405844482421875,-0.0002945156302303076,-0.003273311071097851,-0.00008820718358037993
1761475322187821600,2.415821533203125,0.0007968478021211922,0.0010868161916732788,0.00006572353595402092
1761475322197798400,2.42579833984375,-0.0012337141670286655,0.0007467647083103657,-0.00015618217003066093
1761475322207775500,2.435775390625,0.0024933796375989914,0.00013849884271621704,0.0025431979447603226
1761475322217752600,2.445752685546875,0.0011090121697634459,-0.00007723737508058548,-0.0007689364138059318
1761475322227729700,2.455729736328125,-0.00024014519294723868,0.0017198638524860144,0.00025345117319375277
1761475322237706800,2.465706787109375,0.002229147357866168,-0.001034237677231431,0.00020575420057866722
1761475322247683600,2.47568359375,0.00111621234100312,0.0005426199641078711,0.002151992404833436
1761475322257660700,2.48566064453125,-0.0017442612443119287,0.001651307800784707,-0.006132160779088736
1761475322267638800,2.495638671875,0.0007977260393090546,-0.0000355385709553957,-0.0003552314010448754
1761475322277615600,2.50561572265625,-0.001491680508479476,0.000741519732400775,-0.0000764768774388358
1761475322287592700,2.5155927734375,-0.0015380193945020437,0.0010283421725034714,-0.0003550435067154467
1761475322297569500,2.525569580078125,0.0014152002986520529,-0.0012172285933047533,-0.0005992884398438036
1761475322307546600,2.535546630859375,0.00009107665391638875,-0.00033811910543590784,0.0005165761103853583
1761475322317523500,2.5455234375,0.0002010440221056342,-0.0010234973160549998,0.000008706942026037723
1761475322327500500,2.55550048828125,-0.00005248887464404106,0.0007815931458026171,0.0020513515919446945
1761475322337477600,2.5654775390625,-0.0005649795057252049,0.0008891909383237362,0.00239573628641665
1761475322347454500,2.575454345703125,-0.00030185922514647245,-0.0013390759704634547,0.0007871870184317231
1761475322357431600,2.585431640625,0.00121405441313982,0.0021117934957146645,-0.003403924871236086
1761475322367408600,2.59540869140625,0.0002550501376390457,-0.000478929840028286,0.0036465278826653957
1761475322377385700,2.6053857421875,0.001985505223274231,-0.0015228334814310074,0.004470514133572578
1761475322387362600,2.615362548828125,-0.00043051433749496937,-0.0007435926236212254,0.0008142602164298296
1761475322397339600,2.625339599609375,-0.002680888632312417,-0.002398469252511859,0.0013426403747871518
1761475322407316700,2.635316650390625,0.0010067903203889728,0.0003579026088118553,-0.002176726935431361
1761475322417293600,2.64529345703125,-0.0003133428981527686,-0.00019283057190477848,0.002049408620223403
1761475322427270700,2.655270751953125,0.0002946567256003618,-0.000045025255531072617,0.0020334296859800816
1761475322437247500,2.66524755859375,-0.0002528073382563889,0.0005191471427679062,-0.00301568116992712
1761475322447224600,2.675224609375,0.001094219507649541,0.00040516373701393604,-0.00035385170485824347
1761475322457201400,2.685201416015625,-0.0017631734954193234,0.0006411841604858637,0.0033493139781057835
1761475322467178500,2.695178466796875,-0.0003812592476606369,0.0005447778385132551,0.0016677938401699066
1761475322477155600,2.705155517578125,-0.001686316798441112,-0.0010100662475451827,-0.0012438347330316901
1761475322487132700,2.715132568359375,-0.00042823958210647106,-0.00017356732860207558,-0.0023839338682591915
1761475322497109800,2.72510986328125,0.0011254118289798498,0.0012777624651789665,0.0033019986003637314
1761475322507086600,2.735086669921875,-0.002293021883815527,-0.00004716007970273495,-0.0021777215879410505
1761475322517063700,2.745063720703125,0.0023850356228649616,-0.00007266830652952194,0.00238520628772676
1761475322527040500,2.75504052734375,0.0013256302336230874,-0.0007552366005256772,-0.0013844982022419572
1761475322537017600,2.765017578125,-0.0018292487366124988,0.0009602471254765987,-0.0012324228882789612
1761475322546994700,2.77499462890625,0.00007278088014572859,-0.0014587021432816982,-0.00014345638919621706
1761475322556971500,2.784971435546875,0.00028820993611589074,-0.0019351632799953222,0.0018688287818804383
1761475322566948600,2.794948486328125,0.001410199678502977,-0.0004967900458723307,-0.0006361404666677117
1761475322576925400,2.804925537109375,-0.0003631660365499556,-0.0006180544150993228,0.0012559028109535575
1761475322586902500,2.814902587890625,0.0009409838821738958,0.0014871745370328426,-0.002497290028259158
1761475322596880600,2.824880615234375,-0.00007422000635415316,0.0036026183515787125,-0.0002358144411118701
1761475322606857500,2.834857421875,-0.0010428117820993066,0.0006787339225411415,-0.0003617819747887552
1761475322616834600,2.84483447265625,-0.0003009543870575726,0.0009373433422297239,0.0027652736753225327
1761475322626811400,2.854811279296875,-0.0002855080529116094,-0.0010035685263574123,-0.0009309275192208588
1761475322636788500,2.86478857421875,0.0026184492744505405,-0.0013787378557026386,-0.0008618400897830725
1761475322646765600,2.874765625,-0.0007864023791626096,-0.00023437757045030594,0.00035602343268692493
1761475322656742700,2.88474267578125,0.0013899083714932203,-0.0005073359934613109,-0.0008997551049105823
1761475322666719700,2.8947197265625,0.0018274657195433974,-0.0005150591023266315,-0.001104285940527916
1761475322676696600,2.904696533203125,-0.0011739335022866726,0.00214035133831203,-0.004291690420359373
1761475322686673700,2.914673583984375,0.0003288881853222847,0.0013539197389036417,-0.002170482650399208
1761475322696650500,2.924650390625,-0.0001556483330205083,-0.001987915486097336,0.0006609255215153098
1761475322706627600,2.934627685546875,0.0017711487598717213,-0.0002600564621388912,-0.001084776595234871
1761475322716604400,2.9446044921875,-0.0005087908357381821,-0.00018741749227046967,0.0008031297475099564
1761475322726581500,2.95458154296875,0.001859291922301054,0.0012315146159380674,-0.0006128730019554496
1761475322736558600,2.96455859375,0.002443535253405571,-0.0014830445870757103,-0.0004404941573739052
1761475322746535400,2.974535400390625,-0.0003165649832226336,-0.0022210064344108105,0.0010761760640889406
1761475322756512800,2.9845126953125,0.00102704088203609,0.00011825421825051308,0.0013645532308146358
1761475322766489900,2.99448974609375,-0.0005719210021197796,0.0012463692110031843,-0.0007124460535123944
1761475322776466700,3.004466796875,0.00009466882329434156,-0.001763190608471632,-0.0005970295751467347
1761475322786443800,3.01444384765625,0.0013354355469346046,0.0013625617139041424,-0.001868156366981566
1761475322796420900,3.0244208984375,0.0022230297327041626,-0.0006022204179316759,0.0011843142565339804
1761475322806397700,3.034397705078125,0.0009945133933797479,0.0013786389026790857,0.0000780372429289855
1761475322816374800,3.044374755859375,0.0005181299056857824,-0.0005361300427466631,-0.0003394547966308892
1761475322826351600,3.0543515625,-0.0033059031702578068,0.0013693617656826973,-0.00032214424572885036
1761475322836328700,3.06432861328125,-0.0003994554281234741,-0.0019623786211013794,0.0012692499440163374
1761475322846305500,3.074305419921875,-0.0009746982250362635,0.0031045519281178713,-0.0009475653059780598
1761475322856282600,3.08428271484375,0.00006703176768496633,-0.0006225245306268334,0.000022566004190593958
1761475322866259700,3.094259765625,-0.0008000935195013881,-0.0012771295150741935,-0.0017319245962426066
1761475322876236800,3.10423681640625,-0.00023963022977113724,-0.0008786787511780858,0.00016721972497180104
1761475322886214000,3.1142138671875,0.0002530546043999493,0.0007383925840258598,0.000024740613298490644
1761475322896190700,3.124190673828125,-0.001081771682947874,0.0003207086119800806,-0.0014513751957565546
1761475322906167800,3.134167724609375,-0.00039920350536704063,-0.0015988978557288647,0.00020138255786150694
1761475322916144600,3.14414453125,-0.0000036487472243607044,0.0006439785938709974,0.0009363832068629563
1761475322926122800,3.154122802734375,0.0016054331790655851,0.000363015104085207,-0.0006524586933664978
1761475322936099800,3.164099853515625,-0.0027160232421010733,-0.0037215810734778643,-0.001819531200453639
1761475322946076700,3.17407666015625,-0.00030213402351364493,0.0020638699643313885,-0.0024842561688274145
1761475322956053800,3.1840537109375,0.0009807116584852338,0.0000398044940084219,-0.0008837289642542601
1761475322966030600,3.194030517578125,0.00024807604495435953,0.0002312858123332262,-0.004171134904026985
1761475322976007700,3.204007568359375,0.001056486158631742,-0.00013303477317094803,-0.0010703594889491796
1761475322985984800,3.21398486328125,0.00029082736000418663,0.0016771156806498766,-0.0029601387213915586
1761475322995961600,3.223961669921875,0.0002942759310826659,-0.000958352698944509,-0.002148497151210904
1761475323005938700,3.233938720703125,-0.0017302592750638723,0.00019905716180801392,-0.002514682011678815
1761475323015915500,3.24391552734375,0.0033810813911259174,-0.00013541290536522865,-0.002305013360455632
1761475323025892600,3.253892578125,0.000859866791870445,-0.0006222387310117483,0.004300958011299372
1761475323035869700,3.26386962890625,-0.0007727992488071322,0.000759962247684598,0.0010934004094451666
1761475323045846800,3.2738466796875,-0.00009475840488448739,-0.0014640437439084053,0.0006268146680667996
1761475323055824000,3.283823974609375,0.0006196313188411295,-0.0005468983436003327,-0.0004224443109706044
1761475323065800700,3.29380078125,0.0003450594376772642,-0.0012294665211811662,0.0019605522975325584
1761475323075777800,3.30377783203125,0.0005972046637907624,-0.001434078672900796,0.0035806731320917606
1761475323085754600,3.313754638671875,-0.0017495729262009263,0.00017793290317058563,0.001465324079617858
1761475323095731700,3.323731689453125,-0.0004617797094397247,-0.0006049781804904342,0.0034255129285156727
1761475323105708500,3.33370849609375,0.0023641004227101803,0.0008355255704373121,-0.0013308925554156303
1761475323115685600,3.343685546875,-0.00007057440234348178,-0.0006496332352980971,0.0026551149785518646
1761475323125662700,3.353662841796875,-0.0016993635799735785,0.0002830058801919222,-0.0021047526970505714
1761475323135639600,3.3636396484375,0.0010243271244689822,-0.00043868867214769125,-0.0023412497248500586
1761475323145617000,3.373616943359375,0.0020310021936893463,0.0008955551311373711,0.0016942382790148258
1761475323155593700,3.38359375,-0.0001769805676303804,-0.0006977241719141603,-0.0014706711517646909
1761475323165570800,3.39357080078125,0.0010896187741309404,0.0006335901562124491,-0.0011742613278329372
1761475323175547600,3.403547607421875,-0.001965806819498539,-0.00009974255226552486,-0.0005204710178077221
1761475323185524700,3.413524658203125,-0.00011624128092080355,0.000768980709835887,-0.0007082237862050533
1761475323195501800,3.423501708984375,-0.00035418011248111725,0.001503164879977703,0.0015313082840293646
1761475323205478700,3.433478759765625,-0.0016860270407050848,0.0005449594464153051,0.0025518315378576517
1761475323215455700,3.443455810546875,0.0012384565779939294,0.00039376108907163143,0.0019450138788670301
1761475323225432600,3.4534326171875,-0.001579966745339334,0.0009636776521801949,-0.0007530346047133207
1761475323235409700,3.46340966796875,0.0010812937980517745,0.0003384235315024853,0.0031492707785218954
1761475323245386500,3.473386474609375,-0.0007158072548918426,0.0015139428433030844,0.0023854761384427547
1761475323255363600,3.483363525390625,0.001061930670402944,0.000057558296248316765,0.000986957922577858
1761475323265341000,3.4933408203125,-0.0006680587539449334,-0.00006228405982255936,-0.00046206807019189
1761475323275317800,3.50331787109375,-0.00012677471386268735,0.004568412899971008,-0.001016517635434866
1761475323285295600,3.513295654296875,0.0012799069518223405,-0.0013280916027724743,-0.0030370578169822693
1761475323295272700,3.523272705078125,0.00013353535905480385,0.0017572923097759485,-0.001764507032930851
1761475323305249800,3.533249755859375,-0.00023557880194857717,0.0024007123429328203,-0.00006514393317047507
1761475323315227000,3.543226806640625,-0.001171951531432569,0.00035688048228621483,0.0012184001971036196
1761475323325203700,3.55320361328125,0.0005913274362683296,0.002371561713516712,0.00046499184099957347
1761475323335180800,3.563180908203125,0.0010471247369423509,-0.0015336985234171152,0.00040761264972388744
1761475323345157600,3.57315771484375,0.0005256778094917536,0.0007789905648678541,-0.0015178527683019638
1761475323355134700,3.583134765625,-0.000028845621272921562,-0.000008569564670324326,-0.00337584363296628
1761475323365111800,3.59311181640625,-0.0013801335589960217,-0.0000719528179615736,-0.0005145434406585991
1761475323375088600,3.603088623046875,-0.0013171969912946224,0.0006216461770236492,-0.0024164365604519844
1761475323385065700,3.613065673828125,-0.0008604647591710091,0.0005310988053679466,0.001565255573950708
1761475323395042600,3.62304248046875,0.0008529225597158074,-0.0027110916562378407,-0.00006152792775537819
1761475323405019600,3.63301953125,0.0007993930485099554,0.0006716554053127766,0.0006812276551499963
1761475323414996700,3.642996826171875,-0.000595505116507411,-0.0005930156912654638,0.0008888725424185395
1761475323424973800,3.652973876953125,0.00007454620208591223,-0.0011506816372275352,-0.0008927822345867753
1761475323434951000,3.662950927734375,-0.00043060811003670096,0.001209476264193654,0.00042489077895879745
1761475323444927700,3.672927734375,0.0017483902629464865,0.0003791025374084711,-0.0003729923046194017
1761475323454904800,3.68290478515625,-0.0003991307457908988,0.00015767337754368782,-0.0010026138043031096
1761475323464881700,3.692881591796875,0.0033149137161672115,-0.0007794928969815373,0.0023982429411262274
1761475323474858800,3.702858642578125,-0.000010141695383936167,-0.0028862543404102325,-0.0001992539910133928
1761475323484835600,3.712835693359375,0.001781366765499115,0.00020860531367361546,0.0017166240140795708
1761475323494812700,3.722812744140625,0.003232088405638933,-0.0012969019589945674,0.0005421944661065936
1761475323504789800,3.732789794921875,0.0013590871822088957,-0.0013104841345921159,0.00017947194282896817
1761475323514766600,3.7427666015625,0.0006624786765314639,-0.00007041427306830883,0.000008833027095533907
1761475323524743700,3.75274365234375,0.002279017586261034,-0.0005825401749461889,0.0013553273165598512
1761475323534720800,3.762720703125,0.000556867802515626,0.001250971807166934,-0.0017981810960918665
1761475323544697900,3.77269775390625,0.000973386166151613,-0.0010326888877898455,-0.00040907636866904795
1761475323554674700,3.7826748046875,0.0007175664650276303,0.0003754650242626667,0.0030007909517735243
1761475323564651800,3.79265185546875,-0.0013370622182264924,0.0010641585104167461,0.002300379564985633
1761475323574628900,3.80262890625,-0.00023066194262355566,-0.0005602674791589379,0.001922561670653522
1761475323584605700,3.812605712890625,0.00015070277731865644,0.0003433430101722479,-0.001073494553565979
1761475323594582800,3.822582763671875,0.0007895528106018901,-0.000021183397620916367,-0.00003653261228464544
1761475323604559600,3.8325595703125,-0.0001942188828252256,0.0003231631126254797,-0.0012586571974679828
1761475323614536700,3.84253662109375,-0.0015331602189689875,0.0006857498083263636,-0.001234925934113562
1761475323624513500,3.852513427734375,0.001068215467967093,0.0018085385672748089,-0.0012093596160411835
1761475323634490600,3.86249072265625,-0.0011669225059449673,0.0009911416564136744,-0.0005095802480354905
1761475323644468700,3.87246875,-0.0015805114526301622,0.001235087402164936,0.001603637938387692
1761475323654445600,3.882445556640625,-0.0011567170731723309,-0.001305077807046473,-0.0017555223312228918
1761475323664422700,3.892422607421875,0.00010189274325966835,0.001829995308071375,0.0012144349748268723
1761475323674399500,3.9023994140625,-0.0005010985187254846,-0.0004995813360437751,-0.0014916465152055025
1761475323684376800,3.912376953125,-0.0003157425089739263,0.002933499636128545,-0.00043490430107340217
1761475323694354000,3.92235400390625,0.0023010671138763428,0.00040838285349309444,-0.0004523355746641755
1761475323704330800,3.932330810546875,0.002158854156732559,0.0008850886952131987,-0.0005814988981001079
1761475323714307800,3.942307861328125,-0.0013509850250557065,-0.00006130360998213291,-0.0004964631516486406
1761475323724284700,3.95228466796875,0.000008025963325053453,0.0025997271295636892,-0.0007542571984231472
1761475323734261800,3.96226171875,0.00010989821748808026,0.0020942469127476215,-0.001057008863426745
1761475323744238600,3.972238525390625,0.00007288024062290788,0.00044069020077586174,0.002849315758794546
1761475323754215700,3.982215576171875,0.0009600125486031175,-0.0014487260486930609,0.00009518782462691888
1761475323764193000,3.992193115234375,0.0001400252222083509,0.00013771886005997658,0.003233190393075347
1761475323774170000,4.002170166015625,-0.0014104367000982165,-0.001184746390208602,0.0009690467268228531
1761475323784147000,4.01214697265625,-0.00046741135884076357,0.000942320330068469,0.0022050198167562485
1761475323794124000,4.0221240234375,-0.003474781522527337,-0.001812780974432826,0.0010288078337907791
1761475323804100900,4.032100830078125,0.0026411679573357105,0.002821119502186775,0.0014911326579749584
1761475323814078200,4.042078125,0.000052591669373214245,0.00004589185118675232,-0.0024151585530489683
1761475323824055300,4.05205517578125,0.0012933583930134773,0.0016717517282813787,0.0020331195555627346
1761475323834032000,4.0620322265625,-0.0009561688057146966,0.0014559188857674599,-0.0004437762254383415
1761475323844009200,4.07200927734375,0.000777016393840313,0.0008479193784296513,-0.0005841248203068972
1761475323853986000,4.081986083984375,0.0016659756656736135,-0.0016948436386883259,-0.0007132533937692642
1761475323863963100,4.091963134765625,0.001977032981812954,0.00035845348611474037,0.002774422289803624
1761475323873940000,4.10193994140625,-0.000701485201716423,-0.0022856409195810556,0.0015402049757540226
1761475323883917000,4.1119169921875,0.004054920747876167,-0.000031541334465146065,0.002269911114126444
1761475323893894100,4.12189404296875,0.0011598218698054552,-0.0015117950970306993,0.0003316475194878876
1761475323903871000,4.13187109375,0.0018575701396912336,0.001851511187851429,0.0012744064442813396
1761475323913848000,4.14184814453125,-0.0006757840164937079,-0.0012761368416249752,-0.003025943646207452
1761475323923825200,4.1518251953125,-0.00010613392805680633,-4.826579242944717e-7,0.0014806576073169708
1761475323933802200,4.16180224609375,0.0012727398425340652,-0.0018679972272366285,-0.0005103518487885594
1761475323943779000,4.171779052734375,0.0014389210846275091,-0.0006687758723273873,-0.0007388510857708752
1761475323953756200,4.181756103515625,-0.00027879467234015465,0.0009451434016227722,-0.00037632015300914645
1761475323963733200,4.191733154296875,0.00005756260361522436,-0.0005004203412681818,-0.0006508920341730118
1761475323973710000,4.2017099609375,0.0020634112879633904,-0.0009806494927033782,0.0007725124014541507
1761475323983687200,4.211687255859375,0.0016679320251569152,-0.0011225959751755,0.001758148311637342
1761475323993664000,4.2216640625,0.0006943541811779141,0.0005203878972679377,0.0023239748552441597
1761475324003641000,4.23164111328125,0.0006948867812752724,-0.00022183498367667198,-0.0012135017896071076
1761475324013618000,4.241617919921875,-0.00047351920511573553,-0.0012248543789610267,-0.00009219726780429482
1761475324023595000,4.251594970703125,0.0008916171500459313,0.0004129896406084299,-0.0013734439853578806
1761475324033573000,4.261572998046875,-0.0004373819683678448,0.0016650555189698935,-0.0011470640311017632
1761475324043550000,4.271550048828125,0.00028353568632155657,-0.0018175600562244654,0.0010833333944901824
1761475324053527000,4.281527099609375,-0.0022130280267447233,-0.0009858645498752594,0.001470618648454547
1761475324063504000,4.29150390625,-0.0017400505021214485,-0.00033285748213529587,-0.0008990619680844247
1761475324073481000,4.30148095703125,-0.0018980549648404121,0.0022014155983924866,0.00032889042631722987
1761475324083458300,4.311458251953125,0.001267378218472004,-0.0018873356748372316,0.00196114182472229
1761475324093435100,4.32143505859375,0.0021242015063762665,-0.0001333216205239296,-0.0010956749320030212
1761475324103412200,4.331412109375,-0.0011709276586771011,-0.0005130881909281015,-0.00024159913300536573
1761475324113389000,4.34138916015625,0.0029061883687973022,-0.0019798639696091413,0.001347057055681944
1761475324123366100,4.3513662109375,-0.00027708825655281544,0.0013642674311995506,-0.0008772150031290948
1761475324133343000,4.361343017578125,-0.0015555204590782523,0.0008493559435009956,-0.0018693467136472464
1761475324143320000,4.371320068359375,0.0018930068472400308,-0.001753085060045123,-0.0008317792089655995
1761475324153297200,4.381297119140625,0.0019088510889559984,0.0021668937988579273,0.0015489667421206832
1761475324163274000,4.39127392578125,0.0010193553753197193,0.0003476885613054037,-0.0015008853515610099
1761475324173251000,4.4012509765625,-0.001257054740563035,0.001074677798897028,-0.0017678505973890424
1761475324183228000,4.411227783203125,0.001985610229894519,-0.001748805632814765,0.00015095697017386556
1761475324193205000,4.421205078125,0.0009111795225180686,0.003208538983017206,-0.0012660661013796926
1761475324203182000,4.43118212890625,0.001067240722477436,-0.0015705034602433443,0.0002974757517222315
1761475324213159200,4.4411591796875,0.0007753032841719687,0.0016514568123966455,0.0021250329446047544
1761475324223136300,4.45113623046875,-0.0028354106470942497,-0.003008009633049369,0.0016611102037131786
1761475324233113000,4.461113037109375,0.0015343150589615107,0.00300647784024477,-0.0000886077104951255
1761475324243090200,4.471090087890625,0.0006842340808361769,-0.000082789221778512,0.0011859810911118984
1761475324253067000,4.48106689453125,-0.001570563530549407,0.0017063412815332413,-0.00168718327768147
1761475324263044000,4.491044189453125,0.00046222738455981016,-0.00020687351934611797,-0.0028280813712626696
1761475324273022200,4.501022216796875,0.000009838026016950607,0.0013514584861695766,-0.0036204559728503227
1761475324282999000,4.5109990234375,-0.0005134731181897223,0.00043080374598503113,-0.0008326589595526457
1761475324292976000,4.52097607421875,-0.0000828700140118599,-0.0008545827586203814,-0.001853740424849093
1761475324302953000,4.530952880859375,-0.0013148481957614422,0.0009190824348479509,0.00019902405620086938
1761475324312930000,4.540929931640625,0.0006435020477510989,0.0010937994811683893,-0.0026581999845802784
1761475324322907000,4.550906982421875,-0.0008449386805295944,-0.0030857655219733715,-0.0004605596768669784
1761475324332884000,4.560884033203125,-0.000680800061672926,-0.0016498942859470844,-0.00334850768558681
1761475324342861000,4.570861083984375,0.000505904492456466,-0.0009002144215628505,-0.0006994612631388009
1761475324352838100,4.580838134765625,0.0010786319617182016,-0.0006076870486140251,0.0010112455347552896
1761475324362815200,4.590815185546875,-0.000041759805753827095,0.0006269544828683138,0.00019445408543106169
1761475324372792000,4.6007919921875,0.00038394200964830816,0.0002263132482767105,0.0026472650934010744
1761475324382769200,4.61076904296875,0.000329879840137437,-0.0009396185632795095,-0.0016486800741404295
1761475324392746000,4.62074609375,-0.0005270467372611165,-0.0006041189190000296,0.003173699602484703
1761475324402723000,4.63072314453125,0.0004210385668557137,0.000956493429839611,-0.000003451383236097172
1761475324412700200,4.6407001953125,0.0018934616819024086,0.0008834234904497862,0.0011990880593657494
1761475324422677000,4.650677001953125,-0.0017611943185329437,0.0019942279905080795,0.0025796708650887012
1761475324432654000,4.660654052734375,0.0033275566529482603,0.0005584866739809513,0.001596379210241139
1761475324442631000,4.670630859375,0.0009317770600318909,0.0005576875992119312,-0.0011496060760691762
1761475324452608000,4.68060791015625,-0.0006807653699070215,0.0012836598325520754,0.0024365803692489862
1761475324462585000,4.690585205078125,0.0010833125561475754,-0.0007139772642403841,0.0017239184817299247
1761475324472562200,4.700562255859375,0.0012945891357958317,-0.0014318721368908882,-0.002742812968790531
1761475324482539300,4.710539306640625,0.0008817992638796568,0.0012310226447880268,-0.002653863513842225
1761475324492516000,4.72051611328125,-0.0005955070955678821,-0.0004850707482546568,0.0011613991810008883
1761475324502493200,4.7304931640625,-0.0019217613153159618,-0.0005841401871293783,-0.0024413252249360085
1761475324512470000,4.740469970703125,-0.000983221223577857,0.0010251929052174091,0.00053153105545789
1761475324522447000,4.750447021484375,-0.0008101157727651298,-0.00021823705174028873,-0.0008748843101784587
1761475324532424000,4.760423828125,0.0003116619191132486,-0.001091308076865971,-0.0022459218744188547
1761475324542401000,4.770401123046875,0.002282933797687292,-0.001260418794117868,-0.0011913100024685264
1761475324552378000,4.780378173828125,0.0026283566839993,0.001037854002788663,-0.0008460352546535432
1761475324562355000,4.79035498046875,-0.0002585098845884204,0.0015883292071521282,0.0015366949373856187
1761475324572332000,4.80033203125,-0.000679006683640182,0.0015971050597727299,0.0015079181175678968
1761475324582309000,4.81030908203125,0.000609430659096688,0.00019894540309906006,0.0008730204426683486
1761475324592286200,4.8202861328125,-0.0004977910430170596,-0.0025320304557681084,0.0019427703227847815
1761475324602263000,4.830262939453125,-0.0003518497687764466,-0.0017024558037519455,-0.0007981550879776478
1761475324612240100,4.840240234375,0.000131943728774786,0.0004635211080312729,-0.0000047819194151088595
1761475324622217200,4.85021728515625,0.001482432708144188,0.0005796349141746759,-0.001158995903097093
1761475324632194000,4.860194091796875,0.0019293944351375103,-0.0010561250383034348,-0.0014796602772548795
1761475324642171100,4.870171142578125,0.0015717318747192621,-0.0003088421653956175,0.0017685972852632403
1761475324652148000,4.88014794921875,-0.0005866946885362267,-0.0001927774865180254,-0.001011823769658804
1761475324662125000,4.890125,0.00015685983817093074,-0.0011294111609458923,0.0026375059969723225
1761475324672102000,4.900101806640625,-0.002495968248695135,0.0003043364267796278,0.0007666039746254683
1761475324682080000,4.910080078125,-0.00020618224516510963,0.002014884492382407,-0.0008989369380287826
1761475324692057000,4.92005712890625,-0.0002123424201272428,-0.0021857903338968754,-0.0012724408879876137
1761475324702034000,4.930033935546875,-0.0013415226712822914,-0.0011594080133363605,0.0012237399350851774
1761475324712011000,4.940010986328125,0.00013910350389778614,-0.0006837601540610194,0.00024412377388216555
1761475324721988000,4.949988037109375,0.0009223391534760594,-0.0012454207753762603,-0.0007417784072458744
1761475324731965200,4.959965087890625,0.0010275256354361773,-0.00034283241257071495,-0.0012306097196415067
1761475324741942300,4.9699423828125,0.0006349756731651723,0.00016583153046667576,0.000061023365560686216
1761475324751919000,4.979919189453125,-0.0029242578893899918,0.0013362029567360878,0.00043853596434928477
1761475324761896000,4.98989599609375,0.00035063130781054497,0.00040303124114871025,0.002018589526414871
1761475324771873000,4.999873046875,0.0035845250822603703,-0.0010048426920548081,0.0008847999852150679
1761475324781849900,5.009849853515625,-0.0006717389333061874,-0.00023385765962302685,-0.0012305488344281912
1761475324791827000,5.019826904296875,-0.002169952029362321,0.0008168953936547041,-0.002019584411755204
1761475324801804000,5.029803955078125,0.0009555339347571135,0.000563628738746047,-0.001421438530087471
1761475324811780900,5.03978076171875,-0.001053710002452135,0.00001475098542869091,0.0012273298343643546
1761475324821758000,5.049758056640625,0.0003132905112579465,-0.0012638326734304428,0.0014715417055413127
1761475324831734800,5.05973486328125,0.0015205178642645478,-0.0007025754312053323,0.002945506013929844
1761475324841711900,5.0697119140625,0.0018358360975980759,0.002163518453016877,0.00014572474174201488
1761475324851689000,5.07968896484375,0.0011226314818486571,-0.0024114924017339945,-0.001088353106752038
1761475324861666000,5.089666015625,-0.0009429162601009011,-0.0005946839228272438,0.0017415217589586973
1761475324871643100,5.09964306640625,0.001795787364244461,-0.0004541792441159487,-0.00199694512411952
1761475324881620000,5.109619873046875,0.0007198702660389245,-0.0002310061827301979,0.0015301455277949572
1761475324891597000,5.11959716796875,0.001812886563129723,-0.00033078319393098354,-0.0011591988150030375
1761475324901574000,5.129573974609375,-0.0010311031946912408,0.001234889030456543,-0.0003456031554378569
1761475324911551000,5.139551025390625,0.001543201389722526,-0.0019362997263669968,0.0001340231392532587
1761475324921527800,5.14952783203125,-0.0003471103264018893,-0.001177831320092082,0.0008466850849799812
1761475324931505000,5.1595048828125,0.0012118559097871184,-0.0007907061371952295,-0.0005013647023588419
1761475324941482000,5.16948193359375,-0.00045528291957452893,0.00030172266997396946,-0.000011609365174081177
1761475324951458800,5.179458740234375,0.001446814858354628,0.002061659935861826,-0.002250595251098275
1761475324961436200,5.189436279296875,-0.0023937297519296408,-0.0006851243088021874,-0.002074560383334756
1761475324971413000,5.1994130859375,0.001372097060084343,0.00017903675325214863,0.00006497981667052954
1761475324981390000,5.20939013671875,-0.0018846825696527958,0.002624084707349539,-0.0011859069345518947
1761475324991367000,5.219366943359375,0.0011992737418040633,-0.0009450046345591545,0.00038801052141934633
1761475325001344000,5.229343994140625,0.00057955615920946,-0.0007505938410758972,-0.0017672856338322163
1761475325011321000,5.239321044921875,-0.0005551115027628839,0.0015503645408898592,0.001102758222259581
1761475325021298000,5.2492978515625,-0.0006182283977977931,-0.0024070926010608673,0.0027536519337445498
1761475325031275000,5.25927490234375,0.002813044935464859,-0.001448795199394226,0.0021950453519821167
1761475325041251800,5.269251953125,0.0006785211735405028,0.003058871254324913,-0.0008105983724817634
1761475325051229000,5.27922900390625,-0.002241553273051977,-0.0002723943907767534,0.0005389840807765722
1761475325061205800,5.289205810546875,-0.0015256956685334444,-0.000020459294319152832,0.0007991749444045126
1761475325071182800,5.299182861328125,0.0006279911613091826,0.00009612785652279854,0.0016321369912475348
1761475325081160200,5.30916015625,0.000730256550014019,0.0007179758977144957,0.00023637423873879015
1761475325091137000,5.319136962890625,0.0020668664947152138,0.0025559430941939354,-0.0013939633499830961
1761475325101114000,5.329114013671875,0.0009707093704491854,-0.0014920617686584592,-0.0007651909836567938
1761475325111092000,5.339092041015625,0.0005360291106626391,0.0004241254646331072,0.0007523884996771812
1761475325121069000,5.349069091796875,0.001071058213710785,-0.00018360791727900505,0.003366014687344432
1761475325131046100,5.359046142578125,0.00003856373950839043,0.0013695999514311552,0.0006021491717547178
1761475325141023000,5.36902294921875,-0.001962002832442522,0.00017384067177772522,-0.0016799134900793433
1761475325151000000,5.379,0.0002174830879084766,0.000025280751287937164,0.0005956266541033983
1761475325160977000,5.388976806640625,-0.0010626984294503927,-0.0003195987083017826,0.0008286532247439027
1761475325170954000,5.3989541015625,-0.0003576402668841183,0.0008837790228426456,-0.0015662049409002066
1761475325180930800,5.408930908203125,0.0004535585758276284,0.0004544775001704693,-0.001600293442606926
1761475325190908000,5.418907958984375,0.0010485714301466942,0.0007491461001336575,-0.001004299963824451
1761475325200885000,5.428885009765625,-0.0023743894416838884,-0.0004775058478116989,0.0005251534748822451
1761475325210861800,5.43886181640625,0.00028781432774849236,-0.00008554430678486824,-0.0007675474043935537
1761475325220839000,5.4488388671875,0.0020478973165154457,-0.00251807551831007,0.00021409372857306153
1761475325230816000,5.45881591796875,-0.000003730645403265953,0.0002620567101985216,-0.00022079148038756102
1761475325240793000,5.46879296875,0.0014418332139030099,0.0004580654203891754,-0.0013529012212529778
1761475325250770000,5.47877001953125,-0.0020574619993567467,0.0016218514647334814,-0.002539111068472266
1761475325260747000,5.4887470703125,-0.00164573744405061,-0.0007478294428437948,-0.0020134032238274813
1761475325270724000,5.49872412109375,-0.00188963464461267,-0.0005278734024614096,0.002765323966741562
1761475325280701000,5.508700927734375,-0.0001620420953258872,0.00012380210682749748,-0.0010014510480687022
1761475325290678000,5.518677978515625,0.0005939374095760286,-0.0005260647740215063,-0.002390735549852252
1761475325300654800,5.52865478515625,-0.0015781366964802146,0.00015650340355932713,0.0006428711349144578
1761475325310632000,5.5386318359375,-0.0004912075819447637,-0.002402116311714053,0.000708129839040339
1761475325320608800,5.54860888671875,-0.00029173679649829865,0.00046397745609283447,0.00128257367759943
1761475325330585900,5.5585859375,0.0010884003713726997,-0.00027482747100293636,0.00007769965304760262
1761475325340563000,5.56856298828125,-0.0015814185608178377,0.0014117525424808264,-0.0033196948934346437
1761475325350540000,5.5785400390625,0.002170379040762782,-0.0007411364931613207,-0.0015224284725263715
1761475325360517000,5.58851708984375,-0.0030890977941453457,0.0020421333611011505,-0.000979676260612905
1761475325370494000,5.598493896484375,0.0022048393730074167,0.0022233002819120884,0.0016710263444110751
1761475325380471000,5.608470947265625,-0.0007328935898840427,0.0016360734589397907,0.00039004586869850755
1761475325390447900,5.61844775390625,0.000969351502135396,-0.0019486580276861787,0.00008695636643096805
1761475325400425000,5.628425048828125,0.0005600235890597105,-0.0005558247212320566,0.0006049412186257541
1761475325410402000,5.638402099609375,0.0012296373024582863,0.0012116855941712856,0.0009316569194197655
1761475325420379000,5.64837890625,-0.0003104687202721834,-0.0007939409697428346,-0.000005243193299975246
1761475325430356000,5.65835595703125,-0.0002384016988798976,0.0018913261592388153,0.0018096284475177526
1761475325440332800,5.668332763671875,0.001783736515790224,-0.0019201897084712982,0.0013829900417476892
1761475325450310000,5.678309814453125,-0.001348110381513834,-0.0013159854570403695,-0.0026619841810315847
1761475325460287000,5.688286865234375,-0.000369132321793586,0.0017474484629929066,-0.0024020595010370016
1761475325470264000,5.69826416015625,0.0016196700744330883,0.0009538289159536362,-0.00011604160681599751
1761475325480241200,5.7082412109375,-0.0021130165550857782,0.0007921750657260418,-0.0014809116255491972
1761475325490218000,5.718218017578125,0.0009147695964202285,-0.0016196032520383596,0.0013554845936596394
1761475325500195000,5.728195068359375,-0.0010546380653977394,0.0018054882530122995,-0.005719203036278486
1761475325510172000,5.738171875,-0.002198429312556982,-0.0019245119765400887,0.0012913632672280073
1761475325520149000,5.74814892578125,-0.0008679140591993928,0.0007924449164420366,0.003384341485798359
1761475325530125800,5.758125732421875,-0.0008541741408407688,-0.0011109188199043274,0.00026147437165491283
1761475325540103000,5.76810302734375,-0.0016216972144320607,-0.0017506100703030825,0.0008023623959161341
1761475325550080000,5.778080078125,-0.0014607461635023355,0.0006723804399371147,0.0007607811712659895
1761475325560056800,5.788056884765625,0.0006881585577502847,-0.0006171222776174545,0.0011362868826836348
1761475325570034000,5.798033935546875,0.0008104797452688217,0.00016840198077261448,0.0005172103992663324
1761475325580011000,5.808010986328125,0.0005359078641049564,0.0009713449981063604,0.0014450557064265013
1761475325589988000,5.817988037109375,0.0013235397636890411,0.00151382340118289,0.0006783119752071798
1761475325599966000,5.827966064453125,-0.000675695133395493,-0.0006569193210452795,-0.003129475750029087
1761475325609943000,5.837943115234375,-0.0001299749710597098,-0.002643018960952759,0.00007169224409153685
1761475325619920100,5.847920166015625,0.000030613678973168135,0.0016569208819419146,0.0011212440440431237
1761475325629897000,5.85789697265625,0.000910359900444746,-0.0003913517575711012,0.00014813058078289032
1761475325639874000,5.8678740234375,-0.0017083263956010342,0.0005066662561148405,0.004691749811172485
1761475325649851000,5.877850830078125,0.0015277746133506298,-0.0009462250163778663,-0.000029649672796949744
1761475325659828000,5.887827880859375,0.0006502629839815199,0.0018796552903950214,0.0013354866532608867
1761475325669805000,5.89780517578125,-0.00006941816536709666,-0.0001558191142976284,0.0002216843859059736
1761475325679782000,5.907781982421875,0.00013031892012804747,0.0007784175686538219,-0.00021800350805278867
1761475325689759000,5.917759033203125,0.0003786503220908344,-0.0008948789909482002,0.0028582331724464893
1761475325699735800,5.92773583984375,-0.0018245828105136752,0.0016327269840985537,0.0001567226427141577
1761475325709713000,5.937712890625,-0.0013358400901779532,-0.0007429126417264342,-0.0005984055460430682
1761475325719689700,5.947689697265625,0.001872203778475523,-0.00005075708031654358,-0.0003888147766701877
1761475325729667000,5.9576669921875,0.00017330743139609694,-0.004073178395628929,-0.00007089012797223404
1761475325739644200,5.96764404296875,-0.0008541401475667953,-0.00010373652912676334,-0.0019012807169929147
1761475325749621000,5.97762109375,-0.00041478563798591495,-0.0002613414544612169,-0.0011036762734875083
1761475325759598000,5.98759814453125,-0.0017160060815513134,0.000060102203860878944,0.0026702892500907183
1761475325769574400,5.997574462890625,-0.00022597756469622254,0.0010369021911174059,-0.003483695676550269
1761475325779551500,6.007551513671875,0.001090689329430461,0.0015170702245086432,0.00039040480623953044
1761475325789528600,6.017528564453125,-0.00028334319358691573,0.0009685403201729059,-0.0018093290273100138
1761475325799505400,6.02750537109375,0.00025221850955858827,-0.002303153043612838,0.0038325777277350426
1761475325809482500,6.037482421875,-0.0025596674531698227,0.0018612020649015903,0.00010926160030066967
1761475325819459300,6.047459228515625,0.00110830448102206,0.0009919463191181421,0.0008381687803193927
1761475325829436400,6.0574365234375,-0.0036963082384318113,0.0006636299658566713,-0.0010751077206805348
1761475325839413500,6.06741357421875,0.00009070662781596184,0.0009704260155558586,0.004201413132250309
1761475325849390600,6.077390625,-0.0003331450279802084,-0.001998820109292865,0.00032360892510041595
1761475325859367700,6.08736767578125,-0.0012359566753730178,-0.0018608683021739125,0.0012256215559318662
1761475325869344500,6.097344482421875,0.00031076109735295177,-0.001955959480255842,0.000014651697711087763
1761475325879321600,6.107321533203125,0.00101703149266541,-0.0007189213065430522,-0.0012910962104797363
1761475325889298400,6.11729833984375,0.0009513929253444076,-0.0028175374027341604,-0.0009344928548671305
1761475325899275500,6.127275634765625,-0.00002811767626553774,-0.00029792054556310177,-0.0005544597515836358
1761475325909252400,6.13725244140625,0.0020043414551764727,0.0017169900238513947,-0.0010071229189634323
1761475325919229400,6.1472294921875,0.001104459399357438,0.00045971176587045193,-0.0018460187129676342
1761475325929206500,6.15720654296875,-0.0009984902571886778,0.0002536056563258171,-0.001732629956677556
1761475325939183400,6.167183349609375,0.003237000899389386,0.000050140079110860825,0.0007718066917732358
1761475325949160400,6.177160400390625,-0.00032889191061258316,-0.0018142320914193988,-0.0012162061175331473
1761475325959137500,6.187137451171875,0.00016272766515612602,-0.0009561616461724043,-0.0009011540678329766
1761475325969114600,6.197114501953125,0.0005392493330873549,-0.000944294617511332,-0.0016511738067492843
1761475325979091500,6.207091552734375,0.0012023764429613948,0.0001321551389992237,0.001098806387744844
1761475325989068500,6.217068603515625,0.0003822203434538096,-0.000001176958903670311,-0.0028394763357937336
1761475325999045600,6.227045654296875,-0.0006209924467839301,-0.0033130841329693794,0.0035132281482219696
1761475326009022500,6.2370224609375,0.0027111649978905916,-0.00046191434375941753,0.001423736335709691
1761475326018999600,6.24699951171875,-0.0013759881258010864,-0.001679777866229415,-0.0015374324284493923
1761475326028976400,6.256976318359375,0.0005765094538219273,-0.00018483703024685383,0.0014684410998597741
1761475326038953500,6.266953369140625,-0.0013758540153503418,-0.0015792682534083724,-0.001107900869101286
1761475326048930300,6.276930419921875,0.001574425958096981,-0.0004993679467588663,-0.0022295573726296425
1761475326058907400,6.286907470703125,0.0006055679405108094,0.0007057124748826027,-0.00025508980615995824
1761475326068884700,6.296884765625,0.0010296506807208061,-0.0012720917584374547,0.001857203315012157
1761475326078861600,6.306861572265625,0.0006064744666218758,-0.0008992492221295834,0.0007679703994654119
1761475326088838700,6.316838623046875,0.0016390664968639612,0.0015049914363771677,0.00038426226819865406
1761475326098815500,6.3268154296875,0.0004345187044236809,0.0007395988795906305,0.0015177035238593817
1761475326108793600,6.336793701171875,-0.0020989077165722847,0.0005242354236543179,-0.00005024910933570936
1761475326118769400,6.346769287109375,-0.0007742511807009578,0.0011601981241255999,0.0015183527721092105
1761475326128747500,6.35674755859375,0.0030651013366878033,-0.0012340446701273322,0.0009326530271209776
1761475326138724600,6.366724609375,-0.0003274998161941767,0.000029359012842178345,0.0011315911542624235
1761475326148701400,6.376701416015625,-0.0016906741075217724,0.0017807723488658667,0.0006237037014216185
1761475326158678500,6.386678466796875,-0.0006539055611938238,-0.0009670770959928632,-0.0011406404664739966
1761475326168655400,6.3966552734375,0.0027013656217604876,-0.0022116987966001034,0.002722826087847352
1761475326178632400,6.406632568359375,-0.0005966929020360112,0.0011039369273930788,-0.0011195829138159752
1761475326188609500,6.416609619140625,-0.0005063430871814489,-0.0016817516880109906,0.0011728624813258648
1761475326198586400,6.42658642578125,-0.0014198072021827102,0.00008046207949519157,0.0006048101931810379
1761475326208563500,6.4365634765625,-0.0010310043580830097,-0.0005191420204937458,0.002745609497651458
1761475326218540500,6.44654052734375,-0.00022273499052971601,-0.00018491526134312153,0.0006552943377755582
1761475326228517600,6.456517578125,0.0010387448128312826,-0.0005040406249463558,-0.0004964334075339139
1761475326238494500,6.466494384765625,0.0012075891718268394,-0.00027420977130532265,0.0010940063511952758
1761475326248471600,6.476471435546875,-0.0012355247745290399,0.000043644336983561516,0.0007917761104181409
1761475326258448600,6.48644873046875,0.0012470739893615246,-0.00085304188542068,-0.001254596863873303
1761475326268425500,6.496425537109375,0.00021146785002201796,-0.001891238847747445,-0.0012867450714111328
1761475326278402600,6.506402587890625,-0.0026615504175424576,0.0008664645720273256,-0.0007272149669006467
1761475326288379400,6.51637939453125,-0.0023821184877306223,-0.0010295266984030604,-0.001257068826816976
1761475326298356500,6.5263564453125,0.0015681483782827854,-0.0010473699076101184,0.0006673313328064978
1761475326308333300,6.536333251953125,-0.001867117127403617,-0.0005924529395997524,-0.0005432536127045751
1761475326318310400,6.546310302734375,0.0032898278441280127,0.0005529725458472967,0.000288451585220173
1761475326328287500,6.55628759765625,0.0009969385573640466,-0.0015620144549757242,0.0038062413223087788
1761475326338264600,6.5662646484375,0.00019612605683505535,-0.0009612053399905562,-0.003420246299356222
1761475326348241700,6.57624169921875,0.0012246390106156468,-0.0008931669872254133,0.0002180248557124287
1761475326358218500,6.586218505859375,0.0017285090871155262,0.00028022192418575287,-0.0020243567414581776
1761475326368195600,6.596195556640625,-0.0006209429120644927,-0.00015272549353539944,0.0003564364742487669
1761475326378172400,6.60617236328125,0.000597985927015543,0.0017895179335027933,0.0021367596928030252
1761475326388149500,6.6161494140625,-0.0022319538984447718,-0.0006704948609694839,-0.002114318311214447
1761475326398126600,6.626126708984375,0.000659173761960119,-0.0007477265316992998,0.0008630957454442978
1761475326408103400,6.636103515625,-0.001340122427791357,-0.0008081803098320961,0.0003859605349134654
1761475326418080500,6.64608056640625,0.001075897365808487,-0.0008009898010641336,0.001930327620357275
1761475326428057300,6.656057373046875,-0.002354032825678587,-0.002087075263261795,-0.0009647066472098231
1761475326438034400,6.666034423828125,0.0012753232149407268,-0.0003986312076449394,0.002204188611358404
1761475326448011500,6.676011474609375,-0.001827458618208766,0.00047307275235652924,0.00004953365714754909
1761475326457988600,6.685988525390625,-0.0008671227260492742,0.001902125310152769,-0.003473828313872218
1761475326467965700,6.695965576171875,0.0007218426908366382,-0.0018261822406202555,0.0005026382277719676
1761475326477942500,6.705942626953125,-0.001942117465659976,-0.00023307930678129196,0.0014043846167623997
1761475326487919600,6.715919677734375,-0.0001110886805690825,0.0007152673788368702,0.0019673346541821957
1761475326497896400,6.725896484375,-0.0003667521523311734,-0.000776369241066277,0.0015763825504109263
1761475326507873500,6.73587353515625,-0.0017746217781677842,0.0010315997060388327,0.00013818228035233915
1761475326517850400,6.745850341796875,0.00004378455923870206,0.00009869434870779514,0.001974964514374733
1761475326527827500,6.755827392578125,-0.001782029401510954,0.0014548422768712044,-0.0011054824572056532
1761475326537804500,6.765804443359375,-0.0010475295130163431,0.0027693784795701504,0.00006923787441337481
1761475326547781400,6.775781494140625,-0.0001716306433081627,0.0010987874120473862,-0.0013683672295883298
1761475326557758500,6.785758544921875,-0.0013751131482422352,0.0015200995840132236,-0.0002988417400047183
1761475326567735600,6.795735595703125,-0.0010665596928447485,-0.001703851274214685,0.0019769237842410803
1761475326577712600,6.805712646484375,-0.001755253178998828,0.00027700792998075485,0.0005414799670688808
1761475326587689500,6.815689453125,0.0010617990046739578,0.0008309842087328434,0.0024191811680793762
1761475326597666600,6.82566650390625,0.00011051789624616504,0.001722077839076519,0.001480416627600789
1761475326607643600,6.8356435546875,-0.0003723638947121799,-0.0009220791980624199,0.001236651442013681
1761475326617620500,6.845620361328125,0.0008569512865506113,0.00042015407234430313,-0.0006675087497569621
1761475326627597600,6.85559765625,-0.0014017863431945443,0.003007140476256609,-0.0004504881799221039
1761475326637574400,6.865574462890625,0.000601443462073803,-0.0008139630081132054,-0.0007109452853910625
1761475326647551500,6.875551513671875,-0.0016168283764272928,0.00014684000052511692,-0.0036654947325587273
1761475326657528300,6.8855283203125,0.00016242952551692724,-0.0016007263911888003,-0.0001245558523805812
1761475326667505400,6.89550537109375,-0.0010599701199680567,-0.0003220567014068365,-0.0007660577539354563
1761475326677482500,6.905482421875,0.00007506913971155882,-0.00004562060348689556,0.0006856313557364047
1761475326687459600,6.91545947265625,0.00015329057350754738,-0.0013017760356888175,-0.0004177914233878255
1761475326697437400,6.9254375,-0.0004666932509280741,0.0007099758367985487,0.001240825280547142
1761475326707414300,6.935414306640625,0.0014548144536092877,0.0012582286726683378,-0.001460889121517539
1761475326717391600,6.9453916015625,-0.0006261796806938946,-0.00036257109604775906,-0.001130923512391746
1761475326727368700,6.95536865234375,-0.0012911843368783593,-0.0012777524534612894,0.0014170826179906726
1761475326737345500,6.965345458984375,-0.00048690964467823505,0.0009132302366197109,-0.0002862751134671271
1761475326747322600,6.975322509765625,0.0008512859931215644,0.0005893446505069733,-0.0024221951607614756
1761475326757299500,6.985299560546875,-0.003163162851706147,0.0008921460248529911,0.0002388354332651943
1761475326767276500,6.995276611328125,-0.0006895941332913935,-0.0007118616485968232,-0.0003977747110184282
1761475326777253600,7.005253662109375,0.00047127780271694064,0.0009731203317642212,0.00021768180886283517
1761475326787230700,7.015230712890625,-0.0018018418923020363,-0.000057171331718564034,0.002335949335247278
1761475326797207600,7.02520751953125,-0.0006183330551721156,0.0031391545198857784,-0.0018625239608809352
1761475326807184600,7.0351845703125,-0.00180720048956573,-0.0011774025624617934,0.00040348831680603325
1761475326817161500,7.045161376953125,0.0007462383946403861,-0.0016421241452917457,-0.0011062576668336987
1761475326827138600,7.055138671875,-0.00046167534310370684,0.0013137238565832376,-0.001507662469521165
1761475326837115600,7.06511572265625,-0.002282478613778949,0.001806408865377307,0.0006436390103772283
1761475326847092700,7.0750927734375,-0.0004102598177269101,-0.0009375627851113677,0.0019036042504012585
1761475326857069800,7.08506982421875,-0.0016824519261717796,0.0005769769195467234,-0.003536434844136238
1761475326867046700,7.095046630859375,0.00044882463407702744,-0.0009624161757528782,-0.0000594413468206767
1761475326877023700,7.105023681640625,-0.0018010138301178813,0.0010461399797350168,-0.0017148623010143638
1761475326887000600,7.11500048828125,-0.0027274293825030327,0.00024971296079456806,0.00020161869178991765
1761475326896977700,7.124977783203125,-0.0015575026627629995,0.0001349307131022215,-0.0023432981688529253
1761475326906954500,7.13495458984375,0.0010876070009544492,-0.0013272418873384595,0.0022287326864898205
1761475326916931600,7.144931640625,0.0018005352467298508,-0.0008180454606190324,0.00023881869856268167
1761475326926908700,7.15490869140625,-0.0008938490063883364,-0.0009398492984473705,-0.0018468686612322927
1761475326936885500,7.164885498046875,-0.00033884617732837796,0.0020101340487599373,-0.0014846788253635168
1761475326946862600,7.174862548828125,-0.0012927743373438716,-0.0004414680879563093,-0.0009449664503335953
1761475326956839700,7.184839599609375,-0.0005137998377904296,-0.0015906222397461534,-0.003186282701790333
1761475326966816800,7.194816650390625,0.0023391777649521828,-0.0016699255211278796,-0.0015993905253708363
1761475326976793600,7.204793701171875,0.0007311610970646143,-0.0006294285412877798,0.0013569846050813794
1761475326986770700,7.214770751953125,-0.001442372682504356,-0.0005942815914750099,-0.00004484237069846131
1761475326996747800,7.224747802734375,-0.00031718716491013765,0.0006837693508714437,-0.000772417988628149
1761475327006724600,7.234724609375,-0.0006860174471512437,0.0020916906651109457,-0.0033989667426794767
1761475327016701700,7.24470166015625,-0.0023488951846957207,0.002329777227714658,-0.0035012320149689913
1761475327026678500,7.254678466796875,-0.0014762431383132935,0.001156890532001853,-0.0018179173348471522
1761475327036655600,7.264655517578125,0.0016348615754395723,-0.001499346224591136,0.0010082292137667537
1761475327046632400,7.274632568359375,0.001207756227813661,-0.0016286523314192891,0.001978087704628706
1761475327056609500,7.284609619140625,-0.0011912191985175014,-0.0013026813976466656,-0.0014797605108469725
1761475327066586600,7.294586669921875,0.0006208982667885721,-0.0006586313247680664,0.00016591376333963126
1761475327076563700,7.304563720703125,-0.00016553321620449424,0.002717990893870592,-0.002426939783617854
1761475327086540800,7.314540771484375,0.0004457288305275142,0.001994471065700054,-0.0007876112358644605
1761475327096517600,7.324517578125,0.00140047213062644,-0.001070827362127602,-0.0027985640335828066
1761475327106494700,7.33449462890625,-0.0006733855698257685,-0.000883950968272984,-0.004783411044627428
1761475327116471600,7.344471435546875,-0.00033702829387038946,-0.0007992624305188656,0.0014830072177574039
1761475327126448600,7.35444873046875,0.0007445341325365007,-0.0016610376769676805,0.0032992728520184755
1761475327136425700,7.36442578125,-0.0007726687472313643,-0.001971562160179019,0.0013186800060793757
1761475327146402600,7.374402587890625,0.00023644696921110153,0.0002343514934182167,-0.0004908840055577457
1761475327156379600,7.384379638671875,0.001172281801700592,-0.00042051984928548336,-0.001307142898440361
1761475327166356500,7.3943564453125,-0.00035861163632944226,0.00028155953623354435,0.0015925186453387141
1761475327176333600,7.40433349609375,0.0001684279995970428,-0.0005240465980023146,0.002509178826585412
1761475327186310700,7.414310546875,-0.003665335476398468,0.000839464832097292,-0.004737303592264652
1761475327196287700,7.424287841796875,0.0008127701003104448,-0.0007424528012052178,0.0030902596190571785
1761475327206264800,7.434264892578125,0.000390500616049394,0.0017702945042401552,-0.0017138825496658683
1761475327216241700,7.44424169921875,0.0009130128310061991,0.0003071536775678396,-0.0010624733986333013
1761475327226218800,7.45421875,0.002280429471284151,-0.0016902623465284705,-0.002080571139231324
1761475327236195600,7.464195556640625,-0.0007313394453376532,-0.0017352697905153036,-0.003045966848731041
1761475327246172700,7.474172607421875,0.0003525815554894507,0.0001296417322009802,0.0007845110376365483
1761475327256149500,7.4841494140625,-0.00039390253368765116,0.0009837173856794834,0.001441779313609004
1761475327266126600,7.494126708984375,0.0005146408220753074,-0.003172262804582715,-0.0005611627129837871
1761475327276103700,7.504103759765625,0.00008880137465894222,-0.002951220376417041,-0.0013289520284160972
1761475327286080500,7.51408056640625,-0.0024065556935966015,-0.0014502989361062646,0.0019046318484470248
1761475327296057600,7.5240576171875,-0.0009340938995592296,-0.001281720818951726,0.002685204381123185
1761475327306034700,7.53403466796875,0.0012463303282856941,-0.002260926878079772,-0.0046449387446045876
1761475327316011800,7.54401171875,-0.00009084283374249935,-0.0007514472818002105,0.001521344413049519
1761475327325988600,7.553988525390625,-0.00009511143434792757,0.002080654026940465,-0.0014190161600708961
1761475327335966500,7.563966552734375,-0.00004291348159313202,-0.0019508391851559281,0.001842024619691074
1761475327345943800,7.57394384765625,-0.0006567547097802162,0.00004629627801477909,-0.0011152647202834487
1761475327355920600,7.583920654296875,0.0010988011490553617,-0.00011775456368923187,-0.0010939594358205795
1761475327365897700,7.593897705078125,0.0019518097396939993,0.00006833369843661785,-0.00018165895016863942
1761475327375874600,7.60387451171875,-0.0007150797173380852,0.000014005228877067566,-0.003280246863141656
1761475327385851600,7.6138515625,-0.0016549816355109215,0.0015487712807953358,0.0012003231095150113
1761475327395828700,7.623828857421875,-0.0006184793310239911,-0.0003817540127784014,-0.001433809520676732
1761475327405805600,7.6338056640625,-0.0001262399018742144,0.001460083993151784,0.002118081320077181
1761475327415782700,7.64378271484375,0.0008237096481025219,-0.002975144423544407,-0.0006161861820146441
1761475327425759500,7.653759521484375,0.0012865200405940413,-0.0002933025825768709,-0.00005735151353292167
1761475327435736600,7.663736572265625,0.002097985241562128,-0.0023327514063566923,-0.0018850789638236165
1761475327445713400,7.67371337890625,-0.00018952315440401435,-0.000928651075810194,-0.0003524750645738095
1761475327455690500,7.6836904296875,0.0013356691924855113,0.0006013349629938602,0.0013202563859522343
1761475327465667800,7.693667724609375,-0.0014277348527684808,-0.0006987253436818719,0.0013696420937776566
1761475327475644700,7.703644775390625,-0.0023523843847215176,-0.0003495849668979645,-0.003555075265467167
1761475327485621800,7.713621826171875,0.00046227939310483634,-0.00014396803453564644,-0.0003398659755475819
1761475327495598600,7.7235986328125,-0.001613921020179987,-0.0005591548979282379,-0.0009952699765563011
1761475327505575700,7.73357568359375,0.0009484546026214957,0.003122990485280752,-0.0015633334405720234
1761475327515552500,7.743552490234375,0.00020729686366394162,0.00009098160080611706,-0.0026776001323014498
1761475327525529600,7.753529541015625,-0.0012792905326932669,-0.0005550323985517025,0.001519972225651145
1761475327535506700,7.763506591796875,0.0017204941250383854,0.001836220035329461,0.0010549842845648527
1761475327545483500,7.7734833984375,0.0032333885319530964,-0.0005174358375370502,0.0012431794311851263
1761475327555460600,7.783460693359375,-0.0016726867761462927,0.0014929843600839376,-0.001149937161244452
1761475327565437400,7.7934375,-0.0009676369372755289,0.0009403768926858902,0.0031397445127367973
1761475327575414800,7.803414794921875,0.001906180172227323,0.00028870138339698315,0.0008310503326356411
1761475327585391600,7.8133916015625,-0.00009106547804549336,0.0019581797532737255,-0.0014327738899737597
1761475327595368700,7.82336865234375,-0.001429570373147726,-0.0009478615829721093,-0.001493760384619236
1761475327605345800,7.833345703125,-0.002656071912497282,0.0013186216820031404,-0.0013399083400145173
1761475327615322600,7.843322509765625,0.0013101737713441253,-0.00037008896470069885,0.00007103440293576568
1761475327625299700,7.8532998046875,0.001805287436582148,-0.0019664219580590725,-0.0002423892728984356
1761475327635276500,7.863276611328125,-0.0004863626090809703,0.002138041891157627,-0.0004583716217894107
1761475327645253600,7.873253662109375,-0.0018330472521483898,-0.0012956577120348811,-0.0009181250934489071
1761475327655230500,7.88323046875,0.00008789077401161194,-0.0015854096272960305,-0.0024987112265080214
1761475327665207600,7.89320751953125,0.0023000556975603104,-0.0009085814235731959,0.002148689702153206
1761475327675184600,7.9031845703125,-0.002021722262725234,0.0011993104126304388,0.0009968724334612489
1761475327685161500,7.913161376953125,-0.0008078033570200205,-0.0008397523779422045,0.0024723662063479424
1761475327695138800,7.923138916015625,-0.001733784331008792,-0.0022264604922384024,0.0006441060686483979
1761475327705115600,7.93311572265625,-0.0009445441537536681,0.0004245853051543236,0.0013234602520242333
1761475327715092700,7.9430927734375,0.00192660978063941,-0.001948291203007102,-0.002124534221366048
1761475327725069600,7.953069580078125,0.00009041535668075085,0.001038657734170556,-0.00039950900827534497
1761475327735046700,7.963046630859375,-0.0026872616726905107,-0.0008492572233080864,-0.0016456020530313253
1761475327745023700,7.973023681640625,-0.001503132050856948,0.0015804467257112265,0.00045775342732667923
1761475327755000600,7.98300048828125,-0.0003803434665314853,0.0008131898939609528,0.0005714703584089875
1761475327764977700,7.992977783203125,-0.0005175978876650333,0.0011173037346452475,0.0004387267108540982
1761475327774954800,8.002954833984376,0.0008755017188377678,-0.002630296628922224,0.0021327633876353502
1761475327784931800,8.012931884765624,0.00011952494969591498,-0.00048519205302000046,-0.00021278252825140953
1761475327794908700,8.02290869140625,0.0007397751905955374,-0.0030178583692759275,0.00046632354496978223
1761475327804885800,8.0328857421875,0.0016140583902597427,-0.0017183846794068813,0.001895529800094664
1761475327814862800,8.04286279296875,0.0005016559734940529,0.0005841844249516726,0.0014537113020196557
1761475327824840000,8.05283984375,-0.00048561126459389925,-0.0002001267857849598,0.00004908329719910398
1761475327834817000,8.062817138671875,-0.0001327424542978406,-0.0004952049348503351,-0.001420182641595602
1761475327844793900,8.0727939453125,0.0011789099080488086,0.000296218553557992,-0.0002728773979470134
1761475327854771000,8.08277099609375,-0.0017100871773436666,-0.0010113933822140098,-0.00016022568161133677
1761475327864747800,8.092747802734374,-0.00046848220517858863,0.000010164221748709679,-0.0000217602209886536
1761475327874724900,8.102724853515625,0.0008660278399474919,-0.00018850760534405708,-0.0024478998966515064
1761475327884702000,8.112701904296875,-0.0005989253404550254,-0.0021199071779847145,-0.00046155074960552156
1761475327894678800,8.1226787109375,-0.0029435723554342985,-0.0009278762154281139,-0.0013704876182600856
1761475327904656000,8.13265576171875,0.00009165465598925948,-0.0006595040904358029,0.00025052938144654036
1761475327914632700,8.1426328125,-0.002518243156373501,0.001499520381912589,-0.0035607204772531986
1761475327924609800,8.15260986328125,-0.0007881780038587749,-0.002437193412333727,0.0002819737419486046
1761475327934587000,8.1625869140625,0.0020337074529379606,-0.0010701928986236453,-0.0023002272937446833
1761475327944564000,8.17256396484375,-0.0019085503881797194,0.0018093700055032969,-0.00022517442994285375
1761475327954541000,8.182541015625,0.0001367572695016861,-0.0006276887143030763,-0.0009713920881040394
1761475327964518000,8.192517822265625,0.0006548167439177632,-0.00043726759031414986,0.00006217457121238112
1761475327974495000,8.202494873046875,-0.000696737552061677,-0.0008367417613044381,0.0002227631921414286
1761475327984471800,8.212471923828126,0.0017665656050667167,-0.0006906152702867985,0.0027056396938860416
1761475327994449000,8.222448974609375,-0.0012579862959682941,0.00003056880086660385,0.004806074779480696
1761475328004425700,8.23242578125,-0.0002972036018036306,-0.0008194418624043465,0.0026101265102624893
1761475328014402800,8.24240283203125,0.00042877416126430035,0.0008756602182984352,-0.0006722195539623499
1761475328024380000,8.2523798828125,0.003047037171199918,-0.0005613488610833883,-0.00022777492995373905
1761475328034356700,8.262356689453124,0.0016235774382948875,-0.0014915911015123129,0.00040259529487229884
1761475328044333800,8.272333740234375,0.00020277511794120073,-0.0004532164894044399,-0.0035843197256326675
1761475328054311000,8.282310791015625,0.00019691616762429476,-0.001898780232295394,0.0016186980064958334
1761475328064288000,8.2922880859375,0.0006811298080720007,-0.0012018465204164386,0.0012525387573987246
1761475328074264800,8.302264892578124,0.0013429252430796623,0.0003640921786427498,0.0000831446232041344
1761475328084242000,8.312241943359375,0.0008810489089228213,-0.00009629176929593086,-0.002274668077006936
1761475328094219000,8.322218994140625,-0.0010694502852857113,-0.00025741313584148884,-0.00007995690975803882
1761475328104195800,8.33219580078125,-0.00009293318726122379,0.001589685445651412,0.0022475847508758307
1761475328114173000,8.3421728515625,-0.0003744293935596943,0.00007914053276181221,0.0005306449020281434
1761475328124149800,8.352149658203125,0.0004159995005466044,0.0010553612373769283,0.0006970440153963864
1761475328134126800,8.362126953125,0.002518831519410014,-0.0007398755988106132,0.0023098543751984835
1761475328144103700,8.372103759765626,-0.0007005467778071761,-0.0007767319912090898,-0.001586802420206368
1761475328154080800,8.382080810546874,0.0005375567707233131,-0.0022902064956724644,0.001242007245309651
1761475328164057900,8.392057861328125,-0.001836074865423143,-0.000034403521567583084,0.00031620869413018227
1761475328174035000,8.402034912109375,0.0000060335732996463776,0.000471330713480711,-0.0014561249408870935
1761475328184012000,8.412011962890626,-0.003150629810988903,0.000986576545983553,-0.002189063932746649
1761475328193988900,8.42198876953125,-0.0008288861135952175,-0.0013599346857517958,-0.00031473117996938527
1761475328203966000,8.431966064453125,0.00018646969692781568,-0.0006687577115371823,-0.0017780002672225237
1761475328213942800,8.44194287109375,-0.0022298162803053856,-0.00035743415355682373,-0.004098678473383188
1761475328223919900,8.451919921875,0.0013249646872282028,0.0012421009596437216,0.00024825945729389787
1761475328233897000,8.46189697265625,-0.000840451626572758,0.0022825980558991432,-0.002372823655605316
1761475328243873800,8.471873779296875,0.001338777132332325,0.0006158007308840752,0.0028166589327156544
1761475328253851000,8.481850830078125,-0.0014969568001106381,-0.0007850219262763858,-0.002345878630876541
1761475328263827700,8.49182763671875,0.0014750895788893104,0.0002485548611730337,0.0014252273831516504
1761475328273804800,8.5018046875,0.0009427237091585994,-0.0008465369464829564,-0.00235939072445035
1761475328283782000,8.511781982421875,0.0010829506209120154,-0.0005292367422953248,0.00030244176741689444
1761475328293759000,8.521759033203125,0.00044592245831154287,-0.001086103729903698,0.003886257763952017
1761475328303736000,8.531736083984375,-0.00042393244802951813,0.00009603402577340603,0.002248951932415366
1761475328313713000,8.541712890625,0.0009433344239369035,-0.0012038549175485969,0.0005575783434323967
1761475328323690000,8.55168994140625,0.0018677698681131005,0.0009251118171960115,0.003341966075822711
1761475328333666800,8.561666748046875,0.0006424494786188006,-0.000284762354567647,-0.0013481269124895334
1761475328343644000,8.571643798828125,0.0007175393402576447,0.0012681514490395784,-0.0031597136985510588
1761475328353620700,8.581620849609376,-0.0027373796328902245,-0.0017353615257889032,-0.0011660712771117687
1761475328363597800,8.591597900390624,0.0009186595561914146,0.0019124168902635574,-0.0009229473071172833
1761475328373575000,8.601574951171875,0.0007341025047935545,0.0012002878356724977,0.000764964148402214
1761475328383551700,8.6115517578125,0.0011370969004929066,-0.000970445922575891,-0.0008064869325608015
1761475328393528800,8.62152880859375,0.00182019779458642,-0.0010082627413794398,0.003916895482689142
1761475328403506000,8.631505859375,0.0003991121193394065,0.00005062553100287914,-0.00030207843519747257
1761475328413483000,8.64148291015625,0.0017019305378198624,0.00020828470587730408,-0.0007681316346861422
1761475328423459800,8.6514599609375,-0.000903258565813303,0.0023252551909536123,-0.0023841261863708496
1761475328433438000,8.66143798828125,-0.0010886146919801831,0.00237132771871984,0.0032242247834801674
1761475328443415000,8.6714150390625,0.0012442866573110223,-0.00036825542338192463,-0.0015151598490774632
1761475328453392000,8.681391845703125,-0.0005853050388395786,0.0004980708472430706,0.0027562840841710567
1761475328463368000,8.691367919921875,-0.0022587240673601627,-0.0016376546118408442,-0.0022914770524948835
1761475328473346000,8.701345947265626,0.00024864228907972574,-0.0005942281568422914,-0.0009263408137485385
1761475328483323000,8.711322998046874,0.0007215084624476731,-0.00008464069105684757,-0.0022582164965569973
1761475328493300000,8.721300048828125,-0.0021882611326873302,0.00020990497432649136,-0.00035112688783556223
1761475328503276800,8.73127685546875,0.00023049279116094112,0.0017773716244846582,0.000040335027733817697
1761475328513254000,8.74125390625,0.00006431154906749725,-0.0009909842628985643,-0.0005695289000868797
1761475328523230700,8.751230712890624,0.0006612353026866913,0.0002890033647418022,0.0005948742618784308
1761475328533207800,8.761207763671875,-0.000817884283605963,-0.002624761313199997,-0.00027837627567350864
1761475328543185000,8.771184814453125,-0.001697252388112247,-0.0017514234641566873,-0.0009237064514309168
1761475328553162000,8.781161865234376,0.0002569752396084368,-0.0005649852100759745,-0.0009239728096872568
1761475328563139000,8.79113916015625,0.0033550229854881763,-0.0017937906086444855,0.0007338508730754256
1761475328573116000,8.801115966796875,0.00005669816164299846,0.0011189086362719536,-0.00013034490984864533
1761475328583093000,8.811093017578125,0.002694496186450124,-0.0012065727496519685,-0.0008636171114630997
1761475328593069800,8.82106982421875,-0.0008475080248899758,0.0006049093790352345,0.0035811986308544874
1761475328603047000,8.831046875,0.001976325875148177,0.0009822903666645288,0.0038700492586940527
1761475328613024000,8.84102392578125,-0.00031825376208871603,-0.0009120161412283778,0.0037352931685745716
1761475328623000800,8.851000732421875,0.00025486917002126575,0.0002843474503606558,-0.00007920509960968047
1761475328632978000,8.86097802734375,-0.00027243676595389843,0.0010910187847912312,0.0004275944666005671
1761475328642954800,8.870954833984374,-0.00013008766109123826,0.0023318082094192505,0.002183256670832634
1761475328652931800,8.880931884765625,0.00020360643975436687,-0.000042665982618927956,0.001399222295731306
1761475328662908700,8.89090869140625,0.0005826771375723183,-0.0011221558088436723,0.0034873117692768574
1761475328672886000,8.900885986328126,0.0016306310426443815,-0.00006754393689334393,-0.0012744201812893152
1761475328682862800,8.91086279296875,0.0033279680646955967,-0.0007015647133812308,0.00015804788563400507
1761475328692840000,8.92083984375,-0.00016237091040238738,0.0005085757002234459,0.0006691084709018469
1761475328702817000,8.930817138671875,-0.0024426416493952274,-0.0002465825527906418,0.0004012524732388556
1761475328712793900,8.9407939453125,-0.0022889773827046156,0.0011523759458214045,-0.0011372556909918785
1761475328722771000,8.95077099609375,0.0028227760922163725,-0.001814952353015542,0.0013663070276379585
1761475328732747800,8.960747802734375,0.0008951801573857665,-0.0012817875249311328,0.0018086580093950033
1761475328742724900,8.970724853515625,-0.0005137913976795971,-0.0016525802202522755,-0.0005207104259170592
1761475328752701700,8.98070166015625,-0.000468251237180084,0.000630547758191824,0.0011424337280914187
1761475328762678800,8.9906787109375,-0.0007825120119377971,0.00023773126304149628,0.0024015121161937714
1761475328772655400,9.0006552734375,-0.0005026137223467231,0.00007474585436284542,-0.002496839966624975
1761475328782632400,9.010632568359375,-0.0027785873971879482,-0.0012334133498370647,0.0013913750881329179
1761475328792609500,9.020609619140625,-0.0027405042201280594,0.000559426611289382,-0.002579131629317999
1761475328802586400,9.03058642578125,0.000867471972014755,0.0017507076263427734,0.0009679266950115561
1761475328812563500,9.0405634765625,-0.0014276403235271573,0.0013648157473653555,-0.0011279811151325703
1761475328822540300,9.050540283203125,-0.0004194446955807507,-0.0007774927653372288,0.0027032482903450727
1761475328832517400,9.060517333984375,0.00012064434122294188,-0.00018227612599730492,0.0011548864422366023
1761475328842494200,9.070494140625,0.0003219908685423434,0.0012883946765214205,0.0007535993354395032
1761475328852471300,9.08047119140625,-0.0015784408897161484,0.0011698841117322445,0.00016397549188695848
1761475328862448400,9.090448486328125,0.000018404156435281038,-0.00022781896404922009,-0.00011596496915444732
1761475328872425200,9.10042529296875,-0.0013384765479713678,0.0005503566935658455,0.00020148383919149637
1761475328882402300,9.11040234375,-0.001705856528133154,0.00011209188960492611,-0.000019122453522868454
1761475328892379400,9.12037939453125,0.0023075270000845194,0.0010836131405085325,0.0012626568786799908
1761475328902356500,9.1303564453125,0.00241067074239254,-0.0007213050266727805,-0.00021146179642528296
1761475328912333300,9.140333251953125,-0.0007390497485175729,-0.0005018605152145028,-0.0011997608235105872
1761475328922310400,9.150310302734376,-0.001671164995059371,0.0007119346410036087,0.0001408456009812653
1761475328932287500,9.16028759765625,-0.0002852560137398541,0.00011378852650523186,-0.0014940690016373992
1761475328942264300,9.170264404296875,-0.0009857926052063704,0.00033462559804320335,-0.002464967081323266
1761475328952241400,9.180241455078125,0.0008877412765286863,-0.000555935432203114,0.00048767952830530703
1761475328962218200,9.19021826171875,0.00120363081805408,-0.0006630847929045558,-0.0015608653193339705
1761475328972195300,9.2001953125,0.0008094829390756786,0.0022437553852796555,-0.002705492079257965
1761475328982172200,9.210172119140625,0.0023826095275580883,-0.001594967907294631,0.0008657364523969591
1761475328992149200,9.220149169921875,0.0017213465180248022,-0.0015464983880519867,0.001725138514302671
1761475329002126300,9.230126220703125,-0.0014728237874805927,-0.0022044996730983257,-0.000058715842897072434
1761475329012103400,9.240103515625,-0.0008443177212029696,-0.001329651102423668,-0.0009391569183208048
1761475329022080500,9.25008056640625,-0.0004886561073362827,0.0019730222411453724,-0.0008251176914200187
1761475329032057300,9.260057373046875,0.002500742208212614,0.00016207294538617134,-0.0019279326079413295
1761475329042034400,9.270034423828125,-0.0010260653216391802,0.000006517395377159119,-0.0020027600694447756
1761475329052011300,9.28001123046875,0.0009489347576163709,0.00018122093752026558,0.00008569103374611586
1761475329061988400,9.28998828125,-0.0002634531119838357,-0.0005797634366899729,0.000012432748917490244
1761475329071965200,9.299965087890625,0.0007522765663452446,0.0010391720570623875,-0.001255764509551227
1761475329081942300,9.3099423828125,0.0015712499152868986,-0.0009298310615122318,-0.0018111143726855516
1761475329091919400,9.31991943359375,-0.0008729991968721151,0.0008022889960557222,0.0029852385632693768
1761475329101896200,9.329896240234374,-0.0010957429185509682,0.0005777338519692421,-0.0029786108061671257
1761475329111873300,9.339873291015625,0.001008154358714819,0.0008429847657680511,0.0012976268772035837
1761475329121850400,9.349850341796875,0.0009066735510714352,-0.0002852650359272957,0.004003399983048439
1761475329131827500,9.359827392578126,0.00035779603058472276,0.0010537724010646343,-0.0014158664271235466
1761475329141804300,9.36980419921875,0.0008857480715960264,-0.00023517291992902756,0.00008437282667728141
1761475329151781400,9.379781494140625,0.0017512755002826452,-0.00003437069244682789,0.00045907957246527076
1761475329161758500,9.389758544921875,-0.002381586469709873,0.0015118119772523642,-0.003012462053447962
1761475329171735300,9.3997353515625,0.0009311196045018733,0.00008435756899416447,-0.0023336224257946014
1761475329181712400,9.40971240234375,0.00026811507996171713,-0.0006430618232116103,0.00032993778586387634
1761475329191689200,9.419689208984375,0.0010870371479541063,-0.0003256129566580057,0.002446884522214532
1761475329201666300,9.429666259765625,0.0018024923047050834,-0.0009361909469589591,-0.00014407798880711198
1761475329211643100,9.43964306640625,-0.000956276198849082,0.0007647699676454067,-0.002045308705419302
1761475329221620200,9.4496201171875,0.0010793913388624787,-0.0017295159632340074,0.0011443529510870576
1761475329231597300,9.459597412109375,0.00011532701319083571,-0.001805682317353785,0.00023914442863315344
1761475329241574400,9.469574462890625,0.00041291798697784543,0.0006272634491324425,-0.0038646601606160402
1761475329251551500,9.479551513671876,0.001381243346258998,0.00252982578240335,0.0008387486450374126
1761475329261528300,9.4895283203125,0.0028154326137155294,0.0012131177354604006,0.0035246540792286396
1761475329271505400,9.49950537109375,-0.00004959612851962447,0.000045055290684103966,-0.0011324157239869237
1761475329281482200,9.509482177734375,-0.0010854778811335564,-0.0006821405841037631,0.0012195635354146361
1761475329291459300,9.519459228515625,0.002205656608566642,0.00047127436846494675,-0.0013674311339855194
1761475329301436400,9.5294365234375,0.0002715342561714351,0.0013014033902436495,-0.00014270018436945975
1761475329311413200,9.539413330078125,-0.0012195695890113711,-0.0005146062467247248,-0.0007538956706412137
1761475329321390300,9.549390380859375,0.0018638728652149439,0.0010345312766730785,0.0009577081655152142
1761475329331367200,9.5593671875,-0.0014341857749968767,-0.002540496177971363,0.0018477366538718343
1761475329341344300,9.56934423828125,-0.00021028518676757812,0.0007854781579226255,-0.0005265247309580445
1761475329351321300,9.5793212890625,-0.00005262601189315319,-0.00011546933092176914,0.0007757609710097313
1761475329361298400,9.58929833984375,0.0012025395408272743,0.0002995755057781935,-0.0010859629837796092
1761475329371275500,9.599275634765625,-0.003730167169123888,0.0026745826471596956,-0.001947761862538755
1761475329381252400,9.60925244140625,-0.00044338288716971874,-0.0006154240109026432,-0.0013229961041361094
1761475329391229400,9.6192294921875,-0.0006329999305307865,-0.0012372721685096622,0.00006930452946107835
1761475329401206300,9.629206298828125,0.0006452270317822695,0.0008460171520709991,0.003930715844035149
1761475329411183400,9.639183349609375,-0.0017316442681476474,0.00046039139851927757,-0.002141025383025408
1761475329421160200,9.64916015625,-0.00016376329585909843,0.0007351695094257593,-0.0038907926063984632
1761475329431137300,9.65913720703125,0.0013800711603835225,-0.003802057821303606,0.001587862498126924
1761475329441114400,9.6691142578125,0.000012784788850694895,-0.00002958555705845356,-0.0034732625354081392
1761475329451091200,9.67909130859375,0.0019148143474012613,0.0017227744683623314,0.00012759759556502104
1761475329461068300,9.689068359375,0.0004185691359452903,0.0016862638294696808,-0.0011571247596293688
1761475329471045400,9.69904541015625,-0.00022911163978278637,0.0004423013888299465,-0.00208843220025301
1761475329481022500,9.7090224609375,0.0011605748441070318,0.0014451411552727222,-0.002154430840164423
1761475329490999300,9.718999267578125,0.0011909349123016,-0.00008883979171514511,-0.0019927769899368286
1761475329500976400,9.728976318359376,-0.0014764314983040094,-0.0011783932568505406,-0.0009592939168214798
1761475329510953500,9.738953369140624,-0.0012452690862119198,-0.0006897031562402844,-0.0006674114847555757
1761475329520930300,9.748930419921875,0.00219231890514493,0.0010588762816041708,-0.0011971818748861551
1761475329530907400,9.758907470703125,0.002135593444108963,-0.00005379249341785908,-0.00185445009265095
1761475329540884200,9.76888427734375,0.003407306270673871,-0.000262152636423707,0.0014412151649594307
1761475329550861300,9.778861328125,-0.00043909717351198196,0.0015938044525682926,-0.00006453608511947095
1761475329560838100,9.788838134765625,0.004568036645650864,0.0005450015887618065,0.0016210619360208511
1761475329570815200,9.798815185546875,-0.0009060907177627087,-0.00040707853622734547,0.002327864756807685
1761475329580792300,9.808792236328125,0.001225668122060597,-0.0002996244002133608,0.0036794496700167656
1761475329590769400,9.818769287109374,-0.00016902928473427892,0.0008045220747590065,0.0007222755230031908
1761475329600746500,9.82874658203125,-0.001139366184361279,-0.0007863750215619802,-0.0014956191880628467
1761475329610723300,9.838723388671875,0.0008201877353712916,0.0002906073350459337,0.0015430476050823927
1761475329620700400,9.848700439453125,0.0008905506692826748,-0.0004020098131150007,0.00020428060088306665
1761475329630677200,9.85867724609375,0.0032192186918109655,-0.0013056204188615084,-0.000010902804206125438
1761475329640654300,9.868654296875,0.0021848450414836407,0.00047306320630013943,-0.0006377171957865357
1761475329650632400,9.878632568359375,-0.0005547488108277321,-0.0009216343751177192,0.00020410804427228868
1761475329660608300,9.888608154296875,-0.0010760865407064557,-0.0013836203143000603,0.0035430823918431997
1761475329670585300,9.89858544921875,-0.0007535777986049652,0.002454261062666774,-0.001909739919938147
1761475329680562200,9.908562255859374,0.001736957230605185,0.0013608774170279503,-0.0016591582680121064
1761475329690539300,9.918539306640625,0.0012024608440697193,-0.0010724528692662716,-0.000006134170689620078
1761475329700517400,9.928517333984376,-0.0004991302266716957,-0.0021238799672573805,-0.003016354748979211
1761475329710494200,9.938494140625,-0.001348412362858653,0.0007360884919762611,-0.0017633371753618121
1761475329720471300,9.94847119140625,0.0010548221180215478,-0.00015196902677416801,0.00007758783613098785
1761475329730448100,9.9584482421875,0.0003402960719540715,-0.0010265512391924858,-0.0005650329403579235
1761475329740425500,9.968425537109376,-0.000041583552956581116,0.002166512655094266,0.002576481783762574
1761475329750402600,9.978402587890624,0.0015669657150283456,-0.0007999824592843652,0.004104071296751499
1761475329760379400,9.98837939453125,-0.0000705468119122088,-0.0016343210591003299,0.0009712292230688035
1761475329770356700,9.998356689453125,-0.0016679107211530209,0.0007904870435595512,-0.001814437098801136
1761475329780333600,10.00833349609375,0.0005112787475809455,-0.0012213686713948846,0.0010962048545479774
1761475329790310700,10.018310546875,-0.002347358502447605,0.0006524315103888512,-0.0022860097233206034
1761475329800287500,10.02828759765625,0.00015043618623167276,0.00001062219962477684,0.0008697255980223417
1761475329810264600,10.0382646484375,0.00017014355398714542,-0.0008948525646701455,-0.00093829445540905
1761475329820241700,10.04824169921875,0.0001273441594094038,0.0000430988147854805,-0.0014398294733837247
1761475329830218500,10.058218505859376,0.0007196311489678919,0.00012778746895492077,-0.002422003075480461
1761475329840195600,10.068195556640624,-0.00007084180833771825,0.00013166037388145924,-0.0010996264172717929
1761475329850172400,10.07817236328125,0.001479916856624186,-0.001903793541714549,0.00008627913484815508
1761475329860149500,10.0881494140625,-0.0006174338632263243,-0.003913920372724533,0.000807595148216933
1761475329870126600,10.098126708984376,0.0011999071575701237,-0.0001748420763760805,0.00033328612335026264
1761475329880103700,10.108103759765624,0.002015532460063696,-0.0011774911545217037,-0.0018953063990920782
1761475329890080800,10.118080810546875,-0.0004516198532655835,0.000865153269842267,-0.0016273923683911562
1761475329900057600,10.1280576171875,0.0007623098790645599,0.001327610807493329,-0.0015999856404960155
1761475329910034700,10.13803466796875,0.0011500661494210362,-0.00039545423351228237,0.0007529171416535974
1761475329920011500,10.148011474609374,0.000725822988897562,0.00006898492574691772,0.0008426611311733723
1761475329929988600,10.157988525390625,-0.0002150718355551362,0.001072996761649847,-0.0009477821877226233
1761475329939965400,10.16796533203125,0.0011745949741452932,0.0003482538741081953,-0.0015187319368124008
1761475329949942500,10.177942626953126,0.0013615487841889262,-0.0009801308624446392,0.00010845944780157879
1761475329959919600,10.187919677734374,0.0013797942083328962,-0.0016678007086738944,0.0008491491316817701
1761475329969896400,10.197896484375,0.0004306436749175191,0.0004438196774572134,-0.0006198505288921297
1761475329979873500,10.20787353515625,-0.0006212865700945258,-0.00020102574490010738,-0.00027360557578504086
1761475329989850600,10.2178505859375,-0.0017035952769219875,-0.001776019111275673,0.0010462570935487747
1761475329999827700,10.22782763671875,-0.002438046969473362,0.00011083134450018406,0.00023312460689339787
1761475330009804500,10.237804443359375,0.0015947778010740876,-0.0006271306192502379,-0.0018188409740105271
1761475330019781600,10.24778173828125,-0.00013094395399093628,-0.001045960932970047,-0.0021291114389896393
1761475330029758700,10.2577587890625,0.0007731992518529296,0.0015138695016503334,0.001757239573635161
1761475330039735600,10.267735595703124,-0.001421113032847643,0.00032352888956665993,-0.00042490463238209486
1761475330049712600,10.277712646484375,0.0012391186319291592,-0.002911945339292288,0.0030409330502152443
1761475330059689500,10.287689453125,-0.00025638798251748085,0.001809451263397932,0.0006107759545557201
1761475330069666600,10.29766650390625,-0.00035812065470963717,0.000609697075560689,-0.002376225311309099
1761475330079643400,10.307643310546876,-0.00009016494732350111,-0.000032363925129175186,0.001004607998766005
1761475330089620500,10.317620361328125,0.0006203664233908057,-0.000966600957326591,-0.0013360442826524377
1761475330099597600,10.32759765625,0.0033868164755403996,0.00024277251213788986,-0.0010940399952232838
1761475330109574700,10.33757470703125,-0.00022123410599306226,0.0010462482459843159,-0.000839441898278892
1761475330119551700,10.3475517578125,0.0021320534870028496,0.0020322417840361595,-0.0013074877206236124
1761475330129528600,10.357528564453125,0.00021031644428148866,-0.0006141412304714322,-0.0031554552260786295
1761475330139505700,10.367505615234375,0.0032942176330834627,-0.0011194690596312284,-0.0013668936444446445
1761475330149482500,10.377482421875,0.0006156103336252272,-0.0029027217533439398,0.0028462272603064775
1761475330159459600,10.38745947265625,-0.0017199183348566294,0.001674798084422946,-0.0027981100138276815
1761475330169436700,10.397436767578125,-0.0014786359388381243,0.0006468179635703564,-0.001189027912914753
1761475330179413500,10.40741357421875,0.00035603082505986094,-0.0002047787420451641,0.0005655743880197406
1761475330189390600,10.417390625,0.0000625504762865603,0.00109857227653265,0.0005594491376541555
1761475330199367400,10.427367431640626,0.0010888903634622693,-0.0016510398127138615,-0.0011288912501186132
1761475330209344500,10.437344482421874,-0.0037239743396639824,-0.0004835100844502449,0.0002650072274263948
1761475330219321600,10.447321533203125,-0.000489303027279675,0.00022204872220754623,-0.000398377887904644
1761475330229298700,10.457298583984375,0.0010055293096229434,0.0033930744975805283,-0.0005832012393511832
1761475330239275800,10.46727587890625,0.002250009449198842,-0.0007941618096083403,0.00015024340245872736
1761475330249252600,10.477252685546874,0.0016380150336772203,-0.0007331754313781857,-0.001031933818012476
1761475330259229700,10.487229736328125,0.0007911018328741193,0.000804003793746233,-0.0012121328618377447
1761475330269206500,10.49720654296875,0.001072597922757268,0.00025672418996691704,0.0016744674649089575
1761475330279183600,10.50718359375,0.0022318889386951923,-0.0030969702638685703,-0.00003136985469609499
1761475330289160400,10.517160400390624,0.00029284151969477534,0.0006056225392967463,0.0004093832685612142
1761475330299137500,10.527137451171875,-0.00033818610245361924,0.00222622393630445,0.0011526710586622357
1761475330309114600,10.537114501953125,0.00028659141389653087,0.0008911811746656895,0.000464776559965685
1761475330319091500,10.547091552734376,-0.0006206597900018096,0.0017476505599915981,-0.004134596791118383
1761475330329068500,10.557068603515624,-0.000767399906180799,-0.001263851998373866,0.0018521890742704272
1761475330339045600,10.567045654296875,0.004368208814412355,-0.0007573103066533804,0.004894179292023182
1761475330349022700,10.577022705078125,0.0011961176060140133,-0.0007764850743114948,0.004001221153885126
1761475330358999600,10.58699951171875,-0.00009122508345171809,-0.000577835482545197,0.001039918977767229
1761475330368976600,10.5969765625,0.0012901565060019493,0.0011891720350831747,-0.0004024490772280842
1761475330378953700,10.60695361328125,0.002850480377674103,-0.0017669769003987312,-0.00024581223260611296
1761475330388930600,10.6169306640625,-0.00007553462637588382,-0.001694805221632123,-0.000903346692211926
1761475330398907600,10.62690771484375,-0.0005807668785564601,-0.0004574006889015436,0.0004104943363927305
1761475330408884500,10.636884521484374,-0.0006928858929313719,0.0015492914244532585,-0.00028592225862666965
1761475330418861600,10.646861572265625,0.00313754309900105,-0.0003972039557993412,0.0014292218256741762
1761475330428838400,10.65683837890625,0.0002709166146814823,0.002090454800054431,-0.0023247702047228813
1761475330438815500,10.6668154296875,-0.0007370623061433434,-0.0000482373870909214,0.0016744310269132257
1761475330448792600,10.67679248046875,0.0009093038970604539,-0.00015369849279522896,0.0000845238973852247
1761475330458769700,10.686769775390625,0.0014018809888511896,0.0021596308797597885,0.0011833199532702565
1761475330468746800,10.696746826171875,-0.0010053502628579736,0.002564164809882641,0.00016759030404500663
1761475330478723600,10.7067236328125,0.0007778977742418647,-0.0018406177405267954,0.0025668232701718807
1761475330488700700,10.71670068359375,0.0011195812840014696,0.0020918056834489107,0.0031372723169624805
1761475330498677500,10.726677490234374,0.001608084887266159,-0.00058503239415586,-0.001067435136064887
1761475330508654600,10.736654541015625,-0.0026769412215799093,0.0003095234278589487,-0.0031929039396345615
1761475330518631700,10.746631591796875,-0.00011325697414577007,0.001399404602125287,-0.0010591561440378428
1761475330528608500,10.7566083984375,-0.0002834329498000443,-0.0002442984841763973,0.0002966591564472765
1761475330538585600,10.766585693359374,0.00019306223839521408,-0.001007797778584063,-0.0004296142142266035
1761475330548562400,10.7765625,0.0009272957104258239,-0.0021076833363622427,0.000571468030102551
1761475330558539500,10.78653955078125,-0.0002782991505227983,-0.0008366801775991917,0.00024116176064126194
1761475330568516600,10.7965166015625,-0.0008351661381311715,0.0012874570675194263,-0.0026984354481101036
1761475330578493700,10.80649365234375,-0.00035527319414541125,-0.0023180064745247364,-0.0011334286537021399
1761475330588470800,10.816470703125,-0.0014247987419366837,0.0014892485924065113,0.003317512571811676
1761475330598447600,10.826447509765625,-0.00026955147041007876,0.0003315138164907694,-0.00017474067863076925
1761475330608424700,10.8364248046875,0.0010516426991671324,-0.0005726292729377747,0.0035254552494734526
1761475330618401500,10.846401611328124,0.0001868522958829999,-0.00027085025794804096,-0.0016902677016332746
1761475330628378600,10.856378662109375,0.0003194776945747435,0.0009832321666181087,0.00030443997820839286
1761475330638355500,10.86635546875,-0.0013799649896100163,-0.0009092258987948298,0.003330419771373272
1761475330648332500,10.87633251953125,-0.0010768971405923367,-0.0004445041995495558,-0.0018140083411708474
1761475330658309600,10.8863095703125,0.0018926358316093683,0.0007626770529896021,0.0010383623884990811
1761475330668286500,10.896286376953125,-0.0002986131585203111,-0.001999553758651018,-0.0007408955134451389
1761475330678263600,10.906263671875,0.0008182472083717585,-0.0014429631410166621,-0.0005334927118383348
1761475330688240600,10.91624072265625,-0.00031386257614940405,0.0004974158946424723,0.0014670739183202386
1761475330698217700,10.9262177734375,-0.0012013847008347511,0.0018958549480885267,0.0027357167564332485
1761475330708194600,10.936194580078125,0.001256180345080793,-0.00012069079093635082,-0.0007221315754577518
1761475330718171600,10.946171630859375,0.0018038088455796242,0.0006740011740475893,0.004984214436262846
1761475330728148700,10.956148681640625,0.0007396097644232213,0.0037954922299832106,0.0030949681531637907
1761475330738125600,10.96612548828125,-0.001542538870126009,0.004230245016515255,0.005125927273184061
1761475330748102700,10.9761025390625,-0.0015678387135267258,0.0006759900134056807,0.0016182780964300036
1761475330758079500,10.98607958984375,0.00131167471408844,-0.001982649089768529,-0.0015138040762394667
1761475330768056300,10.996056396484375,-0.00046625168761238456,-0.0016694612568244338,-0.0008834339096210897
1761475330778033400,11.006033447265626,-0.0017708451487123966,-0.0024970341473817825,0.001541550736874342
1761475330788010200,11.01601025390625,0.0017035148339346051,-0.0018453586380928755,-0.0006614160956814885
1761475330797987600,11.025987548828125,0.0014379520434886217,0.000003927154466509819,-0.002772348700091243
1761475330807964400,11.03596435546875,0.00018626631936058402,0.002085719956085086,0.00013209486496634781
