time,seconds_elapsed,z,y,x
1761476343731252200,0.121252197265625,0.0034466711804270744,-0.024089625105261803,-0.00376274436712265
1761476343741286100,0.1312861328125,0.0030985279008746147,-0.013052805326879025,-0.002203552983701229
1761476343751319300,0.1413193359375,0.009087977930903435,0.0010022926144301891,-0.0036698896437883377
1761476343761352000,0.15135205078125,0.007127285934984684,0.01139811147004366,-0.0006727948784828186
1761476343771385000,0.161385009765625,0.0003205128014087677,0.012405052781105042,0.0030087586492300034
1761476343781418000,0.17141796875,0.0021541714668273926,0.009498575702309608,-0.0004663737490773201
1761476343791452200,0.1814521484375,0.001390642486512661,0.00532673392444849,-0.0005870144814252853
1761476343801485000,0.191485107421875,0.0017553474754095078,0.0012567024677991867,0.002772243693470955
1761476343811518200,0.201518310546875,0.0009710462763905525,-0.0018874257802963257,0.001473686657845974
1761476343821551000,0.211551025390625,0.001207275316119194,-0.00913044810295105,-0.003042031079530716
1761476343831584300,0.221584228515625,0.004235289990901947,-0.009049488231539726,-0.0006212173029780388
1761476343841618200,0.2316181640625,0.002543920651078224,-0.0018166322261095047,0.004440326243638992
1761476343851651000,0.241651123046875,0.004240088164806366,0.000949593260884285,0.00803878903388977
1761476343861684000,0.25168408203125,0.005571730434894562,0.0012913309037685394,0.005638448521494865
1761476343871717000,0.261717041015625,0.007754724472761154,-0.003271196037530899,0.000029831193387508392
1761476343881751000,0.2717509765625,0.01477010827511549,-0.01015671156346798,0.0002841893583536148
1761476343891784200,0.2817841796875,0.012107213027775288,-0.0006761248223483562,0.005470695905387402
1761476343901817000,0.291817138671875,0.00914554763585329,0.015880271792411804,0.011035147123038769
1761476343911850200,0.301850341796875,0.004114036448299885,0.03400920704007149,0.011627965606749058
1761476343921883100,0.311883056640625,0.0016388725489377975,0.04587801173329353,0.008928685449063778
1761476343931917300,0.321917236328125,-0.0028687939047813416,0.04374988004565239,-0.0012075714766979218
1761476343941950200,0.3319501953125,-0.003041490912437439,0.032226525247097015,-0.004176204092800617
1761476343951983000,0.341983154296875,-0.003657746594399214,0.006265235133469105,-0.004905111156404018
1761476343962016000,0.35201611328125,-0.002915368415415287,-0.007595784496515989,-0.0047041974030435085
1761476343972049200,0.362049072265625,-0.002694592345505953,-0.015936272218823433,-0.0034972522407770157
1761476343982083000,0.3720830078125,-0.004745594225823879,-0.008967509493231773,-0.002766672521829605
1761476343992116200,0.3821162109375,-0.005971713922917843,-0.006694767624139786,-0.001879306510090828
1761476344002149000,0.392149169921875,-0.004037668462842703,-0.008432049304246902,-0.00027720537036657333
1761476344012182300,0.402182373046875,-0.0033308658748865128,-0.01641407608985901,-0.0004958510398864746
1761476344022216200,0.41221630859375,0.00209786556661129,-0.026068339124321938,0.0015653418377041817
1761476344032249000,0.4222490234375,0.002229957841336727,-0.024785226210951805,0.003194131888449192
1761476344042282000,0.432281982421875,0.0033325450494885445,-0.020925557240843773,0.0009832428768277168
1761476344052315100,0.442315185546875,0.0007487460970878601,-0.007916814647614956,-0.0019193356856703758
1761476344062348000,0.45234814453125,0.0018720133230090141,0.007439872249960899,0.0020490968599915504
1761476344072382200,0.46238232421875,0.0006624059751629829,0.020478975027799606,0.003133269026875496
1761476344082415000,0.4724150390625,0.0008578337728977203,0.02836323156952858,0.006632681004703045
1761476344092448300,0.4824482421875,-0.0007067732512950897,0.030435170978307724,0.007666253484785557
1761476344102481200,0.492481201171875,-0.00156799191609025,0.029565948992967606,0.006369009613990784
1761476344112515300,0.502515380859375,-0.0024385792203247547,0.015844009816646576,0.001829652115702629
1761476344122548200,0.51254833984375,0.0017683524638414383,0.004303859546780586,0.00023799855262041092
1761476344132581000,0.5225810546875,0.005472809076309204,-0.015378499403595924,-0.002359115518629551
1761476344142614000,0.532614013671875,0.006540129892528057,-0.0265126321464777,-0.0019395388662815094
1761476344152647000,0.54264697265625,0.00785839557647705,-0.03001468814909458,-0.00005242321640253067
1761476344162681000,0.55268115234375,0.004817142151296139,-0.014579951763153076,-0.0030497191473841667
1761476344172714200,0.56271435546875,0.005950051359832287,0.002472267486155033,-0.0006555365398526192
1761476344182747100,0.5727470703125,0.004742586985230446,0.01712362840771675,0.001684260554611683
1761476344192780000,0.582780029296875,0.002485557459294796,0.0279533714056015,0.001174531877040863
1761476344202814200,0.592814208984375,-0.0027364366687834263,0.0267954058945179,0.003956264816224575
1761476344212847400,0.602847412109375,-0.008391925133764744,0.015577106736600399,-0.000998014584183693
1761476344222880000,0.6128798828125,-0.004858692642301321,-0.001739848405122757,-0.005016242619603872
1761476344232913000,0.622912841796875,-0.0044190045446157455,-0.018803253769874573,-0.004362969193607569
1761476344242947000,0.632947021484375,-0.0006304942071437836,-0.02939537540078163,-0.005906996317207813
1761476344252980200,0.642980224609375,0.0014550266787409782,-0.024661075323820114,0.0001562228426337242
1761476344263013000,0.65301318359375,0.0011190613731741905,-0.014532264322042465,0.0034913253039121628
1761476344273046000,0.6630458984375,-0.00208791671320796,-0.0008468129672110081,0.004631689749658108
1761476344283080200,0.673080078125,0.0011448543518781662,0.010961049236357212,0.0015951059758663177
1761476344293113300,0.68311328125,-0.0008748872205615044,0.013287587091326714,0.000036357901990413666
1761476344303146200,0.693146240234375,-0.0023989113979041576,0.012585509568452835,0.00040779635310173035
1761476344313179100,0.70317919921875,-0.0013536210171878338,0.005604032427072525,0.00205948855727911
1761476344323213000,0.713213134765625,-0.002145992126315832,-0.0006482438184320927,-0.0022759651765227318
1761476344333246200,0.72324609375,-0.0007137437351047993,-0.00639614462852478,-0.004147901199758053
1761476344343279000,0.733279052734375,0.001033596694469452,-0.0014121267013251781,-0.0008383449167013168
1761476344353312000,0.74331201171875,0.002814718522131443,0.0029978016391396523,-0.0013723084703087807
1761476344363346200,0.75334619140625,0.0014582080766558647,0.0014319512993097305,0.0014407234266400337
1761476344373379300,0.76337939453125,-0.0005956212989985943,0.006700216326862574,0.0012148870155215263
1761476344383412200,0.773412109375,-0.0027458351105451584,0.00026468466967344284,-0.0003287196159362793
1761476344393445000,0.783445068359375,-0.001029428094625473,0.0006740125827491283,-0.0015516430139541626
1761476344403479000,0.79347900390625,-0.0010778368450701237,-0.005426356568932533,-0.003329426981508732
1761476344413512200,0.80351220703125,-0.0010520042851567268,-0.007054879330098629,-0.001984797418117523
1761476344423545000,0.813545166015625,-0.002155845519155264,-0.006548210978507996,-0.0029316358268260956
1761476344433578000,0.823577880859375,-0.001066612545400858,-0.003361206501722336,0.00007880106568336487
1761476344443612200,0.833612060546875,0.0007293615490198135,0.0018296940252184868,0.0003391159698367119
1761476344453645300,0.843645263671875,0.0006265640258789062,0.009081481955945492,0.00025709066540002823
1761476344463678200,0.85367822265625,-0.00107966223731637,0.007624333258718252,-0.0006181476637721062
1761476344473711400,0.86371142578125,0.0014242418110370636,0.0094336848706007,0.0035496996715664864
1761476344483745000,0.8737451171875,0.00006670691072940826,0.004396049305796623,0.0025422070175409317
1761476344493778200,0.883778076171875,0.0026318635791540146,-0.004383593797683716,0.0009214067831635475
1761476344503811000,0.89381103515625,0.0009345375001430511,-0.0063746473751962185,0.0030655311420559883
1761476344513845800,0.903845703125,-0.0015030540525913239,-0.007929934188723564,-0.0014719627797603607
1761476344523879400,0.91387939453125,-0.0020141489803791046,-0.0036231959238648415,-0.000940302386879921
1761476344533912600,0.92391259765625,0.00028788764029741287,0.0033116755075752735,0.00424141064286232
1761476344543945500,0.933945556640625,0.0005605099722743034,0.012902114540338516,0.00044283363968133926
1761476344553978600,0.943978515625,0.0018473491072654724,0.016501642763614655,0.005138520151376724
1761476344564012500,0.954012451171875,0.001717803068459034,0.015230100601911545,0.0014235936105251312
1761476344574045700,0.964045654296875,-0.0008233855478465557,0.008825465105473995,0.0001506023108959198
1761476344584078600,0.97407861328125,0.0001919437199831009,0.008429131470620632,0.0029177945107221603
1761476344594111700,0.98411181640625,-0.0012458967976272106,0.007041624281555414,-0.0032010842114686966
1761476344604145400,0.9941455078125,-0.0036680069752037525,0.005898537579923868,-0.004482750780880451
1761476344614178600,1.004178466796875,-0.00275161350145936,0.006938235834240913,-0.003908840008080006
1761476344624211500,1.01421142578125,-0.002437591552734375,-0.0006601628847420216,-0.002246316522359848
1761476344634244600,1.02424462890625,-0.005812615156173706,-0.014071575365960598,-0.00021751970052719116
1761476344644278500,1.034278564453125,-0.007696818560361862,-0.028618894517421722,-0.0005382532253861427
1761476344654311700,1.044311767578125,-0.005363889504224062,-0.039274465292692184,-0.005419827066361904
1761476344664344600,1.054344482421875,-0.006884666159749031,-0.04821883141994476,-0.00964527390897274
1761476344674378800,1.064378662109375,-0.0059544239193201065,-0.05066787451505661,-0.010043683461844921
1761476344684411600,1.07441162109375,-0.008422642014920712,-0.045994825661182404,-0.00666466448456049
1761476344694444500,1.084444580078125,-0.009525722824037075,-0.03504098206758499,-0.002009192481637001
1761476344704477400,1.0944775390625,-0.008046677336096764,-0.026515746489167213,0.0009375670924782753
1761476344714511600,1.10451171875,-0.004027700982987881,-0.020228290930390358,0.0015666056424379349
1761476344724544500,1.11454443359375,-0.0038493131287395954,-0.014494575560092926,-0.0015426930040121078
1761476344734577700,1.12457763671875,-0.005249602720141411,-0.011735275387763977,-0.0002958010882139206
1761476344744610600,1.134610595703125,-0.0048309555277228355,-0.00854199007153511,0.0024438630789518356
1761476344754644700,1.144644775390625,-0.006041362415999174,-0.00787806510925293,0.0024843430146574974
1761476344764677600,1.154677734375,-0.00024169031530618668,-0.0018470236100256443,0.004273582249879837
1761476344774710500,1.16471044921875,-0.0007274514064192772,-0.0009069275110960007,0.002311098389327526
1761476344784744700,1.17474462890625,0.004314827732741833,0.0016449070535600185,0.004519936628639698
1761476344794777600,1.184777587890625,0.004669561050832272,0.004724320024251938,0.007306401617825031
1761476344804810500,1.194810546875,0.006978091783821583,0.005448791664093733,0.005177206359803677
1761476344814843600,1.20484375,0.011095072142779827,-0.0015870137140154839,0.002526029944419861
1761476344824877800,1.2148779296875,0.011145850643515587,-0.005497900303453207,-0.002693687565624714
1761476344834910700,1.22491064453125,0.01122015155851841,-0.0046416944824159145,-0.00015303120017051697
1761476344844943600,1.234943603515625,0.010057713836431503,0.0033097206614911556,-0.0006627840921282768
1761476344854976800,1.244976806640625,0.009942132979631424,0.013898182660341263,0.0011907760053873062
1761476344865010700,1.2550107421875,0.012780778110027313,0.025213994085788727,0.004125148057937622
1761476344875043600,1.265043701171875,0.008957544341683388,0.037354279309511185,0.0013533299788832664
1761476344885076500,1.275076416015625,0.008414363488554955,0.03764130547642708,0.003775406628847122
1761476344895109600,1.285109619140625,0.004900854080915451,0.03210805356502533,0.008736874908208847
1761476344905143800,1.295143798828125,0.0020300447940826416,0.01999076083302498,0.006153912283480167
1761476344915176700,1.3051767578125,-0.005449975840747356,0.007695745676755905,0.0036452142521739006
1761476344925209600,1.315209716796875,-0.005144674330949783,-0.0023473664186894894,0.006370358169078827
1761476344935243500,1.325243408203125,-0.008784150704741478,-0.001032030675560236,0.001959097571671009
1761476344945276700,1.335276611328125,-0.010611227713525295,0.006794617976993322,0.005400253459811211
1761476344955309600,1.3453095703125,-0.012496478855609894,0.010368579998612404,0.004527268931269646
1761476344965342500,1.355342529296875,-0.009025180712342262,0.020100627094507217,0.005156407132744789
1761476344975376600,1.365376708984375,-0.012831902131438255,0.025491928681731224,0.0052818413823843
1761476344985409800,1.375409912109375,-0.013244847767055035,0.025131959468126297,0.002499563619494438
1761476344995442700,1.385442626953125,-0.013950585387647152,0.020111635327339172,-0.000523657537996769
1761476345005476600,1.3954765625,-0.013873749412596226,0.01041715033352375,-0.0029714545235037804
1761476345015509500,1.405509521484375,-0.012264400720596313,0.00006011687219142914,-0.00008432194590568542
1761476345025542700,1.415542724609375,-0.007610761560499668,-0.008434286341071129,-0.0037901345640420914
1761476345035575600,1.425575439453125,-0.0067076836712658405,-0.012457523494958878,-0.003439130261540413
1761476345045609700,1.435609619140625,-0.004925776273012161,-0.014644037932157516,-0.0051050190813839436
1761476345055642600,1.445642578125,-0.0007677832618355751,-0.01099657267332077,-0.00445254473015666
1761476345065675800,1.45567578125,0.0017441967502236366,-0.008512930013239384,-0.004613364581018686
1761476345075708700,1.465708740234375,0.004816952161490917,-0.005997307598590851,-0.003996576182544231
1761476345085742600,1.47574267578125,0.005968145094811916,-0.009234792552888393,-0.0050268047489225864
1761476345095775500,1.485775390625,0.010096844285726547,-0.008246227167546749,-0.00382784940302372
1761476345105808600,1.49580859375,0.00960494764149189,-0.004068419802933931,-0.004628397524356842
1761476345115842600,1.505842529296875,0.011420156806707382,-0.00340049946680665,-0.00009383354336023331
1761476345125875700,1.515875732421875,0.014494598843157291,0.003458454506471753,-0.0010011326521635056
1761476345135908600,1.52590869140625,0.014046655036509037,0.007697940804064274,-0.002706088125705719
1761476345145941800,1.535941650390625,0.012694953009486198,0.006644120439887047,0.000041507184505462646
1761476345155975700,1.5459755859375,0.012381233274936676,0.003473627148196101,-0.005073360167443752
1761476345166008800,1.5560087890625,0.011465751565992832,-0.00464702257886529,-0.0027923742309212685
1761476345176041700,1.566041748046875,0.007571411319077015,-0.01004738174378872,-0.003335392102599144
1761476345186075600,1.57607568359375,0.004041781648993492,-0.012798668816685677,-0.006473015062510967
1761476345196108500,1.586108642578125,0.004005296155810356,-0.013157663866877556,-0.0014114109799265862
1761476345206141700,1.5961416015625,0.002968643791973591,-0.008859438821673393,-0.0027876505628228188
1761476345216174600,1.606174560546875,0.003216317854821682,-0.003513143863528967,-0.003016149625182152
1761476345226208800,1.616208740234375,0.0008365577086806297,0.0035887223202735186,-0.001829809509217739
1761476345236241700,1.62624169921875,-0.0020311339758336544,0.01274120807647705,-0.0019342051818966866
1761476345246274800,1.63627490234375,-0.0032270685769617558,0.020584234967827797,0.0033016689121723175
1761476345256308500,1.64630859375,-0.00472882529720664,0.015403587371110916,-0.0011993395164608955
1761476345266341600,1.656341552734375,-0.00705382227897644,0.007461242843419313,-0.00026096031069755554
1761476345276374500,1.66637451171875,-0.008238130249083042,-0.011501261964440346,0.004237918183207512
1761476345286407700,1.67640771484375,-0.006712229922413826,-0.030561119318008423,0.000418027862906456
1761476345296441600,1.686441650390625,-0.005678124725818634,-0.03374386578798294,-0.0008608214557170868
1761476345306474800,1.696474853515625,-0.0008454481139779091,-0.02853425219655037,-0.002237744629383087
1761476345316507600,1.706507568359375,-0.0023434762842953205,-0.01878974586725235,-0.0014289431273937225
1761476345326540800,1.716540771484375,-0.0018721576780080795,-0.005271001253277063,0.0007501626387238503
1761476345336574500,1.726574462890625,-0.0017262161709368229,0.0045691123232245445,0.001675611361861229
1761476345346607600,1.736607666015625,-0.00039047934114933014,0.00791383907198906,0.0003281189128756523
1761476345356640500,1.746640625,0.0026047779247164726,0.011406042613089085,0.0005054855719208717
1761476345366674700,1.7566748046875,0.005433891899883747,0.01099141500890255,-0.000809594988822937
1761476345376707600,1.76670751953125,0.0023789796978235245,0.008624397218227386,0.00026232656091451645
1761476345386740700,1.77674072265625,0.006531190127134323,0.008724491111934185,0.002617643214762211
1761476345396773600,1.786773681640625,0.006542641669511795,0.011090443469583988,0.00034170597791671753
1761476345406807600,1.7968076171875,0.005544876679778099,0.012849321588873863,0.004047797992825508
1761476345416840400,1.80684033203125,0.0035075582563877106,0.010288959369063377,-0.0008236570283770561
1761476345426873600,1.81687353515625,0.0036371033638715744,0.007441761903464794,-0.00043642520904541016
1761476345436907500,1.826907470703125,0.0036416305229067802,0.0007260688580572605,0.0030041132122278214
1761476345446940700,1.836940673828125,-0.0007428345270454884,-0.0030984333716332912,0.0009428942576050758
1761476345456973600,1.8469736328125,0.0018276488408446312,-0.005247869994491339,-0.00021637976169586182
1761476345467006700,1.8570068359375,-0.0007347124628722668,-0.00321845430880785,-0.002272453159093857
1761476345477040600,1.86704052734375,-0.004616269841790199,0.004972630180418491,-0.0025534164160490036
1761476345487073500,1.877073486328125,-0.004608043469488621,0.007925924845039845,0.00221182219684124
1761476345497106400,1.8871064453125,-0.005843217484652996,0.010442079044878483,0.0006749117746949196
1761476345507140600,1.897140625,-0.00657558673992753,0.01166526973247528,0.0010160626843571663
1761476345517173000,1.907173095703125,-0.006138828583061695,0.00528167188167572,0.0032150354236364365
1761476345527206000,1.917205810546875,-0.005339034367352724,-0.0013979929499328136,0.0032688919454813004
1761476345537239000,1.927239013671875,-0.005016791634261608,-0.008750448003411293,-0.0008816448971629143
1761476345547273000,1.93727294921875,-0.0033056060783565044,-0.007590800523757935,-0.0024960832670331
1761476345557306000,1.94730615234375,-0.002670974936336279,-0.006440315395593643,0.0013860072940587997
1761476345567339000,1.957339111328125,-0.0025000255554914474,-0.0009604725055396557,-0.0010467404499650002
1761476345577373000,1.967373046875,-0.00012848060578107834,0.0025024358183145523,0.00008856505155563354
1761476345587405800,1.97740576171875,0.0005370620638132095,0.006556662730872631,0.00102907232940197
1761476345597439000,1.98743896484375,0.0016609160229563713,0.004487919621169567,-0.00028599705547094345
1761476345607471900,1.997471923828125,0.0029718996956944466,0.0033495721872895956,0.0010612374171614647
1761476345617506000,2.007506103515625,0.0039330339059233665,0.0023173310328274965,-0.0024964800104498863
1761476345627539000,2.0175390625,0.0038570910692214966,0.00016898708418011665,-0.0020528892055153847
1761476345637572000,2.027572021484375,0.007288573309779167,0.00364254810847342,0.00002490915358066559
1761476345647606000,2.03760595703125,0.007304370403289795,0.0028673072811216116,-0.0014780908823013306
1761476345657639000,2.047638916015625,0.007168550044298172,0.0008478322997689247,-0.0015585189685225487
1761476345667671800,2.057671875,0.007462363690137863,0.0012531722895801067,0.0006033414974808693
1761476345677705000,2.067705078125,0.0038553792983293533,-0.0034313281066715717,-0.0024284012615680695
1761476345687739000,2.07773876953125,0.006375908851623535,-0.008882032707333565,-0.0022097500041127205
1761476345697772000,2.08777197265625,0.007220130413770676,-0.011351048946380615,-0.004204723984003067
1761476345707805000,2.097804931640625,0.004448979161679745,-0.00918235257267952,-0.003820011392235756
1761476345717839000,2.107839111328125,0.0020524002611637115,-0.004877618979662657,0.00015262607485055923
1761476345727872000,2.1178720703125,0.0020851073786616325,-0.0015178536996245384,0.002929174341261387
1761476345737905200,2.1279052734375,0.002059808000922203,0.0030859527178108692,0.00102261733263731
1761476345747939000,2.13793896484375,-0.0009253369644284248,0.00585985416546464,-0.0003625638782978058
1761476345757972000,2.147971923828125,-0.0019237562082707882,0.0018704389221966267,-0.0010765576735138893
1761476345768004900,2.1580048828125,0.0009460262954235077,-0.0015102098695933819,0.0016041873022913933
1761476345778038000,2.1680380859375,0.00012630503624677658,-0.001435374841094017,0.0007780743762850761
1761476345788072200,2.178072265625,-0.0014021573588252068,0.00099507300183177,0.004272395744919777
1761476345798105000,2.18810498046875,-0.0028000506572425365,0.004839079454541206,0.00251577515155077
1761476345808138000,2.198137939453125,-0.0023352792486548424,0.0025985040701925755,0.003206683322787285
1761476345818172000,2.208171875,-0.0036186561919748783,0.0029103602282702923,-0.00035289768129587173
1761476345828205000,2.218205078125,-0.0031300634145736694,0.003009410109370947,-0.000697658397257328
1761476345838238000,2.228238037109375,-0.0039889332838356495,0.0030461617279797792,-0.002100079320371151
1761476345848270800,2.238270751953125,-0.0011215736158192158,0.007751792669296265,0.0006472961977124214
1761476345858305000,2.248304931640625,-0.004349058493971825,0.010586194694042206,0.0029509300366044044
1761476345868338200,2.258338134765625,-0.0032172533683478832,0.01192360557615757,0.0020475974306464195
1761476345878371000,2.26837109375,-0.004432187415659428,0.009059908799827099,-0.00022647622972726822
1761476345888405000,2.278405029296875,-0.004134333226829767,-0.007769420742988586,0.0017674369737505913
1761476345898438000,2.28843798828125,-0.002962009981274605,-0.020556587725877762,-0.0015588514506816864
1761476345908471000,2.298470947265625,-0.003967532888054848,-0.0268295556306839,0.0014614928513765335
1761476345918505000,2.3085048828125,-0.0034434227272868156,-0.0266074500977993,0.0032793665304780006
1761476345928538000,2.3185380859375,-0.00231361435726285,-0.015815433114767075,0.0006289426237344742
1761476345938571000,2.328571044921875,0.0020837970077991486,-0.0034852642565965652,0.000189254991710186
1761476345948604200,2.338604248046875,-0.0007233978249132633,0.006000420078635216,0.0018931422382593155
1761476345958638000,2.34863818359375,0.002887582406401634,0.010142434388399124,0.00131896510720253
1761476345968671000,2.3586708984375,0.0016536349430680275,0.01045568473637104,0.0008340692147612572
1761476345978704000,2.368703857421875,0.0008946340531110764,0.009288687258958817,0.0010468559339642525
1761476345988738000,2.378738037109375,0.00368480384349823,0.007158552762120962,-0.0010979995131492615
1761476345998771000,2.38877099609375,0.004033943638205528,0.010840905830264091,0.0012016398832201958
1761476346008804000,2.39880419921875,0.0033975904807448387,0.013003023341298103,0.0024549392983317375
1761476346018837000,2.4088369140625,0.001917937770485878,0.015735425055027008,0.0036951731890439987
1761476346028871200,2.41887109375,0.004535626620054245,0.014709286391735077,0.0005833860486745834
1761476346038904000,2.428904052734375,0.0036264238879084587,0.004699530079960823,-0.001279229298233986
1761476346048937000,2.43893701171875,0.003138674423098564,-0.005096412263810635,-0.002619943581521511
1761476346058971000,2.448970947265625,0.0011578146368265152,-0.014640649780631065,-0.0007165819406509399
1761476346069004000,2.459004150390625,0.004381334409117699,-0.012804253026843071,-0.003094034269452095
1761476346079037000,2.469036865234375,0.0033597461879253387,-0.00613063620403409,-0.0026098713278770447
1761476346089071000,2.479071044921875,0.0013776374980807304,0.007874163798987865,0.001124025322496891
1761476346099104000,2.48910400390625,0.002086038701236248,0.013641771860420704,0.0006542438641190529
1761476346109137200,2.49913720703125,-0.0022986019030213356,0.016166629269719124,0.002129499800503254
1761476346119170000,2.509170166015625,-0.0017840787768363953,0.01127333752810955,0.0016234992071986198
1761476346129204000,2.519203857421875,-0.003376221749931574,0.004127073101699352,0.0024419547989964485
1761476346139236900,2.52923681640625,-0.003950665704905987,-0.008441449142992496,0.002362593077123165
1761476346149270000,2.53927001953125,-0.003953763749450445,-0.009455421939492226,0.0006564361974596977
1761476346159304000,2.549303955078125,-0.0033140722662210464,-0.010690329596400261,-0.00007540080696344376
1761476346169337000,2.559337158203125,-0.004935831297188997,-0.00885227881371975,-0.0008640307933092117
1761476346179370000,2.569369873046875,-0.00018874648958444595,-0.006964097730815411,0.000789259560406208
1761476346189404000,2.57940380859375,-0.0013046045787632465,0.0002323421649634838,0.002557135187089443
1761476346199436800,2.589436767578125,-0.002493706066161394,-0.0002749897539615631,-0.0008660927414894104
1761476346209470000,2.599469970703125,0.0008306736126542091,0.001834728755056858,0.0013765599578619003
1761476346219504000,2.609504150390625,-0.0009304746054112911,0.0006229905411601067,-0.0004927124828100204
1761476346229537000,2.619537109375,-0.003201679792255163,-0.00381639925763011,-0.0005014371126890182
1761476346239570000,2.62956982421875,0.0014974679797887802,-0.004149028565734625,-0.004421876277774572
1761476346249603000,2.63960302734375,0.001387844793498516,-0.01123474258929491,-0.0033660707995295525
1761476346259637000,2.649636962890625,0.0029793493449687958,-0.010046706534922123,-0.005602060351520777
1761476346269670000,2.659669921875,0.004428276792168617,-0.007858013734221458,-0.002406395971775055
1761476346279702800,2.669702880859375,0.004374214448034763,-0.004070997703820467,-0.0035523539409041405
1761476346289737000,2.679737060546875,0.0023603737354278564,-0.0010647871531546116,-0.0025864318013191223
1761476346299770000,2.68977001953125,0.0032320255413651466,0.00047931354492902756,0.0022432105615735054
1761476346309803000,2.699802978515625,0.0011962642893195152,0.0035464419052004814,0.0008437260985374451
1761476346319837200,2.709837158203125,0.0035526296123862267,-0.0009015696123242378,0.001306050457060337
1761476346329870000,2.7198701171875,0.0011161714792251587,-0.006230080034583807,-0.001632746309041977
1761476346339903200,2.7299033203125,0.00033906102180480957,-0.008887115865945816,-0.001128077507019043
1761476346349936000,2.73993603515625,0.0010941457003355026,-0.012418437749147415,-0.0019460087642073631
1761476346359970000,2.749969970703125,0.0008009318262338638,-0.00782022438943386,0.0006508398801088333
1761476346370003000,2.7600029296875,-0.0001816488802433014,0.00042765773832798004,-0.003939244896173477
1761476346380036000,2.7700361328125,-0.001012022141367197,0.007093283347785473,-0.000026528723537921906
1761476346390070000,2.780070068359375,-0.0008882344700396061,0.015435287728905678,0.0005321362987160683
1761476346400103200,2.790103271484375,-0.0022973129525780678,0.016497889533638954,-0.0006154198199510574
1761476346410136000,2.800135986328125,-0.00247728219255805,0.012923025526106358,0.002871924079954624
1761476346420170000,2.810169921875,-0.000701752956956625,0.007720273919403553,0.0031616752967238426
1761476346430203000,2.820202880859375,-0.003018238116055727,0.0032081399112939835,-0.0003033643588423729
1761476346440236000,2.830236083984375,0.0013048714026808739,0.002849678276106715,-0.0001536952331662178
1761476346450270000,2.84027001953125,-0.0012610340490937233,0.006835445761680603,0.0012218942865729332
1761476346460303000,2.85030322265625,-0.0004250677302479744,0.013480830937623978,0.00038113445043563843
1761476346470336000,2.8603359375,0.001427588053047657,0.01600450463593006,0.0014621783047914505
1761476346480369200,2.870369140625,0.0026830025017261505,0.01277595479041338,0.0016680406406521797
1761476346490402800,2.88040283203125,0.0020983386784791946,0.005358889698982239,0.006544956937432289
1761476346500436000,2.89043603515625,-0.00029930565506219864,-0.004715848248451948,0.006644558161497116
1761476346510468900,2.90046875,0.0011070659384131432,-0.0086326003074646,0.00537183228880167
1761476346520502000,2.910501953125,0.001664731651544571,-0.006606733426451683,0.00005909334868192673
1761476346530535200,2.92053515625,0.00584925152361393,-0.005181880667805672,0.001459980383515358
1761476346540568000,2.930568115234375,0.0038614682853221893,0.00020569423213601112,0.0011883387342095375
1761476346550602200,2.940602294921875,0.00004215538501739502,0.004771966487169266,0.0010465895757079124
1761476346560635100,2.95063525390625,0.0016333945095539093,0.009279899299144745,0.0017025265842676163
1761476346570668300,2.960668212890625,0.0011188387870788574,0.011343095451593399,-0.0008201505988836288
1761476346580702000,2.970701904296875,0.0012935418635606766,0.011273853480815887,0.0007897298783063889
1761476346590735000,2.980735107421875,0.0014016060158610344,0.007952993735671043,0.00014398153871297836
1761476346600768000,2.99076806640625,0.0006753625348210335,0.011012699455022812,-0.0005700113251805305
1761476346610801200,3.00080126953125,-0.0021997764706611633,0.01751009374856949,0.003234177827835083
1761476346620835000,3.0108349609375,-0.003346267156302929,0.01993516832590103,0.0005917893722653389
1761476346630868200,3.0208681640625,-0.004117919597774744,0.02942306362092495,-0.0008500469848513603
1761476346640901000,3.030901123046875,-0.002772224135696888,0.02629917673766613,0.0014549186453223228
1761476346650935300,3.040935302734375,-0.004101007245481014,0.018829690292477608,0.003813415765762329
1761476346660968200,3.05096826171875,-0.006079469807446003,0.0036549989599734545,-0.000840991735458374
1761476346671001000,3.0610009765625,-0.008360205218195915,-0.008392649702727795,0.0008207568898797035
1761476346681035000,3.071034912109375,-0.0064371367916464806,-0.015545899048447609,-0.004929007962346077
1761476346691068200,3.081068115234375,-0.007049392908811569,-0.01163261104375124,-0.0062775686383247375
1761476346701101000,3.09110107421875,-0.009415345266461372,-0.0029347268864512444,-0.002108655869960785
1761476346711135200,3.10113525390625,-0.010639600455760956,0.0023726867511868477,-0.003990978002548218
1761476346721168100,3.111168212890625,-0.008323448710143566,0.0047663357108831406,-0.001351785846054554
1761476346731201300,3.121201171875,-0.007126455195248127,-0.0009696739725768566,0.00035928282886743546
1761476346741234200,3.131234130859375,-0.004925352521240711,-0.00991363450884819,-0.0035877879709005356
1761476346751268000,3.14126806640625,-0.0007925559766590595,-0.025479376316070557,-0.0028145350515842438
1761476346761301000,3.151301025390625,0.0012018857523798943,-0.03067440167069435,-0.0035349195823073387
1761476346771334100,3.161334228515625,0.00026886817067861557,-0.034464895725250244,-0.002211654558777809
1761476346781368000,3.1713681640625,0.0021935338154435158,-0.023474030196666718,-0.0011045783758163452
1761476346791401200,3.181401123046875,0.0005062567070126534,-0.010030759498476982,-0.0017902059480547905
1761476346801434000,3.19143408203125,0.0031539713963866234,0.0036086197942495346,-0.00024930108338594437
1761476346811468000,3.201468017578125,0.004561723209917545,0.0074617210775613785,0.0007545081898570061
1761476346821501000,3.2115009765625,0.004202196374535561,0.00172527227550745,-0.0019459370523691177
1761476346831534000,3.2215341796875,0.005070230923593044,-0.004305211827158928,0.00468107033520937
1761476346841568300,3.231568359375,0.005887022241950035,-0.007499673403799534,-0.002940630540251732
1761476346851601200,3.24160107421875,0.0056473370641469955,-0.00927893165498972,-0.00130491703748703
1761476346861634000,3.251634033203125,0.005124292336404324,-0.008181975223124027,-0.0017842864617705345
1761476346871668200,3.261668212890625,0.004286198876798153,-0.006971531081944704,-0.001744275912642479
1761476346881701000,3.271701171875,0.004075010307133198,-0.0014193728566169739,-0.0005871318280696869
1761476346891734000,3.281734130859375,0.0024416418746113777,-0.005110598634928465,-0.0011054519563913345
1761476346901768200,3.291768310546875,0.001144150272011757,-0.005483175162225962,-0.002605876885354519
1761476346911801000,3.301801025390625,-0.000040762126445770264,-0.012624720111489296,-0.0038363784551620483
1761476346921834200,3.311834228515625,-0.0018724841065704823,-0.018282871693372726,-0.005141327623277903
1761476346931867100,3.3218671875,-0.0013255761004984379,-0.020165931433439255,-0.0020535923540592194
1761476346941901300,3.3319013671875,-0.0013612625189125538,-0.014132274314761162,-0.0006802007555961609
1761476346951934200,3.341934326171875,-0.00037366244941949844,-0.005648344289511442,-0.0006007058545947075
1761476346961967000,3.351967041015625,-0.0041084797121584415,0.005600848235189915,0.004883808083832264
1761476346972001000,3.3620009765625,-0.005577190779149532,0.01241554319858551,0.0022113826125860214
1761476346982034200,3.3720341796875,-0.004984904080629349,0.01621081493794918,0.0010409234091639519
1761476346992067000,3.382067138671875,-0.005165533162653446,0.011703974567353725,0.0038081565871834755
1761476347002101200,3.392101318359375,-0.00512718316167593,0.009364919736981392,0.004229201935231686
1761476347012134100,3.402134033203125,-0.004795614629983902,0.003593623638153076,0.00021481886506080627
1761476347022167300,3.412167236328125,-0.004465915262699127,-0.0005257539451122284,0.006317186169326305
1761476347032201000,3.422200927734375,-0.005925759207457304,0.0016414253041148186,-0.0008561685681343079
1761476347042234000,3.432234130859375,-0.00522481556981802,0.0043027219362556934,-0.000017005950212478638
1761476347052267000,3.44226708984375,-0.006408690940588713,0.0111351627856493,0.0004185503348708153
1761476347062301200,3.45230126953125,-0.00469521339982748,0.012594575062394142,0.0018111178651452065
1761476347072334000,3.462333984375,-0.0020535625517368317,0.012936457991600037,0.0008110925555229187
1761476347082367200,3.4723671875,-0.0034378734417259693,0.004164538346230984,0.004092640243470669
1761476347092400000,3.482400146484375,-0.0020616608671844006,-0.006746409460902214,-0.0019756359979510307
1761476347102434000,3.49243408203125,-0.0006118360906839371,-0.016902374103665352,-0.0020158495754003525
1761476347112467000,3.502467041015625,0.002723291516304016,-0.020635243505239487,0.0003158180043101311
1761476347122500000,3.5125,0.0034828251227736473,-0.023342613130807877,-0.0030890339985489845
1761476347132534000,3.522533935546875,0.004101152531802654,-0.022184299305081367,-0.003406946547329426
1761476347142567200,3.532567138671875,0.0012028347700834274,-0.01245497353374958,-0.00010009855031967163
1761476347152600000,3.54260009765625,0.004564069211483002,-0.0016306601464748383,0.0029837721958756447
1761476347162634200,3.55263427734375,0.005112413316965103,0.0077330139465630054,0.001264168880879879
1761476347172667100,3.562667236328125,0.006453526206314564,0.012210198678076267,0.000997721217572689
1761476347182700000,3.572699951171875,0.007049541920423508,0.01604754664003849,0.0029357029125094414
1761476347192734200,3.582734130859375,0.007278836332261562,0.016707172617316246,0.008609236218035221
1761476347202767000,3.59276708984375,0.005766693502664566,0.014178767800331116,0.001226954162120819
1761476347212800000,3.602800048828125,0.005516154691576958,0.009872673079371452,0.0034233173355460167
1761476347222834200,3.612834228515625,0.003496679477393627,0.005584450904279947,0.0027106553316116333
1761476347232867300,3.622867431640625,0.0035041309893131256,0.0036695629823952913,-0.002693554386496544
1761476347242900200,3.632900146484375,0.001790386624634266,0.0011544735170900822,-0.003710349090397358
1761476347252934100,3.64293408203125,0.00035020429641008377,0.0023413002490997314,-0.001646001823246479
1761476347262967000,3.652967041015625,0.00496253278106451,0.00195673992857337,-0.00011814665049314499
1761476347273000200,3.663000244140625,0.0014838604256510735,0.004777209367603064,0.0004453100264072418
1761476347283033000,3.673033203125,0.0008963672444224358,0.007078979630023241,0.0007023056969046593
1761476347293067300,3.6830673828125,-0.0009372741915285587,0.011231258511543274,0.0006827311590313911
1761476347303100200,3.69310009765625,0.001050509512424469,0.013030224479734898,0.0024785008281469345
1761476347313133300,3.70313330078125,0.0006721876561641693,0.013770097866654396,-0.00036590173840522766
1761476347323167000,3.7131669921875,-0.0015677972696721554,0.013996733352541924,0.0037308381870388985
1761476347333200100,3.7232001953125,-0.0018266034312546253,0.012887878343462944,0.0022920025512576103
1761476347343233000,3.73323291015625,-0.0012119458988308907,0.0048525892198085785,-0.0003136340528726578
1761476347353267200,3.74326708984375,-0.0015898514539003372,0.000792298000305891,-0.0024873660877346992
1761476347363300000,3.753300048828125,-0.00003829319030046463,-0.001422919798642397,0.0004991022869944572
1761476347373333200,3.763333251953125,0.001758749596774578,-0.003869191277772188,-0.0008017802610993385
1761476347383367200,3.7733671875,0.0005472777411341667,-0.00017698481678962708,0.001350853592157364
1761476347393400300,3.783400390625,0.0031211096793413162,0.004151700064539909,0.003074388951063156
1761476347403433000,3.793432861328125,0.0001383693888783455,0.010677509009838104,-0.00029344484210014343
1761476347413467100,3.803467041015625,0.006644804961979389,0.014932714402675629,0.003215385600924492
1761476347423500000,3.8135,0.003452473320066929,0.01675325073301792,0.0008140131831169128
1761476347433533200,3.823533203125,0.00025034137070178986,0.015620427206158638,-0.0029838504269719124
1761476347443567000,3.833567138671875,0.003615777939558029,0.0128073301166296,-0.0005473243072628975
1761476347453600300,3.843600341796875,0.004873579367995262,0.005049962550401688,-0.0015083793550729752
1761476347463633200,3.853633056640625,0.0039289565756917,0.005016939714550972,-0.001105177216231823
1761476347473667000,3.8636669921875,0.0048648519441485405,-0.001097747590392828,-0.0015438087284564972
1761476347483700000,3.873699951171875,0.005211861804127693,0.0011464981362223625,-0.001337680034339428
1761476347493733000,3.883733154296875,0.0017786771059036255,0.00018892204388976097,-0.0019540758803486824
1761476347503767300,3.893767333984375,0.002411976456642151,0.0018525985069572926,0.0005261255428195
1761476347513801200,3.90380126953125,-0.0017673303373157978,0.002372070914134383,-0.003736981190741062
1761476347523834000,3.913834228515625,-0.0024501648731529713,-0.0015877834521234035,-0.004786266479641199
1761476347533867000,3.923866943359375,-0.0008997181430459023,-0.0070206415839493275,-0.005137748084962368
1761476347543901000,3.93390087890625,0.0010332036763429642,-0.005945257376879454,0.0000410350039601326
1761476347553934000,3.94393408203125,-0.0012114709243178368,-0.0043405331671237946,0.0019061844795942307
1761476347563967000,3.953967041015625,-0.0015238597989082336,0.0018137656152248383,0.0007011042907834053
1761476347574001200,3.964001220703125,-0.0009089522063732147,0.0035609081387519836,-0.0011199545115232468
1761476347584034000,3.974033935546875,-0.00160270556807518,0.0037537210155278444,-0.003022250719368458
1761476347594067200,3.984067138671875,0.0015970319509506226,-0.0015356647782027721,-0.0022555943578481674
1761476347604100900,3.994100830078125,0.00008275825530290604,-0.006155450362712145,0.0013463310897350311
1761476347614133000,4.004133056640625,-0.0019212034530937672,-0.004193526692688465,-0.0009236903861165047
1761476347624166000,4.014165771484375,-0.00354866124689579,-0.000501586589962244,-0.0030097439885139465
1761476347634198800,4.02419873046875,-0.0047646560706198215,0.0046815285459160805,-0.0007163742557168007
1761476347644233000,4.03423291015625,-0.002245039213448763,0.0075391000136733055,-0.0003949301317334175
1761476347654266000,4.04426611328125,-0.0018571838736534119,0.005943164695054293,-0.0017560562118887901
1761476347664299000,4.054299072265625,0.0010523190721869469,0.0024139434099197388,-0.0010559111833572388
1761476347674333200,4.064333251953125,0.0041814809665083885,-0.003946567885577679,-0.003200356848537922
1761476347684366000,4.074365966796875,0.005080032162368298,-0.009153313934803009,-0.004090918228030205
1761476347694399200,4.084399169921875,0.002779856324195862,-0.010475078597664833,-0.0029844380915164948
1761476347704433000,4.094432861328125,0.005365252494812012,-0.010414091870188713,-0.0001340564340353012
1761476347714466000,4.104466064453125,0.001256749965250492,-0.0104170311242342,0.002239939756691456
1761476347724499000,4.1144990234375,0.0011584796011447906,-0.010577354580163956,-0.0011899452656507492
1761476347734533000,4.124533203125,0.002233702689409256,-0.007071629632264376,-0.0010046539828181267
1761476347744566000,4.13456591796875,0.0026992233470082283,-0.008493490517139435,-0.0010616462677717209
1761476347754599200,4.14459912109375,0.0020021628588438034,-0.00874197669327259,0.0021782973781228065
1761476347764632800,4.1546328125,0.0012546135112643242,-0.010497532784938812,-0.0025520091876387596
1761476347774666000,4.164666015625,0.006911919452250004,-0.010602472350001335,0.002043594606220722
1761476347784699000,4.174698974609375,0.002931559458374977,-0.013357512652873993,-0.005216980818659067
1761476347794733000,4.184733154296875,0.004791242070496082,-0.014661166816949844,-0.011645380407571793
1761476347804766000,4.194765869140625,0.0025392724201083183,-0.006515088491141796,-0.009090077131986618
1761476347814799000,4.204799072265625,0.002268204465508461,0.012773888185620308,0.0059420159086585045
1761476347824832000,4.21483203125,-0.0015068263746798038,0.03793276846408844,0.01676430180668831
1761476347834866000,4.224865966796875,-0.0037712575867772102,0.047733061015605927,0.012778216041624546
1761476347844898800,4.23489892578125,-0.000589046161621809,0.03680664300918579,0.0004786727949976921
1761476347854933000,4.24493310546875,0.002350224182009697,0.0028530398849397898,-0.008351502008736134
1761476347864966000,4.2549658203125,0.003963833674788475,-0.02799701690673828,-0.0038683367893099785
1761476347874999000,4.2649990234375,0.0017380742356181145,-0.041004449129104614,-0.0020267628133296967
1761476347885032000,4.275031982421875,0.000013144686818122864,-0.03464988246560097,-0.00017346907407045364
1761476347895066000,4.285066162109375,-0.001311768777668476,-0.012599627487361431,-0.003903362900018692
1761476347905099000,4.29509912109375,-0.001614570152014494,0.011902254074811935,-0.001026616431772709
1761476347915132200,4.305132080078125,-0.005413679406046867,0.024879593402147293,-0.0025134561583399773
1761476347925165800,4.315165771484375,-0.004802484065294266,0.026680689305067062,0.0006583686918020248
1761476347935199000,4.325198974609375,-0.005158756859600544,0.016922760754823685,0.004416815936565399
1761476347945232000,4.33523193359375,-0.003623977303504944,0.0034791240468621254,-0.00017340760678052902
1761476347955266000,4.34526611328125,-0.0006832573562860489,-0.0039421492256224155,0.00006407219916582108
1761476347965299000,4.355298828125,-0.000407353974878788,-0.006755512673407793,-0.0003854697570204735
1761476347975332000,4.36533203125,0.0026054801419377327,-0.0057400488294661045,-0.0004437929019331932
1761476347985366000,4.375365966796875,0.0048561180010437965,-0.003498998936265707,-0.0006730910390615463
1761476347995399000,4.38539892578125,0.004124704748392105,-0.002346358262002468,-0.0006078397855162621
1761476348005431800,4.395431884765625,0.0029537128284573555,0.0012595620937645435,-0.0009505879133939743
1761476348015466000,4.405466064453125,0.0014924397692084312,0.002406354993581772,0.0010865246877074242
1761476348025499100,4.4154990234375,-0.0002737687900662422,0.005270850844681263,-0.0024794479832053185
1761476348035532000,4.425531982421875,-0.0006194026209414005,0.003642603987827897,-0.0011692270636558533
1761476348045566200,4.435566162109375,-0.001013017725199461,0.0017791902646422386,0.0006214827299118042
1761476348055598800,4.445598876953125,-0.00006844848394393921,0.001239778008311987,-0.005005909129977226
1761476348065632000,4.455632080078125,-0.0016823243349790573,-0.002595440484583378,-0.0026351632550358772
1761476348075665000,4.465664794921875,0.0025840122252702713,-0.003425060771405697,-0.0018455404788255692
1761476348085699000,4.475698974609375,0.0019773440435528755,-0.0015390096232295036,-0.002938767895102501
1761476348095732000,4.48573193359375,0.002414153888821602,-0.0018252148292958736,0.0008978499099612236
1761476348105765000,4.49576513671875,0.004131093621253967,-0.002014832105487585,-0.00036848336458206177
1761476348115799000,4.505799072265625,0.006040782667696476,-0.005010290537029505,-0.0018843496218323708
1761476348125832200,4.515832275390625,0.002789861522614956,-0.007995162159204483,-0.00042626913636922836
1761476348135865000,4.525864990234375,0.0009732739999890327,-0.007770433556288481,-0.002114182338118553
1761476348145899000,4.53589892578125,0.0009993724524974823,-0.00707375118508935,-0.0010555759072303772
1761476348155932000,4.545931884765625,-0.0016701798886060715,-0.00005232682451605797,-0.0004771379753947258
1761476348165965000,4.555965087890625,-0.002659011632204056,0.00286995992064476,0.00133407860994339
1761476348175999000,4.5659990234375,-0.00039448030292987823,0.007296709343791008,0.0013133073225617409
1761476348186032000,4.5760322265625,0.0002902187407016754,0.005796816665679216,-0.001598060131072998
1761476348196065000,4.58606494140625,-0.0012176483869552612,0.004922921769320965,-0.0000965828076004982
1761476348206100000,4.596099853515625,0.00161781907081604,-0.0004473426379263401,0.000029651448130607605
1761476348216133000,4.606133056640625,0.0021669482812285423,-0.007200740743428469,-0.00036794599145650864
1761476348226166000,4.616166015625,-0.0010067406110465527,-0.005720822606235743,-0.0027666548267006874
1761476348236200200,4.6262001953125,-0.0023160907439887524,-0.003472650423645973,-0.001309005543589592
1761476348246233000,4.636233154296875,-0.001964553724974394,0.00031170109286904335,0.0007879678159952164
1761476348256266200,4.646266357421875,0.0004527270793914795,0.0012357430532574654,-0.000013344921171665192
1761476348266300000,4.6562998046875,-0.0005201254971325397,0.002898354781791568,0.0001168837770819664
1761476348276333000,4.6663330078125,-0.0010064104571938515,0.004040396772325039,0.00048692338168621063
1761476348286366000,4.676365966796875,0.0019457032904028893,0.007410094607621431,0.002944489009678364
1761476348296400100,4.686400146484375,0.002336702309548855,0.009752655401825905,0.0013290205970406532
1761476348306433000,4.69643310546875,0.0014858227223157883,0.010967589914798737,0.0019506020471453667
1761476348316466200,4.706466064453125,0.0026323171332478523,0.007343599107116461,0.000613226555287838
1761476348326499800,4.716499755859375,-0.00032858550548553467,0.004026898182928562,0.0012619728222489357
1761476348336533000,4.726532958984375,-0.002544343937188387,-0.007875647395849228,0.0035732006654143333
1761476348346566000,4.73656591796875,-0.0010425872169435024,-0.013086121529340744,0.0043015750125050545
1761476348356600000,4.74660009765625,-0.0032905531115829945,-0.015545736998319626,0.0023450804874300957
1761476348366633000,4.756633056640625,-0.0011203433386981487,-0.01521231047809124,-0.0019380813464522362
1761476348376666000,4.766666015625,-0.0007750950753688812,-0.008147310465574265,0.0016011279076337814
1761476348386700000,4.776699951171875,0.0016110977157950401,-0.0041693467646837234,0.004034725017845631
1761476348396733000,4.78673291015625,-0.001901550218462944,0.005123686511069536,0.003077578730881214
1761476348406765800,4.796765869140625,-0.000501526053994894,0.005769503302872181,0.0021233679726719856
1761476348416799000,4.806799072265625,0.00008255243301391602,0.007725107949227095,-0.0028143934905529022
1761476348426833000,4.8168330078125,-0.0015382473357021809,0.008396225050091743,-0.0000191396102309227
1761476348436866000,4.826865966796875,0.0007189968600869179,0.005102343857288361,0.0001949099823832512
1761476348446899000,4.83689892578125,0.002038327045738697,0.007351383101195097,0.001824231818318367
1761476348456933000,4.84693310546875,-0.00042157992720603943,0.007585863582789898,0.004698179662227631
1761476348466966000,4.856966064453125,0.0027342652902007103,0.01189965195953846,0.00001607649028301239
1761476348476999200,4.866999267578125,0.0024774856865406036,0.007846768945455551,0.004282393492758274
1761476348487032800,4.87703271484375,0.0019043730571866035,0.004448309075087309,0.0020634466782212257
1761476348497066000,4.88706591796875,0.002917541190981865,0.0011626682244241238,-0.00001235026866197586
1761476348507099000,4.897098876953125,0.0032048970460891724,-0.006378871388733387,-0.0006352635100483894
1761476348517136400,4.907136474609375,-0.0008121640421450138,-0.0037907282821834087,-0.0016661044210195541
1761476348527169300,4.917169189453125,0.002364187501370907,-0.00023407628759741783,0.000872420147061348
1761476348537202400,4.927202392578125,0.0023624803870916367,0.0057138483971357346,0.0013712327927350998
1761476348547236000,4.937236083984375,0.001641562208533287,0.01362610049545765,0.0008553778752684593
1761476348557269200,4.947269287109375,-0.0021397913806140423,0.013713458552956581,-0.00048434268683195114
1761476348567302100,4.95730224609375,-0.0007741223089396954,0.008090460672974586,0.0009811948984861374
1761476348577336300,4.96733642578125,-0.0016754460521042347,0.004824650939553976,0.0013116970658302307
1761476348587369200,4.977369140625,-0.00013347528874874115,0.0005239122547209263,-0.001647341065108776
1761476348597402400,4.98740234375,-0.0011709872633218765,-0.006666768807917833,0.0007491027936339378
1761476348607436300,4.997436279296875,0.00009987317025661469,-0.011490019038319588,-0.0019196514040231705
1761476348617469200,5.00746923828125,-0.0015210839919745922,-0.009874536655843258,-0.00045432429760694504
1761476348627502000,5.017502197265625,-0.0012875250540673733,-0.005995643325150013,-0.0006679100915789604
1761476348637535200,5.02753515625,-0.0010373168624937534,-0.0027577076107263565,-0.002866188995540142
1761476348647569200,5.037569091796875,-0.0007813870906829834,0.0023017656058073044,0.0005631633102893829
1761476348657602300,5.047602294921875,-0.0019815508276224136,0.006693148519843817,0.00030715763568878174
1761476348667635200,5.05763525390625,0.0008067786693572998,0.006896081380546093,0.0021782945841550827
1761476348677669400,5.06766943359375,0.0007866956293582916,0.008403720334172249,0.0020339544862508774
1761476348687702300,5.077702392578125,-0.00011744722723960876,0.012002982199192047,0.002061917446553707
1761476348697735400,5.0877353515625,-0.002147055696696043,0.008152730762958527,-0.0009183529764413834
1761476348707769000,5.09776904296875,-0.0033816974610090256,0.0026365250814706087,-0.002890956588089466
1761476348717802200,5.10780224609375,-0.00019463710486888885,0.00006723077967762947,-0.0041209375485777855
1761476348727835100,5.117835205078125,-0.0009584315121173859,-0.00546388840302825,-0.0009965170174837112
1761476348737869300,5.127869384765625,-0.0009592915885150433,-0.0053191776387393475,-0.001591934822499752
1761476348747902200,5.137902099609375,0.00036136992275714874,-0.004913311917334795,-0.00018179044127464294
1761476348757935400,5.147935302734375,0.0009382329881191254,-0.0026683341711759567,0.0009125592187047005
1761476348767969300,5.15796923828125,0.0016314536333084106,-0.004720832221210003,0.0011325366795063019
1761476348778002200,5.168002197265625,0.001200326718389988,-0.0030750329606235027,-0.00020555779337882996
1761476348788035000,5.17803515625,-0.002229025587439537,-0.00393017427995801,0.0014458680525422096
1761476348798069200,5.1880693359375,0.0015776464715600014,-0.0018940037116408348,0.001010640524327755
1761476348808102400,5.198102294921875,-0.001005619764328003,0.004157231189310551,0.002328372560441494
1761476348818135300,5.20813525390625,-0.0014311880804598331,0.007434024475514889,0.0043492428958415985
1761476348828168200,5.218168212890625,-0.00036299414932727814,0.01060505025088787,0.001158243976533413
1761476348838202000,5.2282021484375,-0.0017531691119074821,0.004900252912193537,-0.0005869902670383453
1761476348848235300,5.2382353515625,0.00027189869433641434,-0.0013421964831650257,0.0015991991385817528
1761476348858268200,5.24826806640625,0.000009582377970218658,-0.008607526309788227,0.00003172643482685089
1761476348868302300,5.25830224609375,0.0021614162251353264,-0.007555844262242317,0.0025766436010599136
1761476348878335200,5.268335205078125,0.0022918088361620903,-0.0013031745329499245,0.003251084126532078
1761476348888368400,5.278368408203125,0.0021543893963098526,0.003210616996511817,0.00021747685968875885
1761476348898402300,5.28840234375,0.0002547530457377434,0.006937938742339611,-0.00021881051361560822
1761476348908435500,5.298435546875,0.001925087533891201,0.009116670116782188,-0.0015384070575237274
1761476348918468400,5.30846826171875,0.0018338318914175034,0.006486349273473024,-0.002379964105784893
1761476348928502300,5.318502197265625,0.001837293617427349,0.004923339933156967,-0.003977327607572079
1761476348938535200,5.32853515625,0.0005032224580645561,-0.00246332585811615,0.00300754327327013
1761476348948568300,5.338568359375,0.00030987709760665894,-0.006717725656926632,0.0012288186699151993
1761476348958602200,5.348602294921875,-0.0030354727059602737,-0.008265005424618721,0.0037708673626184464
1761476348968635400,5.358635498046875,-0.0002186475321650505,-0.01619643159210682,0.0009700208902359009
1761476348978668300,5.368668212890625,-0.002284263726323843,-0.015102114528417587,-0.004123867489397526
1761476348988701400,5.378701416015625,-0.0012994264252483845,-0.019072888419032097,-0.0012540454044938087
1761476348998735000,5.388735107421875,-0.00021545961499214172,-0.017342735081911087,-0.0008554365485906601
1761476349008768300,5.398768310546875,-0.0010735304094851017,-0.017447130754590034,0.0036740684881806374
1761476349018801200,5.40880126953125,-0.0006620637141168118,-0.006653792690485716,0.004253698512911797
1761476349028835300,5.41883544921875,-0.0007960204966366291,0.002633981639519334,0.0012187603861093521
1761476349038868200,5.4288681640625,-0.0007956940680742264,0.013111583888530731,-0.00020630843937397003
1761476349048901400,5.4389013671875,0.0026626866310834885,0.015764623880386353,0.0016200868412852287
1761476349058935000,5.44893505859375,-0.004057594109326601,0.015164952725172043,0.0004520360380411148
1761476349068968200,5.45896826171875,-0.004315121565014124,0.010806957259774208,0.0025277044624090195
1761476349079001000,5.4690009765625,0.0019494285807013512,0.005137580446898937,0.0012788847088813782
1761476349089035300,5.47903515625,0.0003195740282535553,-0.003360033966600895,-0.00022553466260433197
1761476349099068200,5.489068115234375,0.0012845881283283234,-0.004544892814010382,0.0001648208126425743
1761476349109101300,5.499101318359375,0.000003341585397720337,-0.005055687855929136,-0.000829603523015976
1761476349119135200,5.50913525390625,0.002085592597723007,-0.0028463173657655716,0.0005993759259581566
1761476349129168400,5.51916845703125,-0.0016739917919039726,-0.004529967904090881,-0.0016278252005577087
1761476349139201300,5.529201171875,0.001436765305697918,-0.0009871972724795341,-0.0014969920739531517
1761476349149234200,5.539234130859375,0.0008862903341650963,0.001402457244694233,-0.0017073815688490868
1761476349159268000,5.54926806640625,0.001827235333621502,0.003635333850979805,0.0016378816217184067
1761476349169301200,5.55930126953125,-0.0017565805464982986,0.008879630826413631,0.0009377365931868553
1761476349179334100,5.569334228515625,-0.00022317469120025635,0.009855941869318485,0.00046455301344394684
1761476349189368300,5.579368408203125,-0.001108942087739706,0.006272125989198685,0.0009330036118626595
1761476349199401200,5.589401123046875,0.00012036971747875214,0.007073432207107544,-0.0013869395479559898
1761476349209434400,5.599434326171875,0.0037864772602915764,0.0022445886861532927,0.0017936741933226585
1761476349219468300,5.60946826171875,-0.0008216006681323051,-0.0007483526133000851,0.0007578404620289803
1761476349229501200,5.619501220703125,-0.00021599791944026947,-0.0034088511019945145,-0.0009686872363090515
1761476349239534000,5.6295341796875,-0.002272434998303652,-0.009952647611498833,-0.000982135534286499
1761476349249568300,5.639568359375,-0.000007416121661663055,-0.012393167242407799,-0.0019605811685323715
1761476349259601400,5.649601318359375,0.000184500589966774,-0.01012800820171833,-0.0015369439497590065
1761476349269634300,5.65963427734375,0.0006492221727967262,-0.004996363539248705,-0.002085021696984768
1761476349279668200,5.669668212890625,0.001914692111313343,0.001870129257440567,-0.001895667053759098
1761476349289701000,5.679701171875,0.0010696714743971825,0.007750655058771372,0.0001533692702651024
1761476349299734300,5.689734375,-0.0012754583731293678,0.011744147166609764,-0.0012774812057614326
1761476349309768200,5.699768310546875,0.0008348310366272926,0.010670360177755356,-0.001129409298300743
1761476349319801300,5.70980126953125,0.0019181538373231888,0.0070145572535693645,0.002135293558239937
1761476349329834200,5.719834228515625,0.0009389100596308708,0.005198281724005938,-0.002468779683113098
1761476349339867400,5.729867431640625,0.0023320643231272697,-0.0002208617515861988,0.0003023715689778328
1761476349349901300,5.7399013671875,0.0018572229892015457,-0.005958642344921827,-0.0005112243816256523
1761476349359934200,5.749934326171875,0.0007952600717544556,-0.0021471879445016384,-0.0025126542896032333
1761476349369967000,5.759967041015625,0.0018991408869624138,-0.005399706307798624,-0.002957935445010662
1761476349380001300,5.770001220703125,0.0016942871734499931,-0.0027625011280179024,-0.0030579371377825737
1761476349390034200,5.7800341796875,0.0016708513721823692,-0.0020767375826835632,-0.0018520578742027283
1761476349400067300,5.7900673828125,0.0005352897569537163,-0.0007069925777614117,-0.0010188901796936989
1761476349410101200,5.800101318359375,-0.0011422350071370602,0.005231856368482113,-0.0008934559300541878
1761476349420134400,5.810134521484375,0.00046572647988796234,0.006463978905230761,0.0014100456610321999
1761476349430167300,5.820167236328125,-0.000980369746685028,0.00740647129714489,0.0011916663497686386
1761476349440201200,5.830201171875,-0.0016555828042328358,0.0037761502899229527,0.0006189504638314247
1761476349450234000,5.840234130859375,-0.0004441104829311371,-0.002843402326107025,-0.001309976913034916
1761476349460267300,5.850267333984375,-0.0019430634565651417,-0.011357361450791359,-0.0012364024296402931
1761476349470300200,5.860300048828125,-0.0025377473793923855,-0.008277416229248047,-0.0011479854583740234
1761476349480334300,5.870334228515625,-0.0014886935241520405,-0.006989255081862211,0.0016743596643209457
1761476349490367200,5.8803671875,-0.004189937375485897,-0.001443488523364067,0.00100643839687109
1761476349500400400,5.890400390625,-0.002031381241977215,0.004695533774793148,0.0003965124487876892
1761476349510434000,5.90043408203125,0.000027774833142757416,0.005550941452383995,-0.0006373273208737373
1761476349520463000,5.910463134765625,-0.0009121382609009743,0.004108535125851631,0.0011004526168107986
1761476349530496300,5.920496337890625,0.0032868683338165283,0.003183619352057576,0.00240433681756258
1761476349540530200,5.9305302734375,0.002892150543630123,0.003202536841854453,0.0012803450226783752
1761476349550563300,5.940563232421875,0.0023163752630352974,0.00781246880069375,0.00037140771746635437
1761476349560596200,5.95059619140625,0.0019657984375953674,0.011270113289356232,0.0020545916631817818
1761476349570630400,5.96063037109375,0.0030435798689723015,0.01571705937385559,0.0003424454480409622
1761476349580663300,5.970663330078125,0.0008164979517459869,0.011489053256809711,-0.0012367358431220055
1761476349590696400,5.980696533203125,-0.0015502534806728363,-0.002602531109005213,0.0018738368526101112
1761476349600730000,5.990730224609375,-0.002659332938492298,-0.01500583067536354,0.0012529855594038963
1761476349610763300,6.00076318359375,-0.0018505309708416462,-0.027871297672390938,-0.0012495862320065498
1761476349620796200,6.010796142578125,-0.002163523808121681,-0.026010526344180107,-0.002928241156041622
1761476349630829300,6.020829345703125,0.0011321380734443665,-0.02230260707437992,-0.003603086806833744
1761476349640863200,6.03086328125,0.0009523360058665276,-0.011806555092334747,-0.0002548936754465103
1761476349650896400,6.040896484375,0.00002688821405172348,-0.0031020138412714005,0.003949970938265324
1761476349660929300,6.05092919921875,-0.0007725381292402744,0.007506545167416334,0.00278310663998127
1761476349670963200,6.060963134765625,-0.0010417834855616093,0.010760661214590073,0.002970060333609581
1761476349680996000,6.07099609375,0.000956331379711628,0.013352060690522194,-0.0016389386728405952
1761476349691029200,6.081029296875,-0.0004048105329275131,0.012618626467883587,0.00018292944878339767
1761476349701063200,6.091063232421875,-0.000008206814527511597,0.0076663740910589695,0.0006699515506625175
1761476349711096300,6.101096435546875,0.0005689002573490143,0.010467220097780228,0.0023735761642456055
1761476349721129200,6.111129150390625,0.00026560667902231216,0.00802190788090229,0.00029597990214824677
1761476349731163100,6.1211630859375,0.0002059517428278923,0.005719871260225773,-0.0008784737437963486
1761476349741196000,6.131196044921875,-0.0000235680490732193,0.004015220329165459,0.0022723115980625153
1761476349751229200,6.141229248046875,0.004346146248281002,-0.0014961916022002697,-0.0004766033962368965
1761476349761262000,6.151261962890625,-0.00039495714008808136,-0.003465002402663231,-0.0006988430395722389
1761476349771296300,6.161296142578125,0.0020942995324730873,-0.004125999286770821,-0.0006679501384496689
1761476349781329200,6.1713291015625,0.0019522802904248238,-0.004731853026896715,-0.0025285035371780396
1761476349791362300,6.1813623046875,0.002387973479926586,-0.0007634763605892658,-0.0020280955359339714
1761476349801396500,6.191396484375,0.0025390423834323883,0.005574790760874748,-0.002993755042552948
1761476349811429400,6.201429443359375,0.0021741893142461777,0.008931439369916916,-0.002721846103668213
1761476349821462300,6.211462158203125,0.00167782511562109,0.00952140986919403,0.0031576817855238914
1761476349831496200,6.22149609375,-0.00236698379740119,0.011683364398777485,0.00043406710028648376
1761476349841529300,6.231529296875,-0.0009747589938342571,0.009953116998076439,-0.0004347311332821846
1761476349851562200,6.241562255859375,0.0012282077223062515,0.005919493734836578,-0.0014448678120970726
1761476349861595100,6.25159521484375,-0.0007207291200757027,0.000020868610590696335,-0.0017569176852703094
1761476349871629300,6.26162939453125,-0.0012831888161599636,-0.009424031712114811,-0.0016871429979801178
1761476349881662500,6.271662353515625,0.0010212389752268791,-0.014127485454082489,-0.0005971789360046387
1761476349891695400,6.2816953125,-0.0017162240110337734,-0.010433414950966835,0.00013012997806072235
1761476349901729300,6.291729248046875,0.0017772391438484192,-0.007598164025694132,-0.0020387573167681694
1761476349911762200,6.30176220703125,0.0013761669397354126,-0.00481968792155385,-0.0018179817125201225
1761476349921795300,6.31179541015625,0.002778005786240101,0.0036914304364472628,-0.0014651771634817123
1761476349931829200,6.321829345703125,0.0016312487423419952,0.006304790265858173,-0.0009072441607713699
1761476349941862400,6.3318623046875,0.0010647941380739212,0.010137612000107765,0.0007457798346877098
1761476349951895300,6.341895263671875,0.0028397906571626663,0.009069683961570263,-0.0019996734336018562
1761476349961928400,6.351928466796875,0.0010867277160286903,0.0030638796743005514,-0.0023569418117403984
1761476349971962000,6.361962158203125,0.0017437301576137543,0.0024177967570722103,-0.0014125844463706017
1761476349981995300,6.371995361328125,-0.0006532194092869759,-0.002430158667266369,-0.0030783256515860558
1761476349992028200,6.382028076171875,-0.0017214133404195309,-0.007347153499722481,-0.004148916341364384
1761476350002062300,6.392062255859375,-0.00046588480472564697,-0.0076446435414254665,-0.0020777713507413864
1761476350012095200,6.40209521484375,-0.002013181336224079,-0.00870618037879467,-0.0011597797274589539
1761476350022128400,6.41212841796875,0.000016337260603904724,-0.008383361622691154,-0.0025592856109142303
1761476350032162300,6.422162353515625,-0.003187977708876133,-0.007703722454607487,-0.0008972072973847389
1761476350042195200,6.4321953125,-0.0006718710064888,-0.010372286662459373,-0.001752675510942936
1761476350052228000,6.44222802734375,0.002032569609582424,-0.008316593244671822,-0.0010796952992677689
1761476350062261200,6.45226123046875,0.0005952510982751846,-0.008114509284496307,-0.001521322876214981
1761476350072295200,6.462295166015625,0.0006288066506385803,0.0010387757793068886,-0.0002446025609970093
1761476350082328300,6.472328369140625,-0.0028177155181765556,0.007961622439324856,0.00490027479827404
1761476350092361200,6.482361328125,-0.0027846922166645527,0.012997660785913467,0.000169435515999794
1761476350102395400,6.4923955078125,-0.0036338241770863533,0.007992791943252087,-0.003948620520532131
1761476350112428300,6.50242822265625,-0.0034388811327517033,0.0015806988812983036,-0.0032082609832286835
1761476350122461400,6.51246142578125,-0.0021901391446590424,-0.00818742997944355,-0.0018216520547866821
1761476350132494300,6.522494384765625,-0.0007807943038642406,-0.012022115290164948,-0.0006288215517997742
1761476350142528300,6.5325283203125,0.00037891045212745667,-0.011899681761860847,-0.0011347327381372452
1761476350152561200,6.54256103515625,0.002870829775929451,-0.01010471023619175,-0.003018653020262718
1761476350162594300,6.55259423828125,0.001609383150935173,-0.007128607016056776,-0.004718713462352753
1761476350172628200,6.562628173828125,0.004475210793316364,-0.006816484499722719,-0.0017207935452461243
1761476350182661400,6.572661376953125,0.002917783334851265,-0.0043685585260391235,-0.003058839589357376
1761476350192694300,6.5826943359375,0.0024280287325382233,0.00009782891720533371,0.0014634737744927406
1761476350202727400,6.5927275390625,0.003752562217414379,0.004693781957030296,0.003984382376074791
1761476350212761000,6.602760986328125,0.002055330201983452,0.005706315394490957,0.0004527643322944641
1761476350222794200,6.612794189453125,-0.0004780828021466732,0.004727288149297237,0.00012022722512483597
1761476350232827100,6.6228271484375,-0.00017714593559503555,0.0028974299784749746,-0.00033304281532764435
1761476350242861300,6.632861328125,9.220093488693237e-8,0.001706557348370552,-0.0015550078824162483
1761476350252894200,6.642894287109375,0.0014001158997416496,0.0008404972031712532,-0.0011992091313004494
1761476350262927400,6.65292724609375,-0.0015141102485358715,-0.0038924277760088444,-0.003067181445658207
1761476350272960300,6.662960205078125,-0.0003540376201272011,-0.010011572390794754,-0.00017312448471784592
1761476350282994200,6.672994140625,0.0005350168794393539,-0.01467275619506836,0.0010025138035416603
1761476350293027000,6.683027099609375,-0.002866372000426054,-0.02165822684764862,0.0020017316564917564
1761476350303060200,6.693060302734375,-0.005014088004827499,-0.020411696285009384,-0.0007769512012600899
1761476350313094100,6.70309423828125,-0.005720091983675957,-0.018312061205506325,-0.0035839229822158813
1761476350323127300,6.713127197265625,-0.003968375269323587,-0.013022872619330883,0.0008220300078392029
1761476350333160200,6.72316015625,-0.0047151255421340466,-0.002666904591023922,0.001315513625741005
1761476350343193300,6.733193359375,-0.00243848143145442,0.0015287571586668491,0.0017510876059532166
1761476350353227300,6.743227294921875,-0.001964971423149109,0.00488647073507309,0.0024613523855805397
1761476350363260200,6.75326025390625,-0.0033871959894895554,0.0040243761613965034,0.001572546549141407
1761476350373293000,6.76329296875,-0.0019586761482059956,0.004689101129770279,-0.0018133968114852905
1761476350383326200,6.773326171875,0.0018146391957998276,0.006371426861733198,0.0012348461896181107
1761476350393360400,6.7833603515625,0.0002489667385816574,0.006677158176898956,0.0033462001010775566
1761476350403393300,6.793393310546875,-0.0007249698974192142,0.009203474037349224,-0.0017810817807912827
1761476350413426200,6.80342626953125,0.0005661305040121078,0.008820245042443275,0.0018671825528144836
1761476350423460400,6.81346044921875,0.00025040097534656525,0.005668820347636938,0.0019093547016382217
1761476350433493200,6.8234931640625,0.0011183256283402443,-0.0005706995725631714,0.0010909652337431908
1761476350443526100,6.833526123046875,0.002600589767098427,-0.009551388211548328,-0.0003957552835345268
1761476350453559000,6.84355908203125,0.0009544901549816132,-0.01730171963572502,-0.003628300502896309
1761476350463593200,6.85359326171875,0.002039586193859577,-0.008495813235640526,-0.0034606894478201866
1761476350473626400,6.86362646484375,0.0019229399040341377,0.00018742354586720467,0.00012925174087285995
1761476350483659300,6.8736591796875,0.004579695872962475,0.010478086769580841,0.001035977154970169
1761476350493693400,6.883693359375,0.0014803092926740646,0.02111395262181759,0.0011853799223899841
1761476350503726300,6.893726318359375,-0.000344238243997097,0.02018764615058899,0.0038814805448055267
1761476350513759500,6.903759521484375,-0.0019751577638089657,0.012766215950250626,0.0016012825071811676
1761476350523792600,6.913792724609375,0.0004580635577440262,0.004815828986465931,0.0012759808450937271
1761476350533826600,6.92382666015625,0.0014692656695842743,-0.006105794571340084,-0.0017320597544312477
1761476350543859700,6.933859619140625,-0.0005933032371103764,-0.011377600952982903,0.0011318940669298172
1761476350553892600,6.943892578125,-0.001505435910075903,-0.009359456598758698,0.000055977143347263336
1761476350563925800,6.95392578125,-0.0016517308540642262,-0.005852748639881611,0.0019509699195623398
1761476350573959700,6.963959716796875,-0.0010937987826764584,-0.0026138117536902428,0.001743510365486145
1761476350583992800,6.973992919921875,-0.0008642789907753468,0.0032352174166589975,0.0005777860060334206
1761476350594025700,6.984025634765625,0.0008864831179380417,0.004858946427702904,-0.0010949457064270973
1761476350604059600,6.9940595703125,0.0019467007368803024,0.0036349089350551367,0.0014045871794223785
1761476350614092500,7.004092529296875,-0.0001153852790594101,0.007937511429190636,0.006913069635629654
1761476350624125700,7.014125732421875,0.0023076729848980904,0.009230085648596287,-0.0005729980766773224
1761476350634158600,7.02415869140625,-0.0007134173065423965,0.012499649077653885,0.002901894971728325
1761476350644192800,7.03419287109375,0.0004912493750452995,0.01357476506382227,0.002646513283252716
1761476350654225700,7.0442255859375,-0.001157513353973627,0.004819090478122234,-0.0012638065963983536
1761476350664258800,7.0542587890625,0.00043149571865797043,-0.004982492420822382,-0.0035447999835014343
1761476350674291700,7.064291748046875,-0.00020286906510591507,-0.01626737229526043,-0.003030010499060154
1761476350684325600,7.07432568359375,-0.00022368691861629486,-0.02094433084130287,-0.003124806098639965
1761476350694358500,7.084358642578125,0.0007108161225914955,-0.015129584819078445,-0.0003077145665884018
1761476350704391700,7.0943916015625,0.0007600719109177589,-0.0050494675524532795,-0.00031319353729486465
1761476350714424600,7.104424560546875,-0.0006953449919819832,0.00432006549090147,-0.0008389009162783623
1761476350724458800,7.114458740234375,0.000797557644546032,0.00796808023005724,0.0005858130753040314
1761476350734491600,7.12449169921875,0.001338978298008442,0.005689745768904686,-0.000698896124958992
1761476350744524800,7.13452490234375,0.0030248016119003296,-0.00018352223560214043,0.00017973501235246658
1761476350754557700,7.1445576171875,0.0026628775522112846,-0.0032006176188588142,0.0038607558235526085
1761476350764591600,7.154591552734375,-0.001259730663150549,-0.003270793706178665,-0.0020625609904527664
1761476350774624500,7.16462451171875,-0.0003457339480519295,0.00042354315519332886,0.0032397927716374397
1761476350784657700,7.17465771484375,-0.002518586814403534,0.0050652348436415195,0.00054902583360672
1761476350794691600,7.184691650390625,-0.004722618497908115,0.004898254759609699,0.002117360942065716
1761476350804724700,7.194724853515625,-0.0023486167192459106,0.0025923564098775387,-0.0007754890248179436
1761476350814757600,7.204757568359375,-0.006269322242587805,-0.0021824249997735023,-0.00021808966994285583
1761476350824790800,7.214790771484375,-0.0005223657935857773,-0.01044434867799282,-0.0010399222373962402
1761476350834824400,7.224824462890625,0.002584477886557579,-0.011861417442560196,0.004755115136504173
1761476350844857600,7.234857666015625,0.00134941004216671,-0.007284112274646759,0.0036547640338540077
1761476350854890500,7.244890380859375,-0.003006456419825554,0.0056356810964643955,0.0011066514998674393
1761476350864923600,7.254923583984375,-0.003399807959794998,0.00931251049041748,-0.0026709120720624924
1761476350874957600,7.26495751953125,0.0008881473913788795,0.005061573348939419,-0.004536190535873175
1761476350884990700,7.27499072265625,0.0027166958898305893,0.002091082278639078,0.00067850761115551
1761476350895023600,7.285023681640625,-0.0001730993390083313,-0.0017731646075844765,0.002988000400364399
1761476350905056800,7.295056884765625,0.0011299438774585724,0.001457184087485075,-0.0014163870364427567
1761476350915090700,7.305090576171875,0.006086885929107666,0.002515790518373251,-0.003484065644443035
1761476350925123600,7.31512353515625,0.0054781474173069,0.0047668274492025375,-0.0008279532194137573
1761476350935156500,7.325156494140625,0.0079197334125638,-0.001998933032155037,0.004375863820314407
1761476350945189600,7.335189697265625,-0.0003839610144495964,-0.012800914235413074,0.006398853845894337
1761476350955223600,7.3452236328125,-0.004413057118654251,-0.018623914569616318,0.006204974837601185
1761476350965256700,7.355256591796875,-0.00549600413069129,-0.020995019003748894,0.0006068069487810135
1761476350975289600,7.36528955078125,-0.002005931455641985,-0.0162735003978014,-0.0019253268837928772
1761476350985322800,7.37532275390625,-0.003529236651957035,-0.007014680653810501,-0.003037898801267147
1761476350995356700,7.385356689453125,-0.0033089928328990936,0.001437659841030836,-0.0003891186788678169
1761476351005389600,7.3953896484375,-0.003344882745295763,0.0057085189037024975,0.0007464690133929253
1761476351015422500,7.40542236328125,-0.001464691013097763,0.0070054782554507256,-0.00043464265763759613
1761476351025455600,7.41545556640625,-0.002876371145248413,0.0031951619312167168,-0.0001660529524087906
1761476351035489500,7.425489501953125,-0.0023099170066416264,0.0022108578123152256,0.001632380299270153
1761476351045522700,7.435522705078125,0.0001706928014755249,-0.000410307664424181,0.0011227577924728394
1761476351055555600,7.4455556640625,0.0010777655988931656,0.0031522030476480722,0.0024301037192344666
1761476351065588700,7.455588623046875,0.0004410259425640106,0.012713024392724037,0.0022933129221200943
1761476351075622700,7.46562255859375,0.0003858990967273712,0.01182539202272892,0.003205445595085621
1761476351085655800,7.47565576171875,-0.0009014126844704151,0.01228366605937481,0.0027428660541772842
1761476351095688700,7.485688720703125,0.0003614583984017372,0.00726254191249609,0.0032334206625819206
1761476351105721600,7.4957216796875,0.0009619975462555885,-0.00025758519768714905,0.0010919617488980293
1761476351115754500,7.50575439453125,0.0020277947187423706,-0.008820179849863052,-0.001983189955353737
1761476351125788700,7.51578857421875,0.003856995142996311,-0.011560847982764244,-0.0008034342899918556
1761476351135821600,7.525821533203125,0.005564081482589245,-0.006172739900648594,0.00008526258170604706
1761476351145854700,7.535854736328125,0.0070508671924471855,0.0022539866622537374,-0.0008098259568214417
1761476351155888600,7.545888671875,0.004027646966278553,0.012498368509113789,0.0009617088362574577
1761476351165921800,7.555921875,0.0021264487877488136,0.0157639067620039,0.0030439337715506554
1761476351175954700,7.56595458984375,-0.00011034030467271805,0.017660610377788544,0.004632774740457535
1761476351185987600,7.575987548828125,-0.0012326287105679512,0.009958511218428612,0.0002333344891667366
1761476351196020500,7.5860205078125,-0.0017740493640303612,0.0016470523551106453,-0.00003085099160671234
1761476351206054700,7.5960546875,0.000032288022339344025,-0.00608564680442214,-0.0018689408898353577
1761476351216087600,7.606087646484375,0.0017857132479548454,-0.010145103558897972,0.0006477469578385353
1761476351226120700,7.61612060546875,-0.0012205825187265873,-0.011132977902889252,-0.003885495476424694
1761476351236153600,7.626153564453125,-0.003147113136947155,-0.006668188609182835,0.000941217876970768
1761476351246187800,7.636187744140625,-0.00016766134649515152,0.00006283679977059364,-0.0005576061084866524
1761476351256220700,7.646220703125,-0.002925097942352295,0.0011334274895489216,-0.0024825390428304672
1761476351266253800,7.65625390625,-0.0009555560536682606,0.0030356368515640497,0.0020587313920259476
1761476351276286700,7.66628662109375,0.0001856088638305664,0.001167162787169218,-0.00009523332118988037
1761476351286320600,7.676320556640625,0.00015421397984027863,0.00346802338026464,0.0009660618379712105
1761476351296353500,7.686353515625,0.0007765945047140121,0.007477678824216127,0.0013980269432067871
1761476351306386700,7.69638671875,-0.002068396657705307,0.0053267814218997955,-0.00012195855379104614
1761476351316419600,7.706419677734375,-0.0022076796740293503,0.00722002238035202,-0.0005826856940984726
1761476351326453800,7.716453857421875,-0.0019286698661744595,0.006191559135913849,-0.0026620635762810707
1761476351336486700,7.726486572265625,0.0009382227435708046,0.001919848844408989,-0.0016764281317591667
1761476351346519800,7.736519775390625,0.002025255933403969,-0.004219030030071735,-0.0015581250190734863
1761476351356552700,7.746552734375,0.0018875710666179657,-0.01522853784263134,-0.003541381098330021
1761476351366585900,7.7565859375,0.000486849807202816,-0.013843230903148651,-0.001499873585999012
1761476351376619500,7.76661962890625,0.001251176930963993,-0.008430354297161102,-0.00011875852942466736
1761476351386652700,7.776652587890625,0.0005191760137677193,-0.00043534766882658005,0.0008747931569814682
1761476351396685600,7.786685546875,0.0005852226167917252,0.0009335167706012726,0.001162680797278881
1761476351406718700,7.79671875,0.0016826260834932327,0.004567720461636782,-0.000935867428779602
1761476351416752600,7.806752685546875,-0.0011067688465118408,0.007524628192186356,-0.0018978007137775421
1761476351426785800,7.816785888671875,0.003948532044887543,0.0016590454615652561,0.0003074156120419502
1761476351436818700,7.826818603515625,-0.0004321010783314705,0.00043558934703469276,-0.0013725059106945992
1761476351446851800,7.836851806640625,0.0005751075223088264,-0.0009989873506128788,-0.00003568176180124283
1761476351456885500,7.846885498046875,0.0019828546792268753,0.0013038478791713715,-0.00030066631734371185
1761476351466918700,7.856918701171875,-0.0004163375124335289,0.003175943624228239,0.000681975856423378
1761476351476951600,7.86695166015625,0.00028460659086704254,0.0029687497299164534,0.0008944962173700333
1761476351486984700,7.876984619140625,-0.0024319058284163475,0.004232201725244522,0.0003003636375069618
1761476351497017600,7.887017578125,-0.0039954474195837975,-0.0006440463475883007,-0.0006447918713092804
1761476351507051800,7.8970517578125,-0.0015605716034770012,-0.0008202441968023777,0.0011622216552495956
1761476351517084700,7.907084716796875,0.0009795520454645157,-0.005317524541169405,0.00006180349737405777
1761476351527121700,7.91712158203125,0.0016760202124714851,-0.005912844557315111,-0.00395270437002182
1761476351537154600,7.927154541015625,0.0015354054048657417,-0.005855852272361517,0.0001056864857673645
1761476351547188700,7.937188720703125,0.0016381405293941498,-0.0028130626305937767,-0.0026907799765467644
1761476351557221600,7.9472216796875,0.0022298945114016533,-0.0004367241635918617,0.001727137714624405
1761476351567254800,7.9572548828125,0.0038781119510531425,0.006010277196764946,0.0022899191826581955
1761476351577287700,7.96728759765625,0.00241656880825758,0.008306188508868217,0.0010182596743106842
1761476351587320600,7.977320556640625,0.0011709202080965042,0.00586704770103097,0.0012001711875200272
1761476351597354800,7.987354736328125,0.0028867945075035095,0.008009028621017933,-0.00011516362428665161
1761476351607388000,7.997387939453125,0.00014539342373609543,0.009258854202926159,-0.0004715733230113983
1761476351617419800,8.007419677734376,-0.0008048219606280327,0.008024479262530804,-0.0018731951713562012
1761476351627452700,8.01745263671875,-0.0018695173785090446,0.002353867283090949,-0.0022595757618546486
1761476351637485800,8.02748583984375,-0.0011720354668796062,-0.011191502213478088,0.000011035241186618805
1761476351647519500,8.03751953125,-0.0013890555128455162,-0.02321532741189003,0.002570170909166336
1761476351657552600,8.047552734375,-0.00306498259305954,-0.024929068982601166,-0.00018620025366544724
1761476351667585500,8.05758544921875,-0.004922684747725725,-0.02197292074561119,-0.003478572703897953
1761476351677618700,8.06761865234375,-0.000666953157633543,-0.016596531495451927,-0.00034456513822078705
1761476351687652600,8.077652587890626,-0.001973352860659361,-0.006166035309433937,-0.0006032520905137062
1761476351697685800,8.087685791015625,-0.002196259330958128,0.002084704115986824,0.0068597253412008286
1761476351707718700,8.09771875,-0.0020425301045179367,0.01125943474471569,0.007464943453669548
1761476351717751800,8.107751708984376,-0.001645985059440136,0.015519959852099419,0.0026089362800121307
1761476351727784700,8.11778466796875,0.0014392221346497536,0.019227471202611923,0.0023070508614182472
1761476351737818600,8.127818603515625,0.0007111132144927979,0.015178135596215725,0.0027826912701129913
1761476351747851500,8.1378515625,0.0005601122975349426,0.012661980465054512,0.0006569558754563332
1761476351757884700,8.147884765625,0.00016250275075435638,0.008970307186245918,0.005318021401762962
1761476351767917600,8.15791748046875,0.0020835204049944878,0.005963954143226147,0.004518566653132439
1761476351777950700,8.16795068359375,0.0048753125593066216,0.0018509682267904282,-0.00026420503854751587
1761476351787984600,8.177984619140625,0.0037865042686462402,-0.0009045102633535862,-0.0012009693309664726
1761476351798017800,8.188017822265625,0.0053045060485601425,-0.0031823120079934597,0.000819837674498558
1761476351808050700,8.19805078125,0.0011298349127173424,-0.007432521320879459,0.0006298795342445374
1761476351818083800,8.208083740234375,0.004828433506190777,-0.0025639962404966354,0.0003451881930232048
1761476351828117500,8.218117431640625,0.002302265726029873,0.001616274006664753,-0.0018355455249547958
1761476351838150700,8.228150634765624,0.001010100357234478,0.0065812054090201855,-0.00007413048297166824
1761476351848183600,8.23818359375,0.00026503391563892365,0.014084641821682453,0.0005360487848520279
1761476351858216700,8.248216796875,-0.0007829200476408005,0.013755208812654018,0.00021087657660245895
1761476351868249600,8.25824951171875,-0.0006313486956059933,0.011513683013617992,-0.002433331683278084
1761476351878283800,8.26828369140625,-0.00032987911254167557,0.007591645233333111,0.001880456693470478
1761476351888316700,8.278316650390625,-0.0010426337830722332,0.0009670774452388287,-0.0008916156366467476
1761476351898349800,8.288349853515625,-0.0014461027458310127,-0.003044175449758768,-0.002777400426566601
1761476351908382700,8.2983828125,-0.001463905442506075,-0.002640672493726015,-0.0032570529729127884
1761476351918416000,8.308415771484375,-0.0026522083207964897,-0.0036228462122380733,-0.001503627747297287
1761476351928449500,8.318449462890625,-0.00032950472086668015,0.0033174436539411545,0.0009788405150175095
1761476351938482700,8.328482666015624,0.0002891477197408676,0.00315499072894454,0.0009186528623104095
1761476351948515600,8.338515625,-0.0009949230588972569,0.0017769788391888142,-0.0035571912303566933
1761476351958548700,8.348548828125,0.0018189726397395134,0.00048454711213707924,-0.0013595502823591232
1761476351968582700,8.358582763671874,0.001532275229692459,-0.002971935085952282,-0.005432229954749346
1761476351978615800,8.36861572265625,0.000834261067211628,-0.006218594498932362,-0.0034780027344822884
1761476351988648700,8.378648681640625,0.0015351157635450363,-0.005115490406751633,-0.001140860840678215
1761476351998681900,8.388681884765624,0.0029814783483743668,-0.004808161407709122,-0.0031318403780460358
1761476352008714800,8.39871484375,0.0022428426891565323,0.003290013177320361,-0.0018744701519608498
1761476352018748700,8.408748779296875,0.0014393674209713936,0.010551121085882187,-0.0014433041214942932
1761476352028781600,8.418781494140624,0.0021377261728048325,0.01135946437716484,-0.000594588927924633
1761476352038814700,8.428814697265626,0.002862638793885708,0.006894409190863371,0.0032502170652151108
1761476352048847600,8.43884765625,0.0004114275798201561,-0.0011992421932518482,-0.001992998644709587
1761476352058880500,8.448880615234375,0.0005922559648752213,-0.008984195068478584,-0.00007818546146154404
1761476352068914700,8.458914794921874,0.00026222411543130875,-0.018126698210835457,-0.0014871461316943169
1761476352078947800,8.46894775390625,-0.0015671011060476303,-0.015933319926261902,-0.0032669370993971825
1761476352088980700,8.478980712890625,-0.0015681288205087185,-0.009381372481584549,-0.0015894286334514618
1761476352099013600,8.489013671875,-0.0022062226198613644,-0.004380222409963608,-0.0014892937615513802
1761476352109046800,8.499046875,-0.0015859720297157764,0.0020087012089788914,-0.0010964777320623398
1761476352119080700,8.509080810546875,-0.0034235534258186817,0.004373322241008282,0.0028774915263056755
1761476352129113600,8.519113525390624,0.0008201254531741142,0.0044674803502857685,0.0014901645481586456
1761476352139146500,8.529146484375,-0.0016755224205553532,0.0009675538167357445,0.0015343725681304932
1761476352149179600,8.5391796875,-0.00392769742757082,0.002706491621211171,0.0003553330898284912
1761476352159212500,8.549212646484374,-0.004461394622921944,0.0011147200129926205,-0.005176851060241461
1761476352169246700,8.559246826171876,-0.0008068624883890152,-0.0027618282474577427,-0.005977281369268894
1761476352179279600,8.569279541015625,-0.0005080560222268105,-0.007877493277192116,-0.002301586791872978
1761476352189312800,8.579312744140625,-0.0009266110137104988,-0.007684976793825626,-0.00021095946431159973
1761476352199345700,8.589345703125,-0.0006259400397539139,-0.00972362607717514,-0.0016456050798296928
1761476352209381600,8.599381591796876,0.0019850265234708786,-0.005258324556052685,-0.002937297336757183
1761476352219414800,8.609414794921875,0.0003509111702442169,0.0003457651473581791,-0.0062462748028337955
1761476352229447700,8.61944775390625,0.002611694857478142,0.0011448138393461704,-0.00017916318029165268
1761476352239480800,8.629480712890626,0.003507315181195736,0.0016018124297261238,-0.0025357939302921295
1761476352249514500,8.639514404296875,0.0032584192231297493,-0.0007086084224283695,0.0005417671054601669
1761476352259547600,8.649547607421875,0.004898394457995892,-0.004371520131826401,-0.0011914176866412163
1761476352269580500,8.65958056640625,0.0052557894960045815,-0.0033613648265600204,-0.0015825768932700157
1761476352279613700,8.66961376953125,0.002351345494389534,-0.001522717997431755,0.0014172075316309929
1761476352289646600,8.679646484375,0.004659009166061878,0.006781343370676041,-0.0015196818858385086
1761476352299679700,8.6896796875,0.0014448398724198341,0.010917765088379383,-0.0018951883539557457
1761476352309713700,8.699713623046875,-0.00004087202250957489,0.01244975347071886,-0.00014321226626634598
1761476352319746800,8.709746826171875,-0.0002661757171154022,0.008139693178236485,-0.0023371251299977303
1761476352329779700,8.71977978515625,-0.0023985677398741245,-0.005985747557133436,-0.0013899561017751694
1761476352339812900,8.729812744140625,-0.00309285381808877,-0.020795054733753204,0.0020862678065896034
1761476352349845800,8.739845703125,-0.00700244028121233,-0.03175220265984535,0.00033307913690805435
1761476352359879700,8.749879638671874,-0.005450616590678692,-0.03150319680571556,-0.001030726358294487
1761476352369912600,8.75991259765625,-0.003977556712925434,-0.02658473141491413,-0.0013799844309687614
1761476352379945700,8.76994580078125,-0.0020670052617788315,-0.009764472022652626,-0.002652176655828953
1761476352389978600,8.779978515625,-0.005571025889366865,0.0014230040833353996,0.003068900667130947
1761476352400011800,8.79001171875,-0.004349700175225735,0.006685676984488964,0.00173252634704113
1761476352410045700,8.800045654296875,-0.002579697407782078,0.00383516657166183,0.00041041430085897446
1761476352420078800,8.810078857421875,-0.003060397692024708,0.004362205974757671,-0.000125945545732975
1761476352430111700,8.82011181640625,-0.0005348874256014824,0.007590531837195158,-0.0019912393763661385
1761476352440145000,8.830144775390625,0.002596723847091198,0.009015056304633617,0.001910291612148285
1761476352450177800,8.840177734375,-0.00033651571720838547,0.015331996604800224,0.0022947490215301514
1761476352460211700,8.850211669921874,0.001417442224919796,0.011369213461875916,0.00210672989487648
1761476352470244600,8.86024462890625,0.0004341350868344307,0.010954140685498714,-0.0004751449450850487
1761476352480277800,8.87027783203125,0.0011510588228702545,0.003687439486384392,0.0010399268940091133
1761476352490310700,8.880310546875,0.0008318796753883362,-0.007523396518081427,-0.0006628688424825668
1761476352500343600,8.890343505859375,0.003189842216670513,-0.011014267802238464,0.0011278409510850906
1761476352510377700,8.900377685546875,0.005376859568059444,-0.012484200298786163,-0.0025318609550595284
1761476352520406300,8.91040625,0.0010130032896995544,-0.007904894649982452,-0.0020101480185985565
1761476352530439400,8.920439453125,0.001310216262936592,0.005677986424416304,0.0009698113426566124
1761476352540472300,8.930472412109374,0.0025629671290516853,0.014371875673532486,-0.0025458279997110367
1761476352550505200,8.940505126953125,-0.0004233038052916527,0.0162577573210001,-0.001477099023759365
1761476352560539100,8.9505390625,0.0023043062537908554,0.012813491746783257,-0.0016848258674144745
1761476352570572300,8.960572265625,-0.0012497496791183949,0.0030691144056618214,0.00004714634269475937
1761476352580605200,8.970605224609375,-0.0012428252957761288,-0.0015461435541510582,0.0011859145015478134
1761476352590638000,8.98063818359375,-0.0018732924945652485,-0.00499510345980525,0.00009287707507610321
1761476352600671200,8.990671142578124,-0.0021976656280457973,-0.0024230224080383778,-0.00028529204428195953
1761476352610704100,9.0007041015625,-0.001199682243168354,-0.002702488098293543,-0.0010732458904385567
1761476352620738300,9.01073828125,-0.001472389791160822,-0.003424470778554678,0.0009755240753293037
1761476352630771200,9.020771240234374,-0.002862790133804083,-0.0030975928530097008,-0.0006333375349640846
1761476352640804400,9.030804443359376,-0.0022220336832106113,0.0010521449148654938,0.001824493519961834
1761476352650837200,9.040837158203125,-0.002622741274535656,-0.0011317487806081772,-0.0008218130096793175
1761476352660870400,9.050870361328125,-0.001813140232115984,0.0005851914174854755,-0.0017651049420237541
1761476352670904000,9.060904052734376,-0.0003535933792591095,0.00325421872548759,-0.00016718078404664993
1761476352680937200,9.070937255859375,0.0012541571632027626,0.003147426061332226,0.000006191432476043701
1761476352690970000,9.08097021484375,0.001338612288236618,0.0051533798687160015,0.0014818934723734856
1761476352701003300,9.091003173828126,-0.00008990801870822906,0.0044819968752563,-0.0007530311122536659
1761476352711036200,9.1010361328125,-0.0004944135434925556,0.00407644547522068,-0.0003991108387708664
1761476352721070300,9.1110703125,0.00025899428874254227,0.0022591042798012495,-0.0002995086833834648
1761476352731103200,9.121103271484374,0.000941733829677105,-0.0025057410821318626,-0.00400250218808651
1761476352741136400,9.131136474609375,0.0037745386362075806,-0.004706843756139278,-0.0006200214847922325
1761476352751169300,9.141169189453125,0.003972073085606098,-0.00558743579313159,-0.0005794791504740715
1761476352761202400,9.151202392578124,0.006371581926941872,-0.003853983711451292,0.00003784149885177612
1761476352771235300,9.1612353515625,0.004906641319394112,-0.0028141620568931103,0.0002962583675980568
1761476352781269200,9.171269287109375,0.0014453306794166565,0.002843457041308284,0.002054743468761444
1761476352791302100,9.18130224609375,0.0032860487699508667,0.0038007681723684072,-0.0002121124416589737
1761476352801335300,9.191335205078126,0.000037258490920066833,0.0046732197515666485,-0.00010398868471384048
1761476352811368200,9.2013681640625,0.0004117283970117569,0.0030018663965165615,-0.0005330368876457214
1761476352821401300,9.2114013671875,-0.0029268101789057255,0.0010444428771734238,0.0015404997393488884
1761476352831435300,9.221435302734376,0.0026378650218248367,-0.0004996578209102154,0.002741319127380848
1761476352841468400,9.231468505859375,0.002476210705935955,-0.0005340124480426311,0.002609759569168091
1761476352851501300,9.241501220703125,-0.0013477210886776447,0.0031751696951687336,0.005251273512840271
1761476352861534500,9.251534423828126,-0.004169340245425701,0.005440720822662115,0.0033492445945739746
1761476352871567400,9.2615673828125,-0.0041213082149624825,0.0015186029486358166,-0.0014131497591733932
1761476352881600300,9.271600341796875,-0.0030752187594771385,-0.005589374341070652,-0.002604914829134941
1761476352891634200,9.28163427734375,-0.0011717905290424824,-0.009104610420763493,0.0013921046629548073
1761476352901667300,9.291667236328125,-0.0024341288954019547,-0.010758700780570507,0.0021066302433609962
1761476352911700200,9.3017001953125,-0.001537804026156664,-0.00684004370123148,0.0009647971019148827
1761476352921733000,9.311733154296874,-0.0003811931237578392,0.001519885379821062,0.0025584325194358826
1761476352931766300,9.321766357421875,0.0010013813152909279,0.006481601390987635,-0.00028990302234888077
1761476352941799200,9.331799072265625,0.000491119921207428,0.010967429727315903,0.0027863141149282455
1761476352951833300,9.341833251953124,0.0014077834784984589,0.014019690454006195,-0.0022901464253664017
1761476352961866200,9.3518662109375,0.000530005432665348,0.011750677600502968,0.003234582021832466
1761476352971899400,9.3618994140625,0.0005672900006175041,0.009099767543375492,0.00169314444065094
1761476352981932300,9.371932373046874,0.0007531782612204552,0.00854289997369051,-0.00018225423991680145
1761476352991965200,9.381965087890626,-0.000383889302611351,-0.001204589381814003,-0.002819865010678768
1761476353001999000,9.3919990234375,-0.001318391878157854,-0.009529098868370056,0.004247100092470646
1761476353012032300,9.4020322265625,-0.0023024743422865868,-0.019023898988962173,0.0038615241646766663
1761476353022065200,9.412065185546876,-0.004553644452244043,-0.02598380297422409,0.002184530720114708
1761476353032098300,9.422098388671875,-0.0029023541137576103,-0.021084658801555634,-0.0018938612192869186
1761476353042131200,9.432131103515625,-0.001453594770282507,-0.017300041392445564,-0.0012384578585624695
1761476353052164400,9.442164306640626,-0.00017450377345085144,-0.009317266754806042,0.0011727791279554367
1761476353062198300,9.4521982421875,-0.002136720810085535,-0.0010614674538373947,0.0005501322448253632
1761476353072231200,9.462231201171875,-0.00012013968080282211,0.006478015333414078,0.0019712960347533226
1761476353082264000,9.47226416015625,-0.00313164247199893,0.013435790315270424,0.0014541102573275566
1761476353092297200,9.482297119140625,0.0015723556280136108,0.014579997397959232,0.0018754573538899422
1761476353102330000,9.492330078125,0.0006130849942564964,0.013037494383752346,-0.0005581388249993324
1761476353112363300,9.50236328125,0.0009057773277163506,0.006960982456803322,0.005131019279360771
1761476353122397200,9.512397216796876,0.0006610332056879997,0.004623526241630316,0.00031069666147232056
1761476353132430300,9.522430419921875,0.0006772996857762337,0.0034533729776740074,0.002282167784869671
1761476353142463200,9.532463134765624,0.002465878613293171,0.0039106374606490135,0.002757541835308075
1761476353152496400,9.542496337890626,-0.0010765804909169674,0.0033834907226264477,0.002170839346945286
1761476353162529300,9.552529296875,0.002201237715780735,0.003295606467872858,0.0006349943578243256
1761476353172562400,9.5625625,0.0003444170579314232,-0.0028345691971480846,0.0032389769330620766
1761476353182596000,9.57259619140625,0.0019252700731158257,-0.0030982219614088535,-0.00031767506152391434
1761476353192629200,9.582629150390625,0.0028510084375739098,-0.004786906763911247,-0.0025902502238750458
1761476353202662100,9.592662109375,0.0021806908771395683,-0.003901139833033085,-0.001245354302227497
1761476353212695300,9.6026953125,0.0016894731670618057,0.0019413088448345661,-0.0009651603177189827
1761476353222728200,9.612728271484375,0.000958968885242939,0.002253964077681303,0.003070327453315258
1761476353232762400,9.622762451171875,0.0007364582270383835,0.004216441884636879,0.001989055424928665
1761476353242795300,9.632795166015624,0.00013218726962804794,0.0069512417539954185,0.0009677326306700706
1761476353252828400,9.642828369140625,-0.0016771643422544003,0.0030238782055675983,0.001162676140666008
1761476353262861300,9.652861328125,-0.0029461607336997986,0.0008022692054510117,0.0007179286330938339
1761476353272894200,9.662894287109374,-0.002646517939865589,-0.004798285197466612,0.0013934075832366943
1761476353282927400,9.67292724609375,-0.0005551371723413467,-0.011351792141795158,-0.0003389790654182434
1761476353292961300,9.682961181640625,-0.0008564842864871025,-0.008916879072785378,-0.0008714292198419571
1761476353302994200,9.692994140625,0.0004324857145547867,-0.005555438343435526,0.0039385054260492325
1761476353313027000,9.703027099609375,-0.0008132415823638439,-0.001235016155987978,-0.0006098300218582153
1761476353323060200,9.713060302734375,-0.001644148025661707,0.006282821297645569,-0.0017693694680929184
1761476353333093000,9.723093017578124,-0.0010583987459540367,0.00528168398886919,0.00011777970939874649
1761476353343126300,9.733126220703125,0.00006252527236938477,0.0037162781227380037,0.00009327847510576248
1761476353353160200,9.74316015625,-0.0015210295096039772,0.005005417391657829,-0.0005969367921352386
1761476353363193300,9.753193359375,0.0003415849059820175,0.0014367816038429737,-0.00008108280599117279
1761476353373226200,9.763226318359376,0.0010048607364296913,0.00466297147795558,-0.0009498996660113335
1761476353383259400,9.77325927734375,-0.00004442501813173294,0.00167117640376091,-0.003805341199040413
1761476353393292300,9.783292236328125,-0.0009129056707024574,0.001258332747966051,0.0005334904417395592
1761476353403325400,9.793325439453126,0.0011904584243893623,0.0002841483801603317,-0.00028436630964279175
1761476353413359000,9.803359130859375,-0.00012559164315462112,-0.004767687991261482,-0.0031634271144866943
1761476353423392300,9.813392333984375,0.0025207921862602234,-0.00800076499581337,-0.001079769805073738
1761476353433425200,9.823425048828126,0.0012343712151050568,-0.006803916767239571,-0.0019073430448770523
1761476353443458300,9.833458251953125,0.000652470625936985,-0.008649487979710102,-0.0035624979063868523
1761476353453491200,9.8434912109375,0.001043247990310192,-0.002628424670547247,-0.00015830807387828827
1761476353463524400,9.8535244140625,0.0007825251668691635,-0.0010808617807924747,-0.0024518221616744995
1761476353473557200,9.86355712890625,-0.0026234607212245464,0.0018743122927844524,0.0019742054864764214
1761476353483591400,9.87359130859375,-0.0008436702191829681,0.004675424657762051,0.0005233148112893105
1761476353493624300,9.883624267578124,0.0001375880092382431,0.004719419404864311,-0.0007313359528779984
1761476353503657200,9.8936572265625,-0.0008190199732780457,0.0011001834645867348,0.0011792154982686043
1761476353513690000,9.903690185546875,-0.001035790890455246,0.002436565002426505,0.00028604548424482346
1761476353523727600,9.9137275390625,-0.00015108846127986908,0.0013161730021238327,-0.0017970791086554527
1761476353533760500,9.923760498046875,0.000679519958794117,-0.003078373149037361,0.00026922114193439484
1761476353543794700,9.933794677734374,-0.0013756412081420422,-0.0028155185282230377,-0.0012184204533696175
1761476353553827600,9.94382763671875,0.00038324669003486633,-0.002584841102361679,-0.0006504571065306664
1761476353563860700,9.95386083984375,-0.0007699020206928253,-0.0002106325700879097,-0.0015431484207510948
1761476353573893600,9.9638935546875,0.00013819802552461624,-0.0010091639123857021,-0.0011790785938501358
1761476353583926800,9.9739267578125,0.003737194463610649,-0.0023125153966248035,-0.00006108358502388
1761476353593959700,9.983959716796875,0.0019234372302889824,0.00004256283864378929,0.0015180297195911407
1761476353603993600,9.99399365234375,-0.0000691395252943039,0.0034570018760859966,-0.00013898871839046478
1761476353614026500,10.004026611328126,0.000002119690179824829,0.008790520951151848,0.001024625264108181
1761476353624059600,10.0140595703125,0.0008828267455101013,0.010778836905956268,0.00015190709382295609
1761476353634092500,10.024092529296874,0.0014206776395440102,0.009372171014547348,-0.002887689508497715
1761476353644125700,10.034125732421876,-0.00032395869493484497,0.0019312994554638863,0.0019576651975512505
1761476353654158600,10.04415869140625,-0.0010778103023767471,-0.01204398088157177,0.0031801946461200714
1761476353664192800,10.05419287109375,-0.0038698683492839336,-0.02257811278104782,0.0018233144655823708
1761476353674225700,10.0642255859375,-0.001480520237237215,-0.023490048944950104,0.0025204289704561234
1761476353684258800,10.0742587890625,-0.002497048582881689,-0.02112915739417076,-0.0015126615762710571
1761476353694291700,10.084291748046875,0.0016005998477339745,-0.015824200585484505,-0.0013057533651590347
1761476353704324600,10.09432470703125,0.0018014023080468178,-0.009986551478505135,-0.000896957702934742
1761476353714357500,10.104357421875,-0.002747270278632641,0.0012171524576842785,0.004759535193443298
1761476353724390700,10.114390625,-0.003687898628413677,0.011460469104349613,0.006347311660647392
1761476353734424600,10.124424560546874,-0.0033865156583487988,0.015900829806923866,0.002613646909594536
1761476353744457700,10.134457763671875,-0.0022104638628661633,0.014198536984622478,0.0011230753734707832
1761476353754490600,10.14449072265625,-0.0015371059998869896,0.012120944447815418,0.0026684869080781937
1761476353764523800,10.154523681640624,0.00012523960322141647,0.006890495773404837,0.0024567656219005585
1761476353774556700,10.164556640625,-0.0033834585919976234,0.003430043114349246,0.00010438915342092514
1761476353784589600,10.174589599609375,0.0015607001259922981,0.0007232059724628925,0.000507592223584652
1761476353794623500,10.18462353515625,0.00007053650915622711,0.00022285804152488708,0.0005696713924407959
1761476353804656600,10.19465673828125,0.0019187703728675842,0.00028384430333971977,0.0037513496354222298
1761476353814689500,10.204689453125,0.0010158177465200424,-0.001497071236371994,0.002613833174109459
1761476353824722400,10.214722412109374,0.0015503140166401863,-0.0018094596453011036,-0.0006890194490551949
1761476353834755600,10.224755615234375,0.0006885714828968048,-0.0040836697444319725,-0.0012141019105911255
1761476353844788500,10.23478857421875,0.0005205264315009117,-0.008985750377178192,-0.0022926824167370796
1761476353854821600,10.244821533203124,0.002387947402894497,-0.0011770911514759064,0.0001628044992685318
1761476353864855600,10.25485546875,0.0015591718256473541,0.004438983276486397,-0.0007338812574744225
1761476353874888700,10.264888671875,-0.000050819478929042816,0.011419989168643951,-0.00004862900823354721
1761476353884921600,10.274921630859374,-0.0014047706499695778,0.015055470168590546,-0.0016699619591236115
1761476353894954800,10.284954833984376,-0.0026178695261478424,0.014135283417999744,0.0031487150117754936
1761476353904987600,10.294987548828125,-0.002964080311357975,0.008178590796887875,-0.0015421770513057709
1761476353915020800,10.305020751953125,-0.0009967759251594543,-0.0008331541903316975,-0.0037760455161333084
1761476353925053700,10.3150537109375,-0.0018567107617855072,-0.010075654834508896,-0.002745668403804302
1761476353935087600,10.325087646484375,-0.0001806141808629036,-0.013819520361721516,-0.0020704278722405434
1761476353945120500,10.33512060546875,0.00005534198135137558,-0.01071880105882883,-0.0018595056608319283
1761476353955153700,10.345153564453126,-0.0027821743860840797,0.0009017754346132278,0.0013375524431467056
1761476353965186600,10.3551865234375,0.0004868553951382637,0.007826526649296284,-0.0009333249181509018
1761476353975219700,10.3652197265625,-0.0004862882196903229,0.010534153319895267,-0.00001943390816450119
1761476353985252600,10.375252685546876,-0.0002737678587436676,0.006992947775870562,-0.0036799488589167595
1761476353995286800,10.385286865234375,0.0012720683589577675,0.003322108881548047,-0.0015824735164642334
1761476354005319700,10.395319580078125,0.0004547443240880966,-0.0017022108659148216,-0.000006148591637611389
1761476354015352800,10.405352783203124,-0.000326596200466156,-0.002821798902004957,-0.003344050608575344
1761476354025385700,10.4153857421875,0.000057431869208812714,0.0018784143030643463,-0.001248941756784916
1761476354035418600,10.425418701171875,-0.0007348456420004368,0.00825062207877636,-0.0004872828722000122
1761476354045451500,10.435451416015624,0.0016811741515994072,0.009330268017947674,-0.0028007710352540016
1761476354055484400,10.445484375,0.00023153889924287796,0.0071187992580235004,-0.0016641616821289062
1761476354065518600,10.4555185546875,0.0015767011791467667,0.0068058776669204235,0.0011646486818790436
1761476354075551700,10.4655517578125,-0.00007057376205921173,0.0004721428267657757,-0.0027224821969866753
1761476354085584600,10.475584716796876,-0.000811997801065445,-0.004485065583139658,-0.003028213046491146
1761476354095617500,10.485617431640625,0.0032368935644626617,-0.008847128599882126,-0.00294524896889925
1761476354105650700,10.495650634765624,0.0028038639575242996,-0.009970450773835182,-0.004516780376434326
1761476354115683600,10.50568359375,0.0015895478427410126,-0.008951596915721893,-0.00014426279813051224
1761476354125716700,10.515716796875,0.0020534703508019447,-0.0009107142686843872,0.0010222019627690315
1761476354135750700,10.525750732421875,0.001436624675989151,0.003825380699709058,0.0004414813593029976
1761476354145783600,10.535783447265626,0.000015029683709144592,0.010009773075580597,-0.00007597077637910843
1761476354155816400,10.54581640625,-0.0011810092255473137,0.013791930861771107,0.001430317759513855
1761476354165849600,10.555849609375,-0.0009493143297731876,0.009627812542021275,-0.0002527991309762001
1761476354175882500,10.565882568359376,0.00022637378424406052,0.0035097994841635227,0.0014279941096901894
1761476354185915600,10.57591552734375,0.0015441058203577995,-0.006156410090625286,-0.000046066008508205414
1761476354195948500,10.585948486328125,0.0015693586319684982,-0.012386081740260124,0.001043546013534069
1761476354205982700,10.595982666015624,-0.0005625016056001186,-0.012987423688173294,-0.0000699218362569809
1761476354216015600,10.606015625,-0.0002680514007806778,-0.009031083434820175,-0.003857814706861973
1761476354226048800,10.616048828125,0.0031091030687093735,-0.0029010199941694736,-0.000014075078070163727
1761476354236081700,10.62608154296875,0.0018354551866650581,0.0004231957718729973,-0.0025792643427848816
1761476354246114800,10.63611474609375,0.003923374228179455,0.00447066780179739,0.00034142378717660904
1761476354256147700,10.646147705078125,-0.000770478043705225,0.007050468120723963,0.0017482694238424301
1761476354266181600,10.656181640625,-0.0015936610288918018,0.011218314990401268,0.0000691460445523262
1761476354276214500,10.666214599609376,0.00030349288135766983,0.013533469289541245,-0.0007645636796951294
1761476354286247700,10.67624755859375,0.0005546286702156067,0.011741427704691887,-0.00007906649261713028
1761476354296280600,10.686280517578124,-0.0016942275688052177,0.008592842146754265,-0.0022560767829418182
1761476354306313500,10.6963134765625,-0.0007259021513164043,0.000332515686750412,0.0001524863764643669
1761476354316346600,10.7063466796875,-0.0015898044221103191,-0.011488392017781734,0.0008161934092640877
1761476354326379500,10.716379638671874,-0.0011716880835592747,-0.024391938000917435,0.003284410573542118
1761476354336412700,10.72641259765625,-0.006793510168790817,-0.022839851677417755,0.0014773784205317497
1761476354346446600,10.736446533203125,-0.004722636193037033,-0.017653612419962883,-0.002539999783039093
1761476354356479700,10.746479736328125,-0.0013061645440757275,-0.010920275002717972,-0.004433168563991785
1761476354366512600,10.7565126953125,-0.0018840706907212734,-0.0072419182397425175,0.00015386007726192474
1761476354376545800,10.7665458984375,-0.002042023930698633,-0.0010378840379416943,-0.00016070622950792313
1761476354386578400,10.776578369140625,-0.0011946060694754124,0.012648633681237698,0.007315053604543209
1761476354396611600,10.786611572265626,-0.0014307149685919285,0.06919040530920029,0.026235993951559067
1761476354406644500,10.79664453125,-0.002632067073136568,0.13816840946674347,0.037958960980176926
1761476354416678700,10.8066787109375,-0.004898802377283573,0.17058320343494415,0.03133032098412514
1761476354426711600,10.816711669921874,-0.002945106942206621,0.13988788425922394,0.008319810964167118
1761476354436744700,10.82674462890625,0.000268605537712574,0.06385789066553116,-0.008481605909764767
1761476354446777600,10.836777587890625,0.0049043698236346245,-0.026425132527947426,-0.01039455458521843
1761476354456810800,10.846810791015624,0.001427922397851944,-0.0903201550245285,-0.008900688961148262
1761476354466843600,10.85684375,0.0008359011262655258,-0.12260086834430695,-0.012914871796965599
1761476354476876800,10.866876708984375,0.00587210338562727,-0.1376047283411026,-0.03392293304204941
1761476354486910500,10.876910400390624,0.009942478500306606,-0.14267458021640778,-0.04140748083591461
1761476354496943600,10.886943603515626,0.006097760051488876,-0.1053347960114479,-0.02213931456208229
1761476354506976500,10.8969765625,-0.0008232626132667065,-0.040944088250398636,0.001955900341272354
