time,seconds_elapsed,z,y,x
1761476331951886300,0.12288623046875,0.004488025791943073,-0.022357933223247528,-0.008027696050703526
1761476331961919500,0.13291943359375,0.004849720746278763,-0.015520134940743446,-0.0053382571786642075
1761476331971952400,0.142952392578125,0.003279521130025387,0.0002987752668559551,0.0018336353823542595
1761476331981986600,0.152986572265625,0.0007306933403015137,0.02023107185959816,0.0019381381571292877
1761476331992019500,0.16301953125,0.0004579853266477585,0.02980060875415802,-0.0009314175695180893
1761476332002052600,0.173052490234375,0.0011056913062930107,0.029268426820635796,-0.005048906430602074
1761476332012085500,0.18308544921875,0.004219459369778633,0.014153657481074333,-0.0034297043457627296
1761476332022119400,0.193119384765625,0.001774790696799755,-0.005898468196392059,-0.006076007150113583
1761476332032152300,0.20315234375,0.0012839706614613533,-0.02811615541577339,-0.0028541143983602524
1761476332042185500,0.213185546875,0.003206656314432621,-0.03951268643140793,-0.0008427733555436134
1761476332052218400,0.22321826171875,0.007738025858998299,-0.047184720635414124,-0.002751460298895836
1761476332062252500,0.23325244140625,0.009898471646010876,-0.045182496309280396,-0.0024948222562670708
1761476332072285400,0.243285400390625,0.015628527849912643,-0.029401671141386032,-0.003626931458711624
1761476332082318600,0.253318603515625,0.013453965075314045,-0.003926396835595369,0.0035097580403089523
1761476332092351500,0.2633515625,0.009457624517381191,0.02568316087126732,0.014113932847976685
1761476332102385400,0.273385498046875,0.005499802529811859,0.04498620331287384,0.01171895768493414
1761476332112418300,0.283418212890625,0.0009186333045363426,0.04523813724517822,0.004791277460753918
1761476332122451500,0.293451416015625,0.0016578519716858864,0.032685671001672745,-0.003584587946534157
1761476332132484400,0.303484375,0.0010988544672727585,0.010949747636914253,-0.004209364764392376
1761476332142518500,0.3135185546875,0.0006344737485051155,-0.003350436221808195,-0.0012042969465255737
1761476332152551400,0.323551513671875,0.0006991885602474213,-0.010128181427717209,0.002492968924343586
1761476332162584600,0.33358447265625,0.0016871187835931778,-0.0023785834200680256,0.0017934273928403854
1761476332172618800,0.34361865234375,0.00015340466052293777,0.0038894321769475937,-0.0004755854606628418
1761476332182651400,0.3536513671875,0.004704783670604229,0.012622153386473656,-0.00037000421434640884
1761476332192684300,0.363684326171875,-0.0002771914005279541,0.007708622142672539,0.0006369361653923988
1761476332202717400,0.373717529296875,-0.003481815569102764,-0.0022357385605573654,0.006215524859726429
1761476332212751600,0.383751708984375,-0.0073801507242023945,-0.00416173692792654,0.008480808697640896
1761476332222784500,0.393784423828125,-0.010343345813453197,-0.0005990243516862392,0.0016220351681113243
1761476332232817400,0.4038173828125,-0.011493565514683723,0.008678097277879715,-0.001774294301867485
1761476332242850600,0.4138505859375,-0.011600312776863575,0.014325402677059174,-0.003911422565579414
1761476332252884700,0.423884765625,-0.010811218060553074,0.012419112026691437,-0.003477061167359352
1761476332262917600,0.433917724609375,-0.005473812110722065,-0.0017183157615363598,-0.002950139343738556
1761476332272950500,0.443950439453125,-0.00043457839637994766,-0.01821366883814335,-0.004672138951718807
1761476332282984400,0.453984375,0.004188632592558861,-0.026775915175676346,-0.003143545240163803
1761476332293017600,0.464017578125,0.006639806553721428,-0.021109506487846375,-0.0003781188279390335
1761476332303050500,0.474050537109375,0.007149418815970421,-0.0035017416812479496,0.001181153580546379
1761476332313083400,0.48408349609375,0.007086302153766155,0.020742345601320267,0.00680974405258894
1761476332323117600,0.49411767578125,0.007408369332551956,0.03846609592437744,0.010594482533633709
1761476332333150700,0.504150634765625,0.005608338862657547,0.04369015246629715,0.006802140735089779
1761476332343183600,0.51418359375,-0.000042071565985679626,0.037805598229169846,0.004239239729940891
1761476332353216500,0.524216552734375,-0.000995749607682228,0.023111077025532722,0.001089785248041153
1761476332363250400,0.53425048828125,-0.0006045950576663017,0.0011580646969377995,-0.006450341548770666
1761476332373283600,0.54428369140625,0.0025358041748404503,-0.014607317745685577,-0.005593602545559406
1761476332383316500,0.55431640625,0.0017832769080996513,-0.021361391991376877,-0.002806577831506729
1761476332393350700,0.5643505859375,0.006155654788017273,-0.018508613109588623,-0.0016512982547283173
1761476332403383600,0.574383544921875,0.003885749727487564,-0.0082758329808712,0.0011225268244743347
1761476332413416700,0.584416748046875,0.0031773485243320465,0.0007964917458593845,-0.00140401441603899
1761476332423449600,0.59444970703125,0.001026976853609085,0.012044701725244522,0.004148561507463455
1761476332433483500,0.6044833984375,0.0015193959698081017,0.014781631529331207,0.004574134945869446
1761476332443516400,0.614516357421875,-0.0011980063281953335,0.015274157747626305,0.0025781486183404922
1761476332453549600,0.624549560546875,-0.0020057428628206253,0.012491952627897263,0.003381091170012951
1761476332463583500,0.63458349609375,-0.002268740441650152,0.010769721120595932,0.008119731210172176
1761476332473616600,0.64461669921875,-0.0037723612040281296,0.005307578016072512,0.00010468252003192902
1761476332483649500,0.6546494140625,-0.0018550800159573555,0.0010603191331028938,-0.0037342561408877373
1761476332493683500,0.664683349609375,-0.002031913958489895,-0.011368919163942337,-0.004834142047911882
1761476332503721200,0.67472119140625,0.001948564313352108,-0.015232343226671219,-0.0031653353944420815
1761476332513754400,0.68475439453125,0.0004950109869241714,-0.010464485734701157,-0.0018896814435720444
1761476332523787300,0.694787353515625,-0.0018047052435576916,-0.006420200690627098,-0.0009121093899011612
1761476332533821400,0.704821533203125,-0.002832419238984585,0.007173372432589531,0.0019862093031406403
1761476332543854300,0.714854248046875,-0.0006093662232160568,0.016383899375796318,0.0009971149265766144
1761476332553887500,0.724887451171875,-0.005657121539115906,0.018110426142811775,0.001657046377658844
1761476332563921200,0.734921142578125,-0.004079822450876236,0.00863957591354847,0.0014971932396292686
1761476332573954300,0.744954345703125,-0.0026310631074011326,-0.005559866316616535,-0.0010314779356122017
1761476332583987200,0.7549873046875,-0.002803109586238861,-0.01572412997484207,-0.003229718655347824
1761476332594021400,0.765021484375,-0.0016196006909012794,-0.019468002021312714,-0.003379388712346554
1761476332604054300,0.77505419921875,0.003319447860121727,-0.019327200949192047,-0.002179967239499092
1761476332614087400,0.78508740234375,0.002905060537159443,-0.015699442476034164,-0.002328570932149887
1761476332624120300,0.795120361328125,0.0023705018684267998,-0.007955937646329403,-0.0021082647144794464
1761476332634154200,0.805154296875,0.00288395956158638,-0.0015981732867658138,-0.00321347638964653
1761476332644187100,0.815187255859375,0.0025276346132159233,0.004866694565862417,-0.002818991430103779
1761476332654220300,0.82522021484375,0.006203595548868179,0.007954363711178303,0.0035297181457281113
1761476332664254200,0.835254150390625,0.001965038478374481,0.008295657113194466,0.002288145013153553
1761476332674287400,0.845287353515625,0.0020276233553886414,0.006162464618682861,0.0021573835983872414
1761476332684320300,0.8553203125,0.004512711428105831,0.0007994766347110271,0.0016428688541054726
1761476332694354200,0.865354248046875,0.0030261343345046043,-0.0014421059750020504,-0.002981710247695446
1761476332704387000,0.875386962890625,0.0027847634628415108,-0.004609185736626387,-0.00115206278860569
1761476332714420200,0.885420166015625,0.0025408174842596054,-0.003030464518815279,0.0003486284986138344
1761476332724454400,0.895454345703125,0.00034807343035936356,0.003277401439845562,0.0012465175241231918
1761476332734487300,0.9054873046875,0.00006391387432813644,0.0026347804814577103,0.003120850771665573
1761476332744520200,0.915520263671875,-0.00013561174273490906,0.0066927834413945675,0.0019944682717323303
1761476332754554400,0.925554443359375,-0.0019407020881772041,0.002517745830118656,0.002160383388400078
1761476332764587500,0.93558740234375,-0.00513201579451561,0.0031038611195981503,0.002349461428821087
1761476332774620400,0.945620361328125,-0.0013226298615336418,0.0005426988936960697,0.002245597541332245
1761476332784653300,0.9556533203125,-0.0020030676387250423,0.001832201611250639,0.0009483722969889641
1761476332794687200,0.965687255859375,-0.0029532834887504578,0.00008277129381895065,-0.0009041223675012589
1761476332804720400,0.975720458984375,-0.0014456789940595627,0.0019308896735310555,0.002265114337205887
1761476332814753300,0.985753173828125,-0.003546913154423237,0.007370396517217159,0.0006520384922623634
1761476332824787500,0.995787353515625,-0.0018576574511826038,0.010080580599606037,0.002304249443113804
1761476332834820400,1.0058203125,-0.0022273040376603603,0.011950652115046978,-0.004132078029215336
1761476332844853500,1.015853515625,-0.001903568860143423,0.0053817592561244965,0.001603635959327221
1761476332854887200,1.02588720703125,-0.0042266445234417915,-0.004308684729039669,0.0029019275680184364
1761476332864920300,1.03592041015625,-0.0032248208299279213,-0.018187906593084335,0.001819159835577011
1761476332874953200,1.045953125,-0.005876263603568077,-0.02634543552994728,0.0002745259553194046
1761476332884987400,1.0559873046875,-0.0032222666777670383,-0.02748391404747963,-0.002411801367998123
1761476332895020300,1.066020263671875,-0.001444340217858553,-0.02477600984275341,-0.003873877227306366
1761476332905053400,1.076053466796875,-0.002666730899363756,-0.01821264997124672,0.0005933092907071114
1761476332915087000,1.086087158203125,-0.0030856463126838207,-0.008704897947609425,-0.0024445578455924988
1761476332925120300,1.096120361328125,0.0004855496808886528,0.000011458992958068848,0.0003694668412208557
1761476332935153200,1.106153076171875,-0.000056935474276542664,0.004522321280092001,0.003562064841389656
1761476332945187300,1.116187255859375,-0.0013901656493544579,0.008345470763742924,0.00022452045232057571
1761476332955220200,1.12622021484375,-0.00011504441499710083,0.009184898808598518,0.001170741394162178
1761476332965253400,1.13625341796875,0.0010058805346488953,0.007507639937102795,0.0018567712977528572
1761476332975287300,1.146287353515625,-0.0006191805005073547,0.0035571069456636906,-0.0021536825224757195
1761476332985320400,1.156320556640625,0.0020144209265708923,-0.0013875490985810757,-0.0013038069009780884
1761476332995353300,1.166353271484375,0.0019137533381581306,-0.001820046454668045,0.0019146231934428215
1761476333005386200,1.17638623046875,0.004196240566670895,-0.0029116510413587093,-0.00008247513324022293
1761476333015420200,1.186420166015625,0.002110186032950878,0.00008653569966554642,-0.0009666448459029198
1761476333025453300,1.196453369140625,0.002340814098715782,0.003028759965673089,-0.0003600390627980232
1761476333035486200,1.206486328125,0.001827622763812542,0.0035536689683794975,0.0007989685982465744
1761476333045520400,1.216520263671875,0.001742139458656311,-0.0011760341003537178,-0.0033146943897008896
1761476333055553300,1.22655322265625,0.00020869076251983643,-0.001709465403109789,-0.0034161610528826714
1761476333065586400,1.23658642578125,-0.0015227370895445347,-0.00047506485134363174,-0.0002517886459827423
1761476333075620400,1.246620361328125,-0.00030966661870479584,0.0001688878983259201,-0.0009295623749494553
1761476333085653200,1.2566533203125,-0.0009369016624987125,-0.0011519682593643665,-0.0003878641873598099
1761476333095686100,1.26668603515625,-0.0010761851444840431,-0.0010840576142072678,-0.0020808354020118713
1761476333105720300,1.27672021484375,-0.0005233571864664555,-0.0000461675226688385,0.0011630672961473465
1761476333115753500,1.28675341796875,-0.002196354791522026,0.00235919957049191,-0.0011586770415306091
1761476333125786400,1.296786376953125,0.00014152750372886658,0.000990360975265503,0.0018717404454946518
1761476333135820300,1.3068203125,-0.0036713206209242344,-0.0008493503555655479,-0.0009631942957639694
1761476333145853200,1.316853271484375,-0.00021789129823446274,-0.003386006224900484,0.0005822889506816864
1761476333155886300,1.32688623046875,-0.001775308046489954,-0.006058488506823778,0.002565012313425541
1761476333165920300,1.336920166015625,-0.000653799157589674,-0.008881023153662682,-0.0010644244030117989
1761476333175953400,1.346953369140625,-0.000038875266909599304,-0.007782203145325184,0.002973726950585842
1761476333185986300,1.356986328125,-0.0022759363055229187,-0.004331744275987148,-0.0018248436972498894
1761476333196020500,1.3670205078125,0.0009725876152515411,-0.002067791298031807,-0.0022762492299079895
1761476333206053400,1.377053466796875,0.000041872262954711914,0.0050968690775334835,-0.0008130641654133797
1761476333216086300,1.387086181640625,-0.002181068528443575,0.0059152585454285145,-0.001025584526360035
1761476333226120200,1.3971201171875,0.0004951953887939453,0.008728708140552044,0.0012589478865265846
1761476333236153300,1.4071533203125,0.0011604530736804008,0.009312473237514496,-0.000059849582612514496
1761476333246186200,1.417186279296875,-0.00013352371752262115,0.00762764411047101,0.0005858875811100006
1761476333256220400,1.427220458984375,-0.0003532338887453079,0.00073644844815135,0.0009198477491736412
1761476333266253300,1.43725341796875,-0.0017287586815655231,-0.004711913410574198,-0.0015484858304262161
1761476333276286500,1.447286376953125,-0.001231280155479908,-0.011312291026115417,-0.0033455872908234596
1761476333286320000,1.457320068359375,-0.00014982186257839203,-0.010911006480455399,-0.0005463510751724243
1761476333296353300,1.467353271484375,-0.00096501549705863,-0.006929047871381044,0.0014174636453390121
1761476333306386200,1.47738623046875,-0.002813090104609728,0.004580927547067404,-0.0010387049987912178
1761476333316420400,1.48742041015625,-0.0036376044154167175,0.008607360534369946,0.002122999168932438
1761476333326453200,1.497453369140625,-0.0009823800064623356,0.008135568350553513,0.0006418786942958832
1761476333336486400,1.507486328125,-0.0022822688333690166,0.003898478578776121,-0.002001841552555561
1761476333346520000,1.51752001953125,-0.001569768413901329,-0.0013732174411416054,-0.0010467274114489555
1761476333356553200,1.52755322265625,-0.0028350362554192543,-0.003604147583246231,-0.0030803177505731583
1761476333366586000,1.537586181640625,-0.0006778733804821968,-0.0060058459639549255,-0.0012689465656876564
1761476333376620300,1.547620361328125,-0.001440602820366621,-0.002390604466199875,0.001560661941766739
1761476333386653200,1.557653076171875,-0.001975045073777437,-0.000731899868696928,0.000700799748301506
1761476333396686300,1.567686279296875,-0.0003486527130007744,0.0019139507785439491,-0.0001823045313358307
1761476333406720500,1.577720458984375,0.0015602950006723404,0.0030017171520739794,-0.0017612641677260399
1761476333416753400,1.58775341796875,0.0027994634583592415,0.004224907141178846,-0.0006629759445786476
1761476333426786300,1.597786376953125,0.0036612125113606453,0.0018007378093898296,0.0010949866846203804
1761476333436820200,1.6078203125,0.006153399124741554,0.004499585367739201,0.0018467968329787254
1761476333446853400,1.617853271484375,0.0032927924767136574,0.004168851301074028,-0.0033044591546058655
1761476333456886300,1.62788623046875,0.004608127288520336,0.006514296866953373,-0.0004538120701909065
1761476333466920400,1.63792041015625,0.004166523925960064,0.0054187895730137825,0.000004259869456291199
1761476333476953300,1.647953369140625,0.005303426645696163,0.004473899956792593,-0.0009992197155952454
1761476333486986500,1.657986572265625,0.0038895010948181152,0.005112375132739544,0.0017077168449759483
1761476333497020200,1.668020263671875,0.004399762488901615,0.0066239857114851475,-0.0010499870404601097
1761476333507048700,1.678048583984375,0.004227509722113609,0.006310149561613798,-0.004328377544879913
1761476333517081600,1.68808154296875,0.004131103865802288,0.006098428275436163,-0.001782395876944065
1761476333527115500,1.698115478515625,0.0029882872477173805,0.005312707740813494,-0.00177687406539917
1761476333537148400,1.7081484375,0.0017477869987487793,0.002026899252086878,0.0005235644057393074
1761476333547181600,1.718181640625,-0.0005693766288459301,-0.007749008480459452,-0.0003369450569152832
1761476333557215500,1.728215576171875,-0.0013486174866557121,-0.011195138096809387,0.0043129343539476395
1761476333567248600,1.73824853515625,-0.0005733706057071686,-0.012468598783016205,0.0006834249943494797
1761476333577281500,1.748281494140625,0.00025460589677095413,-0.01141292043030262,-0.002311299555003643
1761476333587315500,1.7583154296875,0.00038339197635650635,-0.012322243303060532,-0.007013679016381502
1761476333597348400,1.768348388671875,-0.0014062519185245037,-0.010610895231366158,-0.0010812217369675636
1761476333607381500,1.778381591796875,-0.004476288333535194,-0.0074153076857328415,0.00021842215210199356
1761476333617415400,1.78841552734375,-0.0052107879891991615,-0.0026154927909374237,0.0026307133957743645
1761476333627448600,1.798448486328125,-0.003488627728074789,0.0036563104949891567,-0.0025682467967271805
1761476333637481500,1.8084814453125,-0.00325453607365489,0.005240624770522118,-0.0019317511469125748
1761476333647515600,1.818515625,0.001532386988401413,0.002967171836644411,-0.002016853541135788
1761476333657548500,1.828548583984375,0.0011222604662179947,0.004573324229568243,-0.000004302710294723511
1761476333667581400,1.83858154296875,0.0023461980745196342,0.002590721007436514,0.00323684886097908
1761476333677615400,1.848615478515625,0.002405320294201374,0.009600959718227386,0.0024253837764263153
1761476333687648500,1.8586484375,0.00048278458416461945,0.008470684289932251,-0.0008362457156181335
1761476333697681400,1.868681396484375,0.003531571477651596,0.004006160888820887,-0.0014804638922214508
1761476333707715600,1.878715576171875,0.0011459635570645332,-0.005884138401597738,-0.0028267744928598404
1761476333717748500,1.88874853515625,0.0010391706600785255,-0.012526063248515129,-0.0053961919620633125
1761476333727781600,1.89878173828125,0.003023429773747921,-0.013133006170392036,-0.0008413055911660194
1761476333737815600,1.908815673828125,0.003034348599612713,-0.007727322168648243,-0.0009550219401717186
1761476333747848400,1.918848388671875,0.002404306083917618,0.006097717676311731,0.0008612247183918953
1761476333757881300,1.92888134765625,-0.00020053237676620483,0.01323445700109005,-0.0014482680708169937
1761476333767915500,1.93891552734375,-0.0009246976114809513,0.017130278050899506,-0.004164023324847221
1761476333777948700,1.94894873046875,-0.0009148437529802322,0.015255145728588104,-0.001057712361216545
1761476333787981600,1.958981689453125,-0.0022841859608888626,0.002177691087126732,0.001492171548306942
1761476333798015500,1.969015380859375,-0.001972862519323826,-0.009337818250060081,-0.0018463674932718277
1761476333808048400,1.97904833984375,0.00028736237436532974,-0.009966793470084667,-0.0009186752140522003
1761476333818081500,1.98908154296875,0.0012128101661801338,-0.013209193013608456,0.002020656131207943
1761476333828115500,1.999115478515625,0.0023810314014554024,-0.007014591246843338,-0.0013585090637207031
1761476333838148600,2.009148681640625,-0.0008190232329070568,0.0003226837143301964,-0.0018658414483070374
1761476333848181500,2.019181396484375,-0.0016853492707014084,0.002743230666965246,-0.0016306843608617783
1761476333858215700,2.029215576171875,-0.003178051207214594,0.0041070356965065,0.00006761308759450912
1761476333868248600,2.03924853515625,-0.004794321954250336,0.0022395974956452847,-0.001393985003232956
1761476333878281500,2.049281494140625,-0.0013852091506123543,-0.003185261506587267,-0.004683521576225758
1761476333888315400,2.0593154296875,-0.0010321270674467087,-0.004471686203032732,-0.0017922557890415192
1761476333898348500,2.0693486328125,0.0014406181871891022,-0.009099461138248444,-0.0020729536190629005
1761476333908381400,2.07938134765625,0.003027002327144146,-0.004839474800974131,-0.0006960108876228333
1761476333918415600,2.08941552734375,-0.0007810518145561218,0.0022509254049509764,-0.0020390432327985764
1761476333928448500,2.099448486328125,0.0009632157161831856,0.004388943314552307,-0.005207662004977465
1761476333938481700,2.109481689453125,0.0011709416285157204,0.004378024488687515,-0.0017825709655880928
1761476333948515300,2.119515380859375,-0.0016823657788336277,0.004283692687749863,-0.0013893283903598785
1761476333958548500,2.129548583984375,-0.001602737233042717,-0.005465340800583363,-0.002795211039483547
1761476333968581400,2.139581298828125,0.0031895171850919724,-0.005189704708755016,-0.0030487924814224243
1761476333978615600,2.149615478515625,0.001789758913218975,-0.007554059848189354,-0.000995761714875698
1761476333988648400,2.1596484375,0.0013862894847989082,-0.005831762682646513,-0.0022830767557024956
1761476333998681600,2.169681640625,0.0017498107627034187,-0.003210946451872587,-0.0018058381974697113
1761476334008715500,2.179715576171875,-0.0007772115059196949,-0.0020406050607562065,-0.004777209367603064
1761476334018748400,2.18974853515625,0.000819619745016098,0.0002976497635245323,-0.004076797515153885
1761476334028781300,2.19978125,-0.002584544476121664,-0.00182770611718297,-0.0016179978847503662
1761476334038815500,2.2098154296875,-0.001037514302879572,-0.0002468531019985676,-0.0021897777915000916
1761476334048848600,2.2198486328125,-0.0025506126694381237,0.004348878748714924,0.0024293577298521996
1761476334058881500,2.229881591796875,-0.0028249179013073444,0.0036953387316316366,-0.002028774470090866
1761476334068915700,2.239915771484375,-0.0022805179469287395,0.0024781518150120974,-0.0024911845102906227
1761476334078948600,2.249948486328125,-0.0009220391511917114,-0.002295031677931547,-0.003594266250729561
1761476334088981500,2.2599814453125,0.0020236345008015633,-0.007030569948256016,0.0008700238540768623
1761476334099015400,2.270015380859375,-0.0011884034611284733,-0.0060183024033904076,-0.0019031260162591934
1761476334109048600,2.280048583984375,-0.0022430135868489742,-0.007972558960318565,-0.000018462538719177246
1761476334119081500,2.29008154296875,0.002029229886829853,-0.002570337150245905,-0.0013130251318216324
1761476334129115600,2.30011572265625,-0.00093886349350214,0.0024661715142428875,-0.002162153832614422
1761476334139148500,2.3101484375,-0.0008259452879428864,0.0010919803753495216,-0.0030905315652489662
1761476334149181700,2.320181640625,0.0012668697163462639,-0.0018930966034531593,-0.0014037936925888062
1761476334159215400,2.33021533203125,0.0002753753215074539,-0.0007972060702741146,0.0009275376796722412
1761476334169248500,2.34024853515625,0.0019320175051689148,-0.005796406883746386,-0.0026766695082187653
1761476334179281400,2.350281494140625,0.0027181822806596756,-0.0009856726974248886,-0.00141060259193182
1761476334189315600,2.360315673828125,0.0038094986230134964,0.008371170610189438,-0.0009037712588906288
1761476334199348500,2.370348388671875,0.004497659392654896,0.01337818056344986,-0.0013879332691431046
1761476334209381600,2.380381591796875,0.004386975429952145,0.015983281657099724,0.00031333696097135544
1761476334219415600,2.39041552734375,0.002065763808786869,0.010769078508019447,-0.0020867036655545235
1761476334229448400,2.400448486328125,0.0008722450584173203,-0.001355405431240797,0.0003250371664762497
1761476334239481300,2.4104814453125,-0.0025520469062030315,-0.021779455244541168,0.004254532046616077
1761476334249515500,2.420515625,-0.005794292315840721,-0.03643675893545151,0.001052151434123516
1761476334259548400,2.43054833984375,-0.005404139403253794,-0.03333017975091934,-0.001935116946697235
1761476334269581600,2.44058154296875,-0.0025210543535649776,-0.024915507063269615,-0.001133900135755539
1761476334279615500,2.450615478515625,-0.0028776517137885094,-0.0107410978525877,-0.0028268713504076004
1761476334289648600,2.460648681640625,-0.0015084645710885525,0.0026019623037427664,0.00015887431800365448
1761476334299681500,2.470681640625,-0.0032570958137512207,0.013637568801641464,0.0036007435992360115
1761476334309715500,2.480715576171875,-0.0005766735412180424,0.018594838678836823,0.0022590169683098793
1761476334319748400,2.490748291015625,-0.002178564667701721,0.01683289185166359,0.001638234592974186
1761476334329782500,2.500782470703125,-0.000857161357998848,0.007389824837446213,0.00042786356061697006
1761476334339815700,2.510815673828125,0.001081353984773159,-0.0024116728454828262,-0.0010957308113574982
1761476334349848600,2.5208486328125,0.0036714943125844,-0.005882215686142445,0.0010862257331609726
1761476334359882500,2.530882568359375,0.0021825209259986877,-0.0017697624862194061,0.001400478184223175
1761476334369915400,2.540915283203125,0.0025544045493006706,0.0055158184841275215,-0.0011282013729214668
1761476334379948500,2.550948486328125,0.0040111541748046875,0.014025682583451271,0.0021275123581290245
1761476334389982500,2.560982421875,0.00009587220847606659,0.01249015610665083,0.0022893166169524193
1761476334400015600,2.571015625,0.0024479757994413376,0.006881805136799812,0.0002621188759803772
1761476334410048500,2.581048583984375,0.005113208666443825,0.002720549004152417,0.0020850272849202156
1761476334420082700,2.591082763671875,0.004263659939169884,-0.005998640786856413,-0.0029984144493937492
1761476334430115600,2.601115478515625,0.002298620529472828,-0.0009030052460730076,-0.001161695457994938
1761476334440148500,2.6111484375,0.003744717687368393,0.0008568116463720798,-0.00011480692774057388
1761476334450182400,2.621182373046875,0.0028146496042609215,0.006443721242249012,-0.0009556114673614502
1761476334460215600,2.631215576171875,0.0015744157135486603,0.007837086915969849,0.004014645703136921
1761476334470248400,2.64124853515625,-0.0009083538316190243,0.009939763695001602,0.004027156159281731
1761476334480282600,2.65128271484375,-0.0027952035889029503,0.005762595217674971,-0.0009979614987969398
1761476334490315500,2.6613154296875,-0.003718994092196226,0.000429387204349041,0.00202096626162529
1761476334500349000,2.671348876953125,-0.002473700325936079,-0.002098485827445984,0.001240394078195095
1761476334510383000,2.681383056640625,-0.0018099448643624783,-0.00303347734734416,0.0005531767383217812
1761476334520416000,2.691416015625,-0.0012368327006697655,-0.003277955111116171,-0.0007408531382679939
1761476334530449000,2.701448974609375,-0.003135118167847395,-0.00020352890715003014,-0.002339123748242855
1761476334540483000,2.711483154296875,-0.00008713081479072571,0.00760326161980629,0.000561058521270752
1761476334550516200,2.72151611328125,-0.0014737341552972794,0.0113503597676754,0.0009611668065190315
1761476334560549000,2.731549072265625,-0.0009139380417764187,0.01219218596816063,-0.000960037112236023
1761476334570583000,2.7415830078125,-0.001239962875843048,0.006902762688696384,-0.0008283378556370735
1761476334580616000,2.751615966796875,-0.0007701809518039227,0.002056342549622059,0.001075022853910923
1761476334590649000,2.761649169921875,-0.0014243614859879017,-0.0024001039564609528,0.0006836550310254097
1761476334600683000,2.77168310546875,0.0017224298790097237,0.00016372092068195343,-0.003411487676203251
1761476334610716200,2.781716064453125,-0.00013833027333021164,0.004365733824670315,0.0017559994012117386
1761476334620749000,2.7917490234375,0.0011317310854792595,0.005636594258248806,-0.0009103575721383095
1761476334630783000,2.801782958984375,0.0011831894516944885,0.006175951100885868,0.00363009050488472
1761476334640815900,2.81181591796875,0.0010830545797944069,0.0013215411454439163,-0.00015079881995916367
1761476334650849000,2.82184912109375,-0.0007026451639831066,-0.0047902911901474,-0.0015267683193087578
1761476334660883000,2.831883056640625,0.0014678314328193665,-0.008665723726153374,-0.0024498198181390762
1761476334670916000,2.841916015625,0.001631508581340313,-0.009937590919435024,-0.0001080390065908432
1761476334680949000,2.851948974609375,0.002709822729229927,-0.005351627245545387,-0.0006702318787574768
1761476334690983200,2.861983154296875,0.0022791801020503044,0.0014853174798190594,0.00006442330777645111
1761476334701016000,2.87201611328125,0.0018647918477654457,0.010508107021450996,-0.00010362174361944199
1761476334711049000,2.882049072265625,0.0014143548905849457,0.012860191985964775,-0.0013780361041426659
1761476334721083000,2.892082763671875,0.0021903999149799347,0.010919280350208282,0.0022377371788024902
1761476334731116000,2.902115966796875,0.0022372091189026833,0.008293097838759422,0.0019357623532414436
1761476334741149000,2.91214892578125,0.00016953051090240479,0.004406746476888657,0.0025421641767024994
1761476334751183000,2.92218310546875,-0.0021781432442367077,0.002359289675951004,0.0004040868952870369
1761476334761216000,2.932216064453125,-0.0006766528822481632,-0.0020178817212581635,0.0004863785579800606
1761476334771249200,2.942249267578125,-0.0034356452524662018,-0.006730951368808746,-0.0027173878625035286
1761476334781282800,2.95228271484375,0.0009937239810824394,-0.007789025083184242,-0.00037780124694108963
1761476334791316000,2.96231591796875,0.0029736924916505814,-0.003168072085827589,0.00028016697615385056
1761476334801348900,2.972348876953125,0.0017291978001594543,-0.0014362186193466187,0.004825117066502571
1761476334811383000,2.982383056640625,0.001472199335694313,0.005245239939540625,0.0036394353955984116
1761476334821416000,2.992416015625,0.002092716284096241,0.011139614507555962,-0.00034172460436820984
1761476334831450000,3.0024501953125,0.0001364629715681076,0.012928161770105362,0.001361887902021408
1761476334841483000,3.01248291015625,0.002701885998249054,0.011444248259067535,0.0014859912917017937
1761476334851516000,3.022515869140625,-0.002295435406267643,0.008395721204578876,-0.0002229195088148117
1761476334861550000,3.032550048828125,0.0013765310868620872,-0.0006678146310150623,-0.00165569968521595
1761476334871583000,3.0425830078125,-0.001282528042793274,-0.0051140207797288895,0.0007160492241382599
1761476334881616100,3.0526162109375,-0.0034466125071048737,-0.015027371235191822,0.006120402365922928
1761476334891650000,3.062650146484375,-0.001121466513723135,-0.0155121348798275,0.004836465232074261
1761476334901683200,3.07268310546875,-0.0033707721158862114,-0.011872392147779465,-0.002155665308237076
1761476334911716000,3.082716064453125,-0.0006457576528191566,-0.011823667213320732,-0.001730223186314106
1761476334921750000,3.09275,0.00039580464363098145,-0.009862516075372696,-0.003252485767006874
1761476334931783000,3.102782958984375,-0.000005957670509815216,-0.009210458025336266,0.003239003010094166
1761476334941816000,3.112816162109375,-0.001988148782402277,-0.004641006700694561,0.0022922493517398834
1761476334951850000,3.12285009765625,-0.0007140436209738255,0.005005731247365475,0.003062251955270767
1761476334961883100,3.132883056640625,-0.0009105848148465157,0.010895045474171638,-0.0005599129945039749
1761476334971916000,3.142916015625,-0.0012709135189652443,0.01171958725899458,0.003963785246014595
1761476334981950000,3.152949951171875,0.0026631085202097893,0.013802711851894855,0.0018894486129283905
1761476334991982800,3.16298291015625,-0.0010132864117622375,0.01070518046617508,0.0029110759496688843
1761476335002016000,3.17301611328125,-0.0004851813428103924,0.008322717621922493,0.002478046342730522
1761476335012050000,3.1830498046875,-0.0022339606657624245,0.0035397822503000498,-0.0015502572059631348
1761476335022083000,3.1930830078125,0.0004446469247341156,-0.0016528493724763393,0.0007046414539217949
1761476335032116000,3.203115966796875,0.001194431446492672,-0.007866567000746727,-0.0019300337880849838
1761476335042150100,3.213150146484375,0.0032205646857619286,-0.011535870842635632,-0.0013089850544929504
1761476335052183000,3.22318310546875,-0.0004777112044394016,-0.008783699944615364,-0.0018288157880306244
1761476335062216000,3.2332158203125,0.0029625603929162025,-0.0010006106458604336,-0.0002442356199026108
1761476335072250000,3.24325,0.0023924848064780235,0.009702573530375957,-0.00033724308013916016
1761476335082283000,3.253282958984375,0.0028324387967586517,0.017662229016423225,0.0032058265060186386
1761476335092316000,3.26331591796875,-0.000197715125977993,0.018957700580358505,-0.0007676631212234497
1761476335102350000,3.27335009765625,-0.0011812206357717514,0.013694762252271175,0.002016938291490078
1761476335112383200,3.28338330078125,-0.003614860586822033,0.004561755806207657,0.0004157703369855881
1761476335122416000,3.293416015625,0.0010605845600366592,-0.0062256441451609135,-0.0018604332581162453
1761476335132450000,3.303449951171875,-0.0016826861537992954,-0.015739906579256058,-0.0015896717086434364
1761476335142483000,3.31348291015625,0.0019650449976325035,-0.014890890568494797,0.0006796075031161308
1761476335152516000,3.32351611328125,0.0005942108109593391,-0.01369297131896019,-0.0017395997419953346
1761476335162550000,3.333550048828125,0.0018770555034279823,-0.004336752463132143,0.0017920173704624176
1761476335172583200,3.343583251953125,0.0012926515191793442,0.003317231312394142,0.0015055276453495026
1761476335182616000,3.353615966796875,-0.0010432074777781963,0.009756755083799362,0.0012663761153817177
1761476335192650000,3.36364990234375,0.0012830505147576332,0.008071905001997948,0.0008626356720924377
1761476335202683000,3.373682861328125,0.0014212680980563164,0.00332295591942966,0.001610451377928257
1761476335212716000,3.383716064453125,0.0007093632593750954,-0.0014176643453538418,-0.0002939905971288681
1761476335222750000,3.39375,-0.0005119624547660351,-0.005863811820745468,0.0003454340621829033
1761476335232783000,3.403783203125,0.0010555246844887733,-0.005740150343626738,-0.00279040914028883
1761476335242817000,3.413817138671875,-0.000030511990189552307,0.004020867869257927,0.0036677559837698936
1761476335252850200,3.42385009765625,0.0020661894232034683,0.013042144477367401,0.001398373395204544
1761476335262883000,3.433883056640625,-0.0008632875978946686,0.01306345034390688,-0.0011364230886101723
1761476335272917000,3.4439169921875,-0.0021857130341231823,0.007005817722529173,0.00039360206574201584
1761476335282950000,3.453949951171875,-0.0034054405987262726,-0.0034705251455307007,-0.001446109265089035
1761476335292983000,3.463983154296875,-0.0013797245919704437,-0.01350438967347145,-0.0037579545751214027
1761476335303017000,3.474016845703125,-0.0015935767441987991,-0.015860753133893013,0.0008160248398780823
1761476335313050000,3.484050048828125,-0.00025481171905994415,-0.018588310107588768,-0.0028321323916316032
1761476335323083000,3.4940830078125,-0.002309173811227083,-0.007285854313522577,-0.0009460821747779846
1761476335333117000,3.504116943359375,-0.0017344038933515549,0.0012698518112301826,0.00000596512109041214
1761476335343149800,3.51414990234375,-0.0015261443331837654,0.008374899625778198,-0.0008680848404765129
1761476335353183000,3.524182861328125,-0.0008967430330812931,0.011829601600766182,0.002729993313550949
1761476335363217200,3.534217041015625,0.0001592002809047699,0.011371538043022156,0.0016799094155430794
1761476335373250000,3.54425,-0.004851485136896372,0.00503359641879797,0.00003340281546115875
1761476335383283000,3.554282958984375,-0.0027198907919228077,-0.0031260629184544086,0.0003974577412009239
1761476335393316900,3.56431689453125,-0.002868067007511854,-0.005890923086553812,-0.002071280963718891
1761476335403350000,3.57435009765625,-0.002709608990699053,-0.006405977997928858,-0.0030350787565112114
1761476335413383000,3.5843828125,-0.0014633480459451675,-0.009622830897569656,-0.001237805001437664
1761476335423417000,3.5944169921875,0.00000218953937292099,-0.006284026894718409,-0.0032793842256069183
1761476335433450000,3.604449951171875,0.0022782282903790474,-0.005889883730560541,0.0009423000738024712
1761476335443483100,3.614483154296875,0.0031136618927121162,-0.003807291854172945,0.0028275521472096443
1761476335453517000,3.62451708984375,0.00345737487077713,0.004395514726638794,0.00024051591753959656
1761476335463550200,3.63455029296875,0.0048363590613007545,0.0069902329705655575,0.00023359153419733047
1761476335473583000,3.6445830078125,0.0019128918647766113,0.014458940364420414,0.0024210670962929726
1761476335483617000,3.654616943359375,0.0007698629051446915,0.011234650388360023,-0.0026775551959872246
1761476335493650000,3.66464990234375,0.001783415675163269,0.0065454537980258465,-0.0008862782269716263
1761476335503686700,3.674686767578125,-0.002974321600049734,-0.006585528142750263,0.0007377173751592636
1761476335513720800,3.684720947265625,-0.0016069472767412663,-0.020310454070568085,0.003489231690764427
1761476335523753700,3.694753662109375,0.00017497409135103226,-0.02696169912815094,0.0019528549164533615
1761476335533786600,3.70478662109375,0.0005874456837773323,-0.025237685069441795,-0.0016856854781508446
1761476335543820500,3.714820556640625,0.0005514929071068764,-0.018635177984833717,-0.003655092790722847
1761476335553853700,3.724853759765625,0.002033107914030552,-0.013124010525643826,0.0001674378290772438
1761476335563886600,3.734886474609375,0.0015164539217948914,-0.005585134029388428,0.0002446696162223816
1761476335573920800,3.744920654296875,-0.002519981935620308,-0.0006731627508997917,0.0026903916150331497
1761476335583953700,3.75495361328125,0.0013136379420757294,0.005930145271122456,0.00009567383676767349
1761476335593986800,3.76498681640625,0.002511151134967804,0.003691935446113348,0.00006266962736845016
1761476335604020500,3.7750205078125,0.0016088718548417091,0.003753986908122897,-0.0015168515965342522
1761476335614053600,3.7850537109375,0.0039820596575737,0.00043798796832561493,0.00025784503668546677
1761476335624086500,3.79508642578125,0.0019183764234185219,0.00020416220650076866,0.0020118029788136482
1761476335634120700,3.80512060546875,0.0013630557805299759,-0.0006681396625936031,0.0013501476496458054
1761476335644153600,3.815153564453125,0.0018839705735445023,0.0018331012688577175,0.0037667006254196167
1761476335654187800,3.825187744140625,-0.0001687314361333847,0.007765567861497402,0.0013860147446393967
1761476335664220700,3.835220703125,0.0002983873710036278,0.006179389078170061,0.004000173881649971
1761476335674253800,3.84525390625,0.0009845662862062454,0.003382702823728323,0.001407860778272152
1761476335684287500,3.85528759765625,-0.000008260831236839294,0.003248745808377862,-0.0017423927783966064
1761476335694320600,3.865320556640625,-0.00082009332254529,-0.00008419295772910118,0.0002829013392329216
1761476335704353500,3.875353515625,-0.0005085035227239132,-0.001689279917627573,-0.0020023565739393234
1761476335714387700,3.8853876953125,-0.00286939088255167,0.00008619483560323715,-0.0002442430704832077
1761476335724420600,3.895420654296875,-0.0021759038791060448,0.002718196948990226,-0.0012597059831023216
1761476335734453800,3.905453857421875,-0.0016531231813132763,0.0049765282310545444,-0.00032419338822364807
1761476335744487400,3.9154873046875,-0.005424425937235355,0.006382410880178213,-0.00009596068412065506
1761476335754520600,3.9255205078125,-0.0014175539836287498,0.009212212637066841,-0.001958247274160385
1761476335764553500,3.935553466796875,-0.00016187317669391632,0.004221182782202959,-0.0008008377626538277
1761476335774587600,3.945587646484375,-0.0012461431324481964,0.00026530446484684944,0.0007306542247533798
1761476335784620500,3.95562060546875,-0.0005294866859912872,-0.004443963058292866,-0.0007223663851618767
1761476335794653700,3.96565380859375,-0.00032475218176841736,-0.008162308484315872,0.0008300179615616798
1761476335804687600,3.9756875,-0.0031202719546854496,-0.005148408934473991,0.0006720926612615585
1761476335814720500,3.985720458984375,-0.0008997167460620403,-0.006407123990356922,0.0019288966432213783
1761476335824753400,3.99575341796875,-0.002065915148705244,-0.004974876530468464,-0.0007747448980808258
1761476335834787600,4.00578759765625,-0.0007719490677118301,-0.0015663071535527706,0.0010677129030227661
1761476335844817700,4.015817626953125,0.0005660234019160271,0.0031645323615521193,-0.0005150036886334419
1761476335854850600,4.0258505859375,-0.0011108526960015297,0.00563234556466341,-0.0008854055777192116
1761476335864883700,4.0358837890625,0.0016689551994204521,0.010893153958022594,-0.0002595623955130577
1761476335874917600,4.045917724609375,0.001417337916791439,0.015061118640005589,-0.002125243656337261
1761476335884950500,4.055950439453125,0.001002950593829155,0.014005175791680813,0.0019624419510364532
1761476335894983400,4.0659833984375,0.0025300011038780212,0.01366434432566166,0.0004727747291326523
1761476335905017600,4.076017578125,0.0037603816017508507,0.0068557062186300755,-0.0021014371886849403
1761476335915050800,4.08605078125,0.0025789057835936546,-0.0013423538766801357,-0.004108545370399952
1761476335925083600,4.096083740234375,0.0026212502270936966,-0.012422969564795494,-0.004505356308072805
1761476335935117800,4.106117919921875,0.005272683687508106,-0.013250835239887238,-0.003459586761891842
1761476335945150700,4.116150634765625,0.0051416559144854546,-0.005978807341307402,-0.0034582549706101418
1761476335955183900,4.126183837890625,0.005220388062298298,0.005185113288462162,-0.00020109210163354874
1761476335965217500,4.136217529296875,0.004055255092680454,0.018417295068502426,0.003912958316504955
1761476335975250700,4.146250732421875,0.0009956471621990204,0.021725524216890335,-0.00039668474346399307
1761476335985283600,4.15628369140625,-0.0003226175904273987,0.024116510525345802,0.0058984942734241486
1761476335995317800,4.16631787109375,0.0015229089185595512,0.016134019941091537,0.0030401041731238365
1761476336005350700,4.1763505859375,0.0027682026848196983,0.0050720470026135445,-0.0016374718397855759
1761476336015383800,4.1863837890625,0.003139651380479336,-0.003450344316661358,-0.0029050512239336967
1761476336025417500,4.19641748046875,0.0034275390207767487,-0.007930313237011433,0.0005203066393733025
1761476336035450600,4.20645068359375,0.004102498292922974,-0.007813007570803165,-0.0012740874662995338
1761476336045483500,4.2164833984375,0.004397310316562653,-0.0012629623524844646,-0.0009457189589738846
1761476336055517700,4.226517578125,0.004716888070106506,0.00389614119194448,0.00009323284029960632
1761476336065550600,4.236550537109375,0.005029010586440563,0.007930031046271324,-0.002804020419716835
1761476336075583700,4.246583740234375,0.00613103061914444,0.011625908315181732,0.004167228005826473
1761476336085617700,4.25661767578125,0.0045166220515966415,0.012808086350560188,0.004319294355809689
1761476336095650600,4.266650634765625,0.000003893859684467316,0.010142024606466293,0.0034439684823155403
1761476336105683500,4.276683349609375,-0.003119461704045534,0.01180463656783104,0.0032242583110928535
1761476336115717600,4.286717529296875,-0.0026715178973972797,0.010211266577243805,-0.0018581179901957512
1761476336125750500,4.29675048828125,-0.002851014956831932,0.009728701785206795,-0.0002168118953704834
1761476336135783700,4.30678369140625,-0.004707190208137035,0.0027580501046031713,-0.004635562188923359
1761476336145817600,4.316817626953125,-0.006428391207009554,-0.0033057010732591152,-0.004085619002580643
1761476336155850800,4.326850830078125,-0.007535459473729134,-0.01538008451461792,-0.0007156608626246452
1761476336165883600,4.336883544921875,-0.008527486585080624,-0.027088671922683716,0.0007133912295103073
1761476336175917600,4.34691748046875,-0.006537626963108778,-0.02804134227335453,-0.00017958320677280426
1761476336185950500,4.356950439453125,-0.007299024611711502,-0.022550703957676888,-0.0006091510877013206
1761476336195983600,4.366983642578125,-0.004393573850393295,-0.012829932384192944,-0.0015582684427499771
1761476336206017800,4.377017822265625,-0.0038124723359942436,-0.006515577435493469,-0.002292235381901264
1761476336216050700,4.38705078125,-0.00003925710916519165,-0.004778787028044462,0.0014659296721220016
1761476336226083600,4.39708349609375,-0.0030574179254472256,-0.005222736392170191,0.000361517071723938
1761476336236117500,4.407117431640625,-0.002127169631421566,-0.005776725709438324,-0.002641301602125168
1761476336246150700,4.417150634765625,-0.0019876202568411827,-0.003245391882956028,-0.000600786879658699
1761476336256183600,4.42718359375,0.00312883872538805,0.002519339555874467,-0.0006949594244360924
1761476336266217700,4.4372177734375,0.0029333634302020073,0.007958313450217247,0.0016134688630700111
1761476336276250600,4.447250732421875,0.006575671024620533,0.011559389531612396,0.002373119816184044
1761476336286284800,4.457284912109375,0.00824068021029234,0.016853753477334976,0.0019099954515695572
1761476336296317700,4.467317626953125,0.007232513278722763,0.013692522421479225,0.003991992212831974
1761476336306350600,4.4773505859375,0.007177120074629784,0.008471660315990448,-0.0004416387528181076
1761476336316384500,4.487384521484375,0.005346243269741535,-0.002000219654291868,0.0015714671462774277
1761476336326417700,4.497417724609375,0.0067300209775567055,-0.013091754168272018,-0.0011252490803599358
1761476336336450600,4.507450439453125,0.00859604962170124,-0.01906539499759674,-0.00042587053030729294
1761476336346484700,4.517484619140625,0.00459172111004591,-0.014222703874111176,-0.0029508136212825775
1761476336356517600,4.527517578125,0.0052308812737464905,-0.004945704713463783,-0.00268552266061306
1761476336366550800,4.53755078125,0.005649530328810215,0.006376991048455238,-0.0026106880977749825
1761476336376584400,4.54758447265625,0.002466728910803795,0.014958555810153484,-0.0017382977530360222
1761476336386617600,4.55761767578125,0.0014904141426086426,0.012941477820277214,-0.0011851591989398003
1761476336396650500,4.567650390625,-0.0023022955283522606,0.013021018356084824,0.0013448987156152725
1761476336406684700,4.5776845703125,-0.0030517089180648327,0.0014820732176303864,0.0021342597901821136
1761476336416717600,4.587717529296875,-0.007302220445126295,-0.0021546483039855957,-0.0022776778787374496
1761476336426750700,4.597750732421875,-0.0037596835754811764,-0.00849723257124424,-0.0007506208494305611
1761476336436785700,4.60778564453125,-0.0012439554557204247,-0.010433114133775234,-0.002856125123798847
1761476336446818600,4.617818603515625,-0.0024610203690826893,-0.008731619454920292,-0.0037581371143460274
1761476336456851700,4.627851806640625,-0.0016550947912037373,-0.008505132049322128,0.0019720476120710373
1761476336466885600,4.6378857421875,-0.001442308072000742,-0.002778803464025259,-0.0019238907843828201
1761476336476918800,4.647918701171875,-0.004224247299134731,0.004181397147476673,-0.00064072385430336
1761476336486951700,4.65795166015625,-0.0025376672856509686,0.006738563999533653,-0.0005280720070004463
1761476336496985600,4.667985595703125,-0.0026699835434556007,0.009237072430551052,-0.0004364410415291786
1761476336507016000,4.678015869140625,-0.0030521475709974766,0.0058418079279363155,-0.0001429608091711998
1761476336517049000,4.688049072265625,-0.0027053384110331535,0.006364834029227495,-0.0010323282331228256
1761476336527083000,4.6980830078125,0.0016577187925577164,0.0024361389223486185,-0.0012946492061018944
1761476336537116200,4.7081162109375,0.0007242225110530853,-0.000677129253745079,-0.0008408129215240479
1761476336547149000,4.718149169921875,0.00015643704682588577,-0.003084094263613224,-0.0036467192694544792
1761476336557183000,4.728182861328125,0.0026261508464813232,-0.004280709661543369,-0.0018678829073905945
1761476336567215900,4.7382158203125,0.0018250718712806702,-0.0032093198969960213,-0.002261764369904995
1761476336577250000,4.74825,0.0033736461773514748,-0.004076799843460321,-0.005109287332743406
1761476336587283000,4.758282958984375,0.004795508459210396,-0.003386241849511862,-0.0010210685431957245
1761476336597316000,4.768316162109375,0.0007698209956288338,-0.002323994878679514,-0.0023665716871619225
1761476336607350000,4.77835009765625,0.00017779972404241562,0.0002962891012430191,-0.0022816164419054985
1761476336617383000,4.7883828125,0.0008820975199341774,0.0013813492842018604,-0.002005327492952347
1761476336627415800,4.798415771484375,0.001603282056748867,0.0014188997447490692,-0.0012279516085982323
1761476336637450000,4.808449951171875,-0.0016629868187010288,0.0016932268626987934,-0.0020904550328850746
1761476336647483100,4.818483154296875,0.0009362585842609406,0.0007480713538825512,0.003722691908478737
1761476336657516000,4.82851611328125,0.0005622534081339836,0.0029690666124224663,-0.0011031590402126312
1761476336667550200,4.83855029296875,-0.000642028171569109,0.0010710316710174084,-0.0037367595359683037
1761476336677583000,4.8485830078125,-0.00031723547726869583,-0.000717641320079565,-0.0028693536296486855
1761476336687616000,4.858615966796875,-0.00025624874979257584,0.0009220666252076626,-0.0021843882277607918
1761476336697650000,4.86864990234375,0.00122053362429142,-0.0017607957124710083,-0.0016273418441414833
1761476336707683000,4.87868310546875,-0.0007283673621714115,-0.0052047958597540855,-0.0008869832381606102
1761476336717716000,4.888716064453125,0.0005270447582006454,-0.0030217734165489674,0.0012084469199180603
1761476336727750100,4.898750244140625,0.0015763305127620697,-0.0026241629384458065,-0.0002965051680803299
1761476336737783000,4.908782958984375,0.00118282251060009,0.0023084846325218678,0.00015590060502290726
1761476336747816200,4.918816162109375,0.002825460396707058,0.005615065339952707,-0.0018558511510491371
1761476336757849900,4.928849853515625,0.002192741259932518,0.005758250132203102,-0.0028100935742259026
1761476336767883000,4.938883056640625,0.0030364301055669785,0.00469192024320364,-0.002236182801425457
1761476336777916000,4.948916015625,0.003563051111996174,0.0034429901279509068,-0.002540331333875656
1761476336787950000,4.9589501953125,0.002776353619992733,0.0006623836234211922,-0.0034916121512651443
1761476336797983000,4.96898291015625,0.002945464104413986,-0.009150831960141659,0.0005915462970733643
1761476336808016100,4.97901611328125,0.0012660743668675423,-0.01816030591726303,0.003924492746591568
1761476336818049800,4.9890498046875,-0.0006092721596360207,-0.02414052188396454,0.004701043479144573
1761476336828083000,4.9990830078125,-0.003764319233596325,-0.02137003466486931,0.004115947522222996
1761476336838115800,5.00911572265625,-0.0009431787766516209,-0.014072352088987827,0.0014776280149817467
1761476336848150000,5.01914990234375,-0.0011493074707686901,-0.007635759189724922,-0.0033056754618883133
1761476336858183000,5.029182861328125,-0.00067936722189188,-0.001237188931554556,-0.0006773369386792183
1761476336868216000,5.039216064453125,-0.0019390424713492393,0.0017868303693830967,0.0023466823622584343
1761476336878250200,5.049250244140625,-0.0016224458813667297,0.008507760241627693,0.0031655291095376015
1761476336888283100,5.059283203125,-0.001802209299057722,0.009708845987915993,-0.0015099169686436653
1761476336898316000,5.06931591796875,-0.004348087124526501,0.009579385630786419,0.0013417862355709076
1761476336908350000,5.079349853515625,-0.0030162399634718895,0.01358797587454319,0.000976666808128357
1761476336918383000,5.089383056640625,-0.002530528698116541,0.017100509256124496,0.002939445897936821
1761476336928416000,5.099416015625,-0.0018088119104504585,0.01141253113746643,0.001976447179913521
1761476336938450200,5.1094501953125,-0.0022011506371200085,0.008138646371662617,0.0019236970692873001
1761476336948483000,5.119483154296875,-0.001241613645106554,0.002999278251081705,0.0009407242760062218
1761476336958516200,5.12951611328125,0.003072707913815975,-0.004544420167803764,-0.00020502042025327682
1761476336968550000,5.1395498046875,0.0013472456485033035,-0.011945344507694244,-0.00029902998358011246
1761476336978583000,5.1495830078125,0.0019462453201413155,-0.008653651922941208,0.0003693830221891403
1761476336988616000,5.159615966796875,0.0012359805405139923,-0.0014218376018106937,-0.0009920252487063408
1761476336998650000,5.169650146484375,0.00006525125354528427,0.007236751727759838,-0.0005166949704289436
1761476337008683000,5.17968310546875,0.0011986931785941124,0.014387339353561401,0.0020961323752999306
1761476337018716200,5.189716064453125,-0.00040335580706596375,0.015618305653333664,0.0006440980359911919
1761476337028749800,5.199749755859375,-0.00242549367249012,0.011252585798501968,0.00003210362046957016
1761476337038783000,5.209782958984375,-0.003180712927132845,0.0001633036881685257,0.0008666012436151505
1761476337048815900,5.21981591796875,-0.00019131507724523544,-0.004976331256330013,-0.0012447526678442955
1761476337058850000,5.22985009765625,-0.0014082202687859535,-0.011368956416845322,-0.0008380813524127007
1761476337068883000,5.239883056640625,0.0008405530825257301,-0.0045478022657334805,0.003244544379413128
1761476337078916000,5.249916015625,-0.00114035839214921,0.0009715454652905464,-0.00040826015174388885
1761476337088950000,5.259949951171875,0.0005022790282964706,0.00296358997002244,0.0015254607424139977
1761476337098983200,5.269983154296875,0.0008381037041544914,0.008276296779513359,-0.0003478638827800751
1761476337109016000,5.28001611328125,0.0004580710083246231,0.008778302930295467,-0.002075457014143467
1761476337119050000,5.290050048828125,0.0007641753181815147,0.00664987787604332,-0.001784113235771656
1761476337129083000,5.300082763671875,0.0005378061905503273,0.003488705726340413,-0.0020469678565859795
1761476337139116000,5.310115966796875,-0.003618162591010332,-0.0012745335698127747,-0.0011064857244491577
1761476337149150000,5.32014990234375,0.0008836444467306137,-0.005743850022554398,0.00005598459392786026
1761476337159183000,5.33018310546875,0.0007477700710296631,-0.006310455035418272,-0.004618048667907715
1761476337169216000,5.340216064453125,0.000439375638961792,-0.006146404426544905,0.00012743845582008362
1761476337179250000,5.35025,-0.00009240489453077316,-0.0014034616760909557,-0.0017912397161126137
1761476337189282800,5.36028271484375,0.003038140945136547,0.002356921788305044,-0.002478867769241333
1761476337199316000,5.37031591796875,0.0015127351507544518,0.004098543897271156,0.0008260896429419518
1761476337209350100,5.38035009765625,0.004139943979680538,0.003921443596482277,-0.000037307851016521454
1761476337219383000,5.390383056640625,0.0010824734345078468,0.002252143807709217,-0.0011012479662895203
1761476337229416000,5.400416015625,0.003827393986284733,-0.0033242488279938698,0.0026870984584093094
1761476337239449900,5.410449951171875,0.0009117154404520988,-0.005295698530972004,-0.0011172015219926834
1761476337249483000,5.42048291015625,-0.0013871253468096256,-0.007674434222280979,-0.00251056719571352
1761476337259516000,5.430515869140625,-0.0004500672221183777,-0.008083201944828033,-0.0010418267920613289
1761476337269550000,5.440550048828125,-0.0029230783693492413,-0.004666099790483713,-0.0017227968201041222
1761476337279583000,5.4505830078125,-0.0014776741154491901,0.002346538472920656,0.003933007828891277
1761476337289616100,5.4606162109375,-0.002805525902658701,0.004526868462562561,0.001037086360156536
1761476337299650000,5.470650146484375,-0.0005287365056574345,0.011111089959740639,-0.00022224988788366318
1761476337309683200,5.48068310546875,-0.0023463438265025616,0.01225731335580349,0.0014598025009036064
1761476337319716000,5.490716064453125,-0.002028787974268198,0.005483504384756088,0.002388646826148033
1761476337329750000,5.50075,-0.0005563264712691307,-0.001363482791930437,0.0017785169184207916
1761476337339783000,5.510782958984375,-0.003169422969222069,-0.002237205859273672,0.0015354836359620094
1761476337349816000,5.520816162109375,-0.0013438258320093155,-0.008593905717134476,0.000643325038254261
1761476337359850000,5.53085009765625,-0.0018897722475230694,-0.00021642865613102913,0.0006861453875899315
1761476337369883100,5.540883056640625,0.0018604910001158714,0.004597767721861601,0.00031117256730794907
1761476337379916000,5.550916015625,-0.0017903316766023636,0.00864904560148716,-0.0021184589713811874
1761476337389950000,5.560949951171875,0.0022717881947755814,0.013293865136802197,-0.0027568191289901733
1761476337399982800,5.57098291015625,0.0013185348361730576,0.010312702506780624,0.0017073117196559906
1761476337410016000,5.58101611328125,-0.0012849713675677776,0.00042944587767124176,0.00018265191465616226
1761476337420050000,5.5910498046875,-0.0005678869783878326,-0.014616850763559341,0.0021089259535074234
1761476337430083000,5.6010830078125,0.0014963289722800255,-0.022453201934695244,0.0016511287540197372
1761476337440117200,5.6111171875,-0.0004695076495409012,-0.02128765545785427,0.002322068437933922
1761476337450150000,5.62114990234375,0.001614149659872055,-0.016850296407938004,-0.000643627718091011
1761476337460182800,5.631182861328125,0.002465987578034401,-0.008841313421726227,0.0009181154891848564
1761476337470217000,5.641217041015625,0.0027829045429825783,-0.003434563986957073,-0.0006353063508868217
1761476337480250000,5.65125,-0.00002795737236738205,-0.0038994429633021355,0.00033038388937711716
1761476337490283000,5.661282958984375,0.0024844687432050705,0.0003421739675104618,-0.0012643169611692429
1761476337500317200,5.671317138671875,0.001816549338400364,0.005304038058966398,0.001635029911994934
1761476337510348500,5.6813486328125,0.002519623376429081,0.011517992243170738,0.001093076542019844
1761476337520381400,5.69138134765625,0.000708727166056633,0.017331963405013084,0.0033314209431409836
1761476337530415600,5.70141552734375,0.00031005218625068665,0.01592102088034153,0.0012909071519970894
1761476337540448800,5.71144873046875,0.0002964697778224945,0.01306611206382513,0.0031250258907675743
1761476337550481700,5.721481689453125,0.00045439600944519043,0.004154908936470747,-0.0004398813471198082
1761476337560514600,5.7315146484375,0.0004994561895728111,-0.004176578484475613,-0.0012028440833091736
1761476337570548500,5.741548583984375,0.004030540585517883,-0.01041956152766943,-0.0008244086056947708
1761476337580581600,5.75158154296875,0.00037226174026727676,-0.011258222162723541,-0.0014598490670323372
1761476337590615600,5.761615478515625,0.002293732948601246,-0.005685822572559118,0.004736793227493763
1761476337600648700,5.771648681640625,-0.0004412820562720299,0.0013668783940374851,0.0005187429487705231
1761476337610681600,5.781681640625,-0.0015675327740609646,0.0065797497518360615,-0.0006642332300543785
1761476337620715500,5.791715576171875,0.000333588570356369,0.010325305163860321,0.0013550901785492897
1761476337630748400,5.80174853515625,-0.0010158354416489601,0.006232026498764753,0.0016927793622016907
1761476337640781600,5.811781494140625,0.00017998367547988892,0.0019528008997440338,0.0019812649115920067
1761476337650814500,5.821814453125,-0.0002040443941950798,-0.0029902919195592403,0.0005314396694302559
1761476337660848600,5.8318486328125,-0.0008596084080636501,-0.004267244134098291,-0.0020991265773773193
1761476337670881500,5.841881591796875,-0.001944047398865223,-0.004307990428060293,-0.001423482783138752
1761476337680915700,5.851915771484375,-0.0010665366426110268,-0.004296399187296629,-0.000682552345097065
1761476337690948600,5.861948486328125,-0.00020287372171878815,-0.0030561652965843678,-0.003674347884953022
1761476337700981500,5.8719814453125,0.0014285780489444733,-0.0038373051211237907,0.003293486312031746
1761476337711015400,5.882015380859375,0.0013529444113373756,-0.002564314752817154,0.0005570882931351662
1761476337721048600,5.892048583984375,0.00030216947197914124,0.00004349369555711746,0.0008354997262358665
1761476337731081500,5.90208154296875,0.00017673522233963013,-0.0011698422022163868,-0.0007797069847583771
1761476337741115600,5.91211572265625,0.0008716071024537086,0.0031988942064344883,-0.00454294728115201
1761476337751148500,5.9221484375,-0.00043680425733327866,0.0024856997188180685,-0.0007269037887454033
1761476337761181700,5.932181640625,-0.002548211719840765,0.002969806082546711,0.0003905436024069786
1761476337771215400,5.94221533203125,0.0016222987323999405,0.003589257365092635,-0.0002092001959681511
1761476337781248500,5.95224853515625,-0.0003198925405740738,0.0033222914207726717,-0.002168303355574608
1761476337791281400,5.962281494140625,-0.00042215827852487564,0.001781652681529522,-0.0011704163625836372
1761476337801315600,5.972315673828125,-0.000983871053904295,0.0006861756555736065,-0.002802264876663685
1761476337811348500,5.982348388671875,0.00043772440403699875,-0.0017676609568297863,0.0007788883522152901
1761476337821381600,5.992381591796875,-0.0005845557898283005,-0.006518297828733921,-0.004230906255543232
1761476337831414500,6.00241455078125,0.0004631318151950836,-0.007444811053574085,-0.0007618721574544907
1761476337841448400,6.012448486328125,-0.001659089233726263,-0.009815171360969543,-0.001555098220705986
1761476337851481300,6.0224814453125,-0.0023240805603563786,-0.008132319897413254,-0.002895733341574669
1761476337861515500,6.032515625,-0.0006265277042984962,-0.005949803162366152,-0.00189996138215065
1761476337871548700,6.042548583984375,0.0003199595957994461,-0.005349260289222002,-0.00231967493891716
1761476337881581600,6.05258154296875,0.0006349049508571625,-0.003171800170093775,-0.00017736386507749557
1761476337891614500,6.062614501953125,-0.0009819003753364086,0.002095133066177368,0.0023574326187372208
1761476337901648600,6.072648681640625,-0.00043515488505363464,0.010800673626363277,0.0030968748033046722
1761476337911681500,6.082681640625,-0.0039942036382853985,0.012166076339781284,-0.0027556875720620155
1761476337921714400,6.09271435546875,0.003201281651854515,0.006820036098361015,-0.003392240032553673
1761476337931748600,6.10274853515625,0.0016268212348222733,-0.0031604268588125706,-0.0034135449677705765
1761476337941781500,6.112781494140625,0.0028421739116311073,-0.009516607969999313,0.00011348631232976913
1761476337951814700,6.122814697265625,0.00035185180604457855,-0.005320264957845211,0.0016914093866944313
1761476337961848600,6.1328486328125,-0.0022543054074048996,0.004373021889477968,0.0007473556324839592
1761476337971881700,6.1428818359375,-0.0044442228972911835,0.007300901226699352,-0.0029437849298119545
1761476337981914600,6.15291455078125,0.0015041017904877663,0.0026871978770941496,-0.002641896717250347
1761476337991948500,6.162948486328125,0.0035869600251317024,-0.00392116978764534,-0.0029691988602280617
1761476338001981400,6.1729814453125,-0.0016679330728948116,-0.0020744134671986103,0.000355355441570282
1761476338012014600,6.1830146484375,-0.004824844188988209,0.008608324453234673,0.0009654862806200981
1761476338022048500,6.193048583984375,-0.004918746650218964,0.01514635980129242,0.0018533794209361076
1761476338032081700,6.20308154296875,-0.0033243121579289436,0.005873233079910278,0.003803079016506672
1761476338042114600,6.213114501953125,-0.004153573885560036,-0.010128624737262726,-0.0014087799936532974
1761476338052148500,6.2231484375,-0.0010019890032708645,-0.024509161710739136,0.0020903469994664192
1761476338062181400,6.233181396484375,0.001888602040708065,-0.03726547583937645,-0.0012549115344882011
1761476338072214500,6.243214599609375,0.0020771538838744164,-0.035000991076231,-0.0009292075410485268
1761476338082248400,6.25324853515625,0.002057506702840328,-0.023514844477176666,0.002671375870704651
1761476338092281600,6.263281494140625,-0.002380118239670992,-0.0041427453979849815,0.0013525784015655518
1761476338102314500,6.273314453125,-0.0009821681305766106,0.009850457310676575,0.0006552888080477715
1761476338112348700,6.2833486328125,-0.0019262591376900673,0.0166308656334877,0.0022329455241560936
1761476338122381600,6.293381591796875,-0.0026911902241408825,0.015652909874916077,-0.0003505004569888115
1761476338132414500,6.30341455078125,-0.001438971608877182,0.012522364035248756,0.0009912000969052315
1761476338142448600,6.31344873046875,-0.002717269118875265,0.0082844328135252,0.002405713312327862
1761476338152481500,6.3234814453125,0.0011693481355905533,0.007597870193421841,0.0006901044398546219
1761476338162514400,6.333514404296875,0.003148765303194523,0.007796266116201878,-0.001994682475924492
1761476338172548600,6.343548583984375,0.0018249079585075378,0.008881503716111183,0.0003736661747097969
1761476338182581800,6.353581787109375,0.0037326356396079063,0.005655291024595499,0.0006351228803396225
1761476338192614700,6.36361474609375,0.00023004598915576935,-0.0034806830808520317,0.0012676240876317024
1761476338202648600,6.373648681640625,0.001966734416782856,-0.005587275139987469,0.0005263462662696838
1761476338212681500,6.383681396484375,0.0005011968314647675,-0.007140696980059147,-0.0014907317236065865
1761476338222714600,6.393714599609375,-0.0008985460735857487,-0.0017694816924631596,-0.002561338245868683
1761476338232747500,6.40374755859375,0.002863701432943344,0.0036348712164908648,-0.00014212261885404587
1761476338242781700,6.41378173828125,-0.0010905633680522442,0.013991869054734707,0.0027958154678344727
1761476338252814600,6.423814697265625,0.0008183903992176056,0.013325279578566551,0.005157772451639175
1761476338262847700,6.43384765625,-0.0007642321288585663,0.013274768367409706,0.0006764810532331467
1761476338272881400,6.44388134765625,-0.0031038187444210052,0.009974579326808453,-0.0038458332419395447
1761476338282914600,6.45391455078125,0.0010845344513654709,0.00674043595790863,0.0004314696416258812
1761476338292947500,6.463947509765625,0.0025495393201708794,-0.0020759585313498974,-0.0052160294726490974
1761476338302981600,6.473981689453125,-0.0005419249646365643,-0.009546332061290741,-0.0014476552605628967
1761476338313014500,6.4840146484375,0.0009872624650597572,-0.010796153917908669,0.001625632867217064
1761476338323047700,6.494047607421875,-0.0004539741203188896,-0.0025028628297150135,-0.0015224916860461235
1761476338333081600,6.50408154296875,0.001314098946750164,0.006460271775722504,0.0006474526599049568
1761476338343114500,6.514114501953125,0.00354874599725008,0.010176096111536026,-0.00007040239870548248
1761476338353147400,6.5241474609375,0.0009700078517198563,0.009803520515561104,-0.002926643006503582
1761476338363181600,6.534181640625,0.0042132604867219925,0.0062142349779605865,-0.0017659030854701996
1761476338373214500,6.54421435546875,0.005149361677467823,0.00037365639582276344,-0.0020354148000478745
1761476338383247600,6.55424755859375,0.0005568396300077438,-0.0003018258139491081,-0.0019609807059168816
1761476338393280500,6.564280517578125,0.002888171002268791,-0.00046720821410417557,-0.0011713532730937004
1761476338403314700,6.574314697265625,0.0021071825176477432,0.0017696046270430088,-0.002803271636366844
1761476338413347600,6.58434765625,0.0009433813393115997,0.00654305424541235,-0.0014120358973741531
1761476338423380700,6.594380615234375,-0.0009835832752287388,0.0028986805118620396,-0.001943204551935196
1761476338433414400,6.604414306640625,0.001773853786289692,-0.0018654484301805496,-0.0034979581832885742
1761476338443447600,6.614447509765625,0.002458615228533745,-0.006834740750491619,-0.0024633845314383507
1761476338453480400,6.62448046875,0.002982725389301777,-0.014171482995152473,-0.00542295491322875
1761476338463514600,6.6345146484375,0.0037637250497937202,-0.008379844948649406,0.0013133110478520393
1761476338473547500,6.644547607421875,0.002961580641567707,-0.005399767775088549,0.0005202209576964378
1761476338483580700,6.65458056640625,-0.0016681905835866928,0.0012114164419472218,-0.0019516656175255775
1761476338493614300,6.6646142578125,-0.002396298572421074,0.006506579928100109,-0.0003340616822242737
1761476338503647500,6.6746474609375,-0.0053538186475634575,0.006411474198102951,0.0016276957467198372
1761476338513680100,6.68468017578125,-0.004690957721322775,0.0016263066790997982,-0.0019518593326210976
1761476338523713300,6.69471337890625,-0.001964560244232416,-0.002346801571547985,-0.002094951458275318
1761476338533747200,6.704747314453125,-0.002237267792224884,-0.002978503704071045,-0.004374617710709572
1761476338543780400,6.7147802734375,-0.00204947916790843,-0.008016712963581085,-0.001051444560289383
1761476338553813200,6.724813232421875,-0.0005394667387008667,-0.00473596528172493,-0.0017340127378702164
1761476338563847400,6.734847412109375,-0.002092649694532156,-0.00008040480315685272,0.0006210124120116234
1761476338573880300,6.74488037109375,-0.0011823815293610096,0.005221149884164333,-0.0003635585308074951
1761476338583913200,6.754913330078125,-0.00047471513971686363,0.010573742911219597,0.0005903253331780434
1761476338593947400,6.764947509765625,-0.0005567404441535473,0.00638139434158802,-0.0010579051449894905
1761476338603980300,6.774980224609375,-0.0008536027744412422,-0.00008736178278923035,-0.0006270222365856171
1761476338614013200,6.78501318359375,0.0015522968024015427,-0.008017722517251968,-0.00292959064245224
1761476338624046300,6.79504638671875,0.002003796398639679,-0.01021980307996273,-0.003997297957539558
1761476338634080500,6.80508056640625,0.003864014521241188,-0.0010643885470926762,-0.0006033657118678093
1761476338644113400,6.815113525390625,0.0012254538014531136,0.0075875842012465,-0.0022906139492988586
1761476338654146300,6.825146240234375,0.0027352003380656242,0.01265744399279356,-0.0006301328539848328
1761476338664180200,6.83518017578125,-0.0004540150985121727,0.010521592572331429,-0.002429977059364319
1761476338674213400,6.84521337890625,-0.0010971683077514172,-0.0020325491204857826,0.00015941448509693146
1761476338684246300,6.855246337890625,-0.0000868896022439003,-0.020871587097644806,0.0007549123838543892
1761476338694280400,6.865280517578125,-0.002526078838855028,-0.03207577019929886,0.00031655561178922653
1761476338704313300,6.875313232421875,0.0007340293377637863,-0.034208014607429504,-0.0038376515731215477
1761476338714346500,6.885346435546875,0.0008882265537977219,-0.023670950904488564,-0.001974504441022873
1761476338724379400,6.89537939453125,-0.0012652953155338764,-0.011903088539838791,-0.0026462115347385406
1761476338734413300,6.905413330078125,-0.0015158988535404205,-0.0036171949468553066,0.0017842231318354607
1761476338744446200,6.9154462890625,0.000872570089995861,0.0022268169559538364,0.0037764599546790123
1761476338754479400,6.925479248046875,-0.0018981820903718472,0.002108306158334017,0.0007258094847202301
1761476338764513300,6.93551318359375,-0.0002995515242218971,0.005049329251050949,0.0015900637954473495
1761476338774546400,6.94554638671875,-0.003037014976143837,0.009191077202558517,-0.0014494014903903008
1761476338784579300,6.955579345703125,-0.0014009969308972359,0.014577082358300686,-0.0009537972509860992
1761476338794613200,6.96561328125,-0.0014057904481887817,0.015676435083150864,0.004661743529140949
1761476338804646100,6.975646240234375,-0.0033856146037578583,0.01697447896003723,0.0016492586582899094
1761476338814679300,6.98567919921875,0.00028555281460285187,0.004299696534872055,-0.0007640980184078217
1761476338824712200,6.995712158203125,0.0012656627222895622,-0.012787139043211937,-0.003050784580409527
1761476338834746400,7.005746337890625,0.0012552766129374504,-0.018689237534999847,-0.002284327521920204
1761476338844779300,7.015779296875,-0.0008130567148327827,-0.01950642466545105,0.00034923478960990906
1761476338854812400,7.0258125,-0.0014165290631353855,-0.012865033000707626,-0.00205160491168499
1761476338864846300,7.035846435546875,0.0025676079094409943,-0.007027041167020798,-0.003920015878975391
1761476338874879500,7.04587939453125,0.0014078011736273766,0.005051193293184042,-0.0020494116470217705
1761476338884912000,7.055912109375,0.0011622384190559387,0.008564868941903114,-0.0012703174725174904
1761476338894945300,7.0659453125,0.0009704902768135071,0.013342579826712608,0.004067722707986832
1761476338904979200,7.075979248046875,-0.0009820349514484406,0.007304597180336714,0.002246319316327572
1761476338915012400,7.086012451171875,-0.0008006738498806953,0.0035663179587572813,-0.003969497978687286
1761476338925045200,7.096045166015625,-0.0007062461227178574,-0.002867334522306919,-0.002488521859049797
1761476338935079400,7.106079345703125,0.0030770404264330864,-0.011383323930203915,-0.0017010252922773361
1761476338945112300,7.1161123046875,0.0024302732199430466,-0.013481374830007553,0.0014628171920776367
1761476338955145500,7.1261455078125,0.004335498437285423,-0.013453677296638489,0.0006761197000741959
1761476338965178400,7.136178466796875,-0.0018550078384578228,-0.007744744885712862,0.0015476001426577568
1761476338975212300,7.14621240234375,-0.007324341684579849,0.00029800133779644966,-0.00008571706712245941
1761476338985245200,7.1562451171875,-0.0073617747984826565,0.004285810049623251,-0.0034351646900177
1761476338995278300,7.1662783203125,-0.002676209434866905,-0.004526589997112751,-0.004406685940921307
1761476339005312300,7.176312255859375,0.0005333619192242622,-0.01572350412607193,-0.005678295623511076
1761476339015345400,7.186345458984375,0.0008758446201682091,-0.023808594793081284,-0.0023168539628386497
1761476339025378300,7.19637841796875,0.0012297946959733963,-0.017259392887353897,-0.00020001456141471863
1761476339035411500,7.206411376953125,-0.00008021481335163116,0.002166236750781536,0.0015904288738965988
1761476339045445000,7.216445068359375,-0.0008883597329258919,0.019038837403059006,0.0010114647448062897
1761476339055478300,7.226478271484375,-0.0017024879343807697,0.030992703512310982,-0.00280777458101511
1761476339065511200,7.23651123046875,-0.0007729069329798222,0.02232912927865982,0.0013661105185747147
1761476339075544300,7.24654443359375,-0.0017928974702954292,0.0048590595833957195,-0.0016144989058375359
1761476339085578200,7.256578125,0.00031659286469221115,-0.011577438563108444,-0.0006624190136790276
1761476339095611400,7.266611328125,0.0005293786525726318,-0.026025352999567986,-0.00009995978325605392
1761476339105644300,7.276644287109375,0.0011714082211256027,-0.027362920343875885,-0.003405347466468811
1761476339115678200,7.28667822265625,0.0000057425349950790405,-0.017507893964648247,-0.002266312949359417
1761476339125711000,7.296711181640625,0.0004603313282132149,0.0009887688793241978,0.0009491071105003357
1761476339135744300,7.306744140625,-0.003063829615712166,0.01344197615981102,-0.001923643983900547
1761476339145777200,7.316777099609375,-0.0015840348787605762,0.02049519494175911,0.00289897620677948
1761476339155811300,7.326811279296875,-0.0015582023188471794,0.01838916540145874,0.0003609834238886833
1761476339165844200,7.33684423828125,-0.0025337301194667816,0.010394036769866943,-0.0005688043311238289
1761476339175877400,7.34687744140625,-0.00015046726912260056,-0.0031699761748313904,-0.002134210430085659
1761476339185911300,7.356911376953125,0.00024549849331378937,-0.01760305091738701,-0.0026578474789857864
1761476339195944200,7.366944091796875,0.0019203601405024529,-0.0203144159168005,-0.001409890130162239
1761476339205977000,7.37697705078125,0.0017825178802013397,-0.015059094876050949,0.002846122719347477
1761476339216010200,7.38701025390625,0.0013598734512925148,-0.0029805940575897694,-0.0017608795315027237
1761476339226044400,7.39704443359375,0.0009562717750668526,0.0128005500882864,0.0021644476801156998
1761476339236077300,7.407077392578125,0.0005413508042693138,0.02249738574028015,0.003817470744252205
1761476339246110200,7.417110107421875,-0.0006204964593052864,0.022077549248933792,0.0008833156898617744
1761476339256143400,7.427143310546875,-0.0019044065847992897,0.015276368707418442,0.0024892017245292664
1761476339266177500,7.437177490234375,0.0007267510518431664,0.0031200319062918425,0.0014555715024471283
1761476339276210400,7.44721044921875,0.0015217047184705734,-0.0028401226736605167,-0.0006006546318531036
1761476339286243300,7.457243408203125,0.0043481262400746346,-0.0020895469933748245,0.0011210311204195023
1761476339296277200,7.46727734375,0.0028306571766734123,0.0003826655447483063,0.0005668271332979202
1761476339306310400,7.477310302734375,0.0007861712947487831,0.00012771692126989365,-0.002200706861913204
1761476339316343300,7.48734326171875,0.0009462274610996246,-0.003674477804452181,0.0008121272549033165
1761476339326376200,7.497376220703125,-0.0010540448129177094,-0.01115422323346138,0.0045594340190291405
1761476339336410400,7.507410400390625,-0.003627191297709942,-0.013038409873843193,0.0032643387094140053
1761476339346443500,7.517443603515625,-0.004125719889998436,-0.009568249806761742,0.006255951710045338
1761476339356476400,7.527476318359375,-0.007181431166827679,-0.005119971465319395,0.0011008698493242264
1761476339366509300,7.53750927734375,-0.003615827299654484,-0.0028048199601471424,-0.0010378453880548477
1761476339376543200,7.547543212890625,-0.004001186694949865,-0.0014836257323622704,0.0012697838246822357
1761476339386576400,7.557576416015625,0.0007621431723237038,-0.0025598094798624516,-0.002139328047633171
1761476339396609300,7.567609375,0.0007360447198152542,-0.0016063973307609558,0.00014885980635881424
1761476339406642200,7.57764208984375,0.0020156046375632286,0.0014840587973594666,0.0019053677096962929
1761476339416676400,7.58767626953125,-0.0003317054361104965,0.007893754169344902,-0.0025088218972086906
1761476339426709500,7.59770947265625,0.0016111144796013832,0.013367155566811562,0.0016686692833900452
1761476339436742400,7.607742431640625,-0.0016858791932463646,0.015266254544258118,0.000712062232196331
1761476339446775300,7.617775390625,0.0006036963313817978,0.015623667277395725,0.0019873911514878273
1761476339456809200,7.627809326171875,0.00034137535840272903,0.012324543669819832,0.0017674136906862259
1761476339466842400,7.63784228515625,-0.00018844753503799438,0.0049550458788871765,0.0006004003807902336
1761476339476875300,7.647875244140625,0.0011151693761348724,-0.003376919776201248,-0.0004259822890162468
1761476339486909400,7.657909423828125,0.003039628267288208,-0.008242383599281311,-0.0003502070903778076
1761476339496942300,7.6679423828125,0.0024734409525990486,-0.010736966505646706,-0.001759817823767662
1761476339506976000,7.67797607421875,0.004423837177455425,-0.003967410884797573,-0.004147537983953953
1761476339517009000,7.6880087890625,0.004445408470928669,0.006474844180047512,-0.00109129399061203
1761476339527042800,7.698042724609375,0.0020088059827685356,0.012806045822799206,0.0017165141180157661
1761476339537076000,7.708075927734375,0.0008750976994633675,0.015099027194082737,0.0015276959165930748
1761476339547108900,7.71810888671875,-0.002864246256649494,0.012705111876130104,0.003369538113474846
1761476339557142000,7.72814208984375,-0.003731105476617813,0.007450428791344166,0.003167138434946537
1761476339567176000,7.738176025390625,-0.002473455388098955,0.0010246164165437222,-0.00033671967685222626
1761476339577209000,7.748208984375,-0.0017573311924934387,-0.0034676040522754192,-0.002156190574169159
1761476339587242000,7.758241943359375,-0.0018291370943188667,-0.008577406406402588,-0.001658119261264801
1761476339597275100,7.768275146484375,-0.000462136697024107,-0.011368133127689362,0.0009174235165119171
1761476339607308800,7.778308837890625,-0.00011689402163028717,-0.010274909436702728,-0.00000850670039653778
1761476339617342000,7.788342041015625,0.0038757165893912315,-0.006148607935756445,-0.00035232119262218475
1761476339627374800,7.798374755859375,-0.0005599586293101311,-0.0022538648918271065,0.0009953472763299942
1761476339637408000,7.808407958984375,0.0006597694009542465,0.005439475178718567,0.0007641846314072609
1761476339647442000,7.81844189453125,0.000294622965157032,0.006083689164370298,0.004011942073702812
1761476339657475000,7.82847509765625,0.00008556433022022247,0.006433894857764244,0.0026255007833242416
1761476339667508000,7.838508056640625,0.0008876146748661995,0.005544404499232769,-0.000871545635163784
1761476339677541000,7.848541015625,0.00020904187113046646,0.004754510708153248,0.0005375323817133904
1761476339687574800,7.85857470703125,0.0006108731031417847,0.0005322000943124294,0.0006337575614452362
1761476339697608000,7.86860791015625,0.005145704373717308,-0.0004515713080763817,-0.0012416401877999306
1761476339707640800,7.878640869140625,0.0011491188779473305,0.0010368633083999157,0.0017399927601218224
1761476339717674000,7.888674072265625,0.0013435296714305878,-0.0035134139470756054,-0.0008565895259380341
1761476339727708000,7.8987080078125,0.001862253062427044,-0.0042794737964868546,-0.0018708659335970879
1761476339737741000,7.908740966796875,0.0017804941162467003,-0.008419623598456383,-0.00029587186872959137
1761476339747774000,7.91877392578125,0.002026158384978771,-0.008880808018147945,-0.0006097052246332169
1761476339757807000,7.92880712890625,0.003918600268661976,-0.005334275774657726,0.00009949412196874619
1761476339767840800,7.9388408203125,0.00026738736778497696,0.002400808036327362,0.0036531267687678337
1761476339777874000,7.9488740234375,-0.001345689408481121,0.005311110522598028,-0.0006076646968722343
1761476339787906800,7.95890673828125,-0.00364096462726593,0.005067630670964718,0.0017611458897590637
1761476339797940000,7.96893994140625,-0.002328825183212757,0.006712398957461119,0.0007328996434807777
1761476339807974000,7.978973876953125,-0.0038763931952416897,-0.0008258777670562267,-0.004255874082446098
1761476339818007000,7.989007080078125,-0.0028044707141816616,-0.0024757059291005135,-0.0009884415194392204
1761476339828040000,7.9990400390625,-0.0020104553550481796,-0.006303267553448677,0.002612045034766197
1761476339838073000,8.009072998046875,0.0007645580917596817,-0.0011790790595114231,-0.00020158477127552032
1761476339848105000,8.01910498046875,0.0011197635903954506,0.004573938902467489,-0.0003307592123746872
1761476339858139100,8.02913916015625,0.0007964558899402618,0.005141192115843296,0.001229587011039257
1761476339868172000,8.039172119140625,-0.000650645699352026,0.005160575732588768,0.000010136514902114868
1761476339878205000,8.049204833984374,0.00023565441370010376,-0.0008424553088843822,0.0008216015994548798
1761476339888238000,8.059238037109376,-0.0020133848302066326,-0.005022095050662756,-0.00047282781451940536
1761476339898272000,8.06927197265625,0.001223953440785408,-0.008103106170892715,-0.002491770312190056
1761476339908305000,8.079304931640625,-0.0005760164931416512,-0.004502837546169758,0.0004214700311422348
1761476339918337800,8.089337890625,0.001562768593430519,0.007158080115914345,0.0006046956405043602
1761476339928371000,8.099370849609375,0.00196994561702013,0.01388622261583805,0.0029055774211883545
1761476339938405000,8.109405029296875,0.0009353077039122581,0.015879066661000252,-0.002669217064976692
1761476339948438000,8.11943798828125,0.0019055390730500221,0.011835120618343353,-0.0010877810418605804
1761476339958471000,8.129470947265625,0.0010746335610747337,-0.004816559609025717,0.00015937723219394684
1761476339968504000,8.139504150390625,0.0003071660175919533,-0.02051299437880516,0.0010521961376070976
1761476339978538000,8.1495380859375,-0.0023381514474749565,-0.030038323253393173,0.00039066746830940247
1761476339988571000,8.15957080078125,-0.0016855299472808838,-0.030526932328939438,-0.0025187134742736816
1761476339998603800,8.169603759765625,-0.0009030932560563087,-0.022374995052814484,-0.003195422701537609
1761476340008637000,8.179636962890624,-0.002521541900932789,-0.011498529464006424,-0.00011647026985883713
1761476340018671000,8.189671142578124,-0.0036445967853069305,-0.005598562769591808,0.001985829323530197
1761476340028704000,8.1997041015625,-0.0012147012166678905,0.003230042988434434,0.002469879575073719
1761476340038737000,8.20973681640625,-0.002726045437157154,0.0022196397185325623,-0.0014516254886984825
1761476340048770000,8.21977001953125,-0.0010520261712372303,0.003977114334702492,-0.001972910948097706
1761476340058804000,8.229803955078125,-0.002167624421417713,0.008421397767961025,-0.0011542551219463348
1761476340068836900,8.2398369140625,-0.000721832737326622,0.006827246397733688,0.00013001170009374619
1761476340078869800,8.249869873046874,-0.0006331494078040123,0.010113587602972984,0.003764428198337555
1761476340088903000,8.25990283203125,-0.0017290418036282063,0.008697238750755787,0.00404818169772625
1761476340098935800,8.269935791015625,-0.0027831210754811764,0.004913952201604843,0.00020710378885269165
1761476340108970000,8.279969970703124,0.0008673984557390213,0.0015352042391896248,-0.002193446271121502
1761476340119003000,8.2900029296875,0.0007385015487670898,-0.004953853785991669,-0.003222225233912468
1761476340129036000,8.3000361328125,0.0006439434364438057,-0.009300848469138145,-0.002025965601205826
1761476340139069000,8.31006884765625,0.0017768526449799538,-0.007829984650015831,-0.00027919840067625046
1761476340149102800,8.320102783203126,0.0009831544011831284,0.00024007493630051613,-0.002044699154794216
1761476340159135700,8.3301357421875,0.00012455135583877563,0.00672886660322547,-0.001948293298482895
1761476340169169000,8.3401689453125,0.0012939916923642159,0.012830588966608047,-0.0014229193329811096
1761476340179201800,8.350201904296876,-0.0012599802576005459,0.010724561288952827,-0.00013288483023643494
1761476340189236000,8.360236083984375,-0.00012420304119586945,0.0018739406950771809,-0.0028526494279503822
1761476340199268900,8.370268798828125,-0.0005351291038095951,-0.004007117822766304,-0.001408151350915432
1761476340209302000,8.380302001953124,0.0005866093561053276,-0.005939257796853781,0.0012421738356351852
1761476340219335000,8.3903349609375,-0.0028432756662368774,-0.002168221864849329,0.0009175343438982964
1761476340229368800,8.400368896484375,-0.00029632262885570526,0.0012013688683509827,-0.0004218127578496933
1761476340239401700,8.410401611328124,0.0000022174790501594543,0.0018202876672148705,-0.00006628036499023438
1761476340249435000,8.420434814453126,-0.00004679430276155472,0.0021273987367749214,0.0018492285162210464
1761476340259467800,8.4304677734375,-0.0014351001009345055,0.0010336386039853096,-0.0007646642625331879
1761476340269501000,8.4405009765625,-0.001565875019878149,-0.0027982410974800587,0.0017064884305000305
1761476340279534800,8.450534912109376,0.0005832957103848457,-0.0039109098725020885,-0.0012051453813910484
1761476340289568000,8.460568115234375,0.00025022774934768677,-0.007825653068721294,-0.0019031194970011711
1761476340299601000,8.470600830078125,0.0017642350867390633,0.0007204301655292511,-0.0014988519251346588
1761476340309634000,8.480634033203126,0.0007736897096037865,0.006870165932923555,0.0010129539296030998
1761476340319667700,8.490667724609375,-0.0003256639465689659,0.009813757613301277,0.0031544016674160957
1761476340329700900,8.500700927734375,-0.003170476760715246,0.012611987069249153,-0.0015201298519968987
1761476340339733800,8.510733642578124,-0.0028969701379537582,0.008429759182035923,-0.0014468934386968613
1761476340349767000,8.520766845703125,-0.00165494903922081,0.0007144608534872532,-0.001018483191728592
1761476340359800800,8.53080078125,-0.001932983286678791,-0.006262488663196564,-0.0027953442186117172
1761476340369834000,8.540833984375,0.0005098339170217514,-0.011102836579084396,-0.0020825574174523354
1761476340379867000,8.550866943359376,0.0036715390160679817,-0.011375278234481812,-0.0029310407117009163
1761476340389900000,8.560900146484375,0.002117951400578022,-0.008883427828550339,-0.004246716387569904
1761476340399933000,8.570932861328124,0.0031928028911352158,0.00517300283536315,0.0020157070830464363
1761476340409966800,8.580966796875,0.0018328651785850525,0.011782689020037651,0.0009781084954738617
1761476340419999700,8.590999755859375,-0.0017448258586227894,0.012775516137480736,-0.0007513482123613358
1761476340430034000,8.601033935546875,-0.001077890396118164,0.009446277283132076,0.001196267083287239
1761476340440066800,8.61106689453125,-0.0009689670987427235,0.005417181178927422,-0.001994200050830841
1761476340450101000,8.62110107421875,-0.0005364455282688141,-0.00020254263654351234,0.001258951611816883
1761476340460134100,8.631134033203125,-0.001342318020761013,-0.002374084200710058,0.0017436472699046135
1761476340470167000,8.6411669921875,-0.0007618810050189495,-0.002536413259804249,-0.0013826237991452217
1761476340480200000,8.651199951171876,-0.0020567099563777447,0.0012082578614354134,-0.001667582429945469
1761476340490233900,8.66123388671875,-0.0018956847488880157,0.002163202501833439,-0.00201216246932745
1761476340500267000,8.67126708984375,0.0019400659948587418,0.003009022446349263,-0.00028883107006549835
1761476340510299100,8.681299072265626,0.0005857469514012337,0.002396564930677414,0.00037516746670007706
1761476340520332300,8.691332275390625,-0.000028643757104873657,0.0016713859513401985,-0.0019926484674215317
1761476340530365200,8.701365234375,0.0007348805665969849,-0.00024888385087251663,-0.0007614260539412498
1761476340540399400,8.7113994140625,0.001079760491847992,-0.0013892492279410362,0.0019414164125919342
1761476340550432300,8.721432373046875,0.0028063300997018814,-0.00022312765941023827,0.00038773100823163986
1761476340560465400,8.73146533203125,0.0024028606712818146,0.0037804024759680033,-0.0020144395530223846
1761476340570498300,8.741498291015626,0.0030428562313318253,0.004669956862926483,0.001879146322607994
1761476340580532200,8.7515322265625,0.0010004779323935509,0.01096353866159916,0.002962786704301834
1761476340590565000,8.761565185546875,0.002183683216571808,0.013416517525911331,0.0015310263261198997
1761476340600598300,8.771598388671874,0.0017088409513235092,0.0136253098025918,-0.0006975065916776657
1761476340610631200,8.781631103515625,-0.001142000313848257,0.010152237489819527,-0.0013621663674712181
1761476340620665300,8.791665283203125,0.001040726900100708,0.003431750927120447,0.0008051143959164619
1761476340630698200,8.8016982421875,-0.003149552270770073,-0.008897066116333008,0.004140067845582962
1761476340640731400,8.8117314453125,-0.004101898521184921,-0.018193894997239113,0.0010915463790297508
1761476340650764300,8.821764404296875,-0.0010181227698922157,-0.021165519952774048,-0.0007602237164974213
1761476340660797400,8.83179736328125,-0.0017763245850801468,-0.01846853643655777,-0.004944316111505032
1761476340670831000,8.8418310546875,-0.000734192319214344,-0.015284139662981033,-0.002652355469763279
1761476340680864300,8.8518642578125,-0.0019888076931238174,-0.010158885270357132,-0.0008989302441477776
1761476340690897200,8.861897216796875,-0.0002891421318054199,-0.004534765146672726,0.001112331636250019
1761476340700930300,8.871930419921876,-0.0014207190833985806,0.0023979758843779564,0.0013200575485825539
1761476340710963200,8.881963134765625,0.0006514498963952065,0.010514169000089169,0.0040564145892858505
1761476340720997400,8.891997314453125,-0.0009720129892230034,0.012082770466804504,-0.0010480666533112526
1761476340731030300,8.9020302734375,0.0017182929441332817,0.01726091094315052,0.0014945445582270622
1761476340741063400,8.9120634765625,0.0033545391634106636,0.01738208532333374,0.002449820749461651
1761476340751096300,8.922096435546875,0.0020107803866267204,0.010055311024188995,0.0020753592252731323
1761476340761130200,8.932130126953124,0.004885928705334663,0.007904009893536568,-0.0015870202332735062
1761476340771163100,8.9421630859375,0.004631891846656799,0.003914409317076206,-0.00040313880890607834
1761476340781196300,8.9521962890625,0.004100059159100056,-0.0019136518239974976,-0.0011323122307658195
1761476340791229200,8.962229248046874,0.0007568467408418655,-0.007830623537302017,0.000008678995072841644
1761476340801262300,8.972262451171876,0.0035097571089863777,-0.009666340425610542,-0.0023101354017853737
1761476340811296300,8.982296142578125,0.0027423063293099403,-0.006984424777328968,-0.0021334821358323097
1761476340821329400,8.992329345703125,0.0015201820060610771,-0.0035518761724233627,0.0003826720640063286
1761476340831362300,9.0023623046875,0.0036700349301099777,0.0019778506830334663,0.00020675081759691238
1761476340841395500,9.0123955078125,-0.0007944884710013866,0.01015029288828373,-0.00044039729982614517
1761476340851428400,9.022428466796875,0.0022706324234604836,0.012535398826003075,0.0006960220634937286
1761476340861462300,9.032462158203124,-0.0011214353144168854,0.010347345843911171,0.0006126649677753448
1761476340871495200,9.0424951171875,-0.0027245935052633286,0.006765266414731741,-0.002091093920171261
1761476340881528300,9.0525283203125,-0.0018984805792570114,0.0011228271760046482,-0.00029825419187545776
1761476340891561200,9.062561279296874,-0.0009643933735787868,-0.006083558779209852,-0.0031819166615605354
1761476340901595400,9.072595458984376,-0.0034616393968462944,-0.008299043402075768,0.00047114118933677673
1761476340911628300,9.082628173828125,-0.0028809206560254097,-0.00874871201813221,-0.003193642944097519
1761476340921661400,9.092661376953124,-0.003968555945903063,-0.005539602600038052,-0.004057838581502438
1761476340931694300,9.1026943359375,-0.0006066951900720596,-0.0033881147392094135,-0.0018625417724251747
1761476340941727200,9.112727294921875,0.0008796146139502525,0.0023824225645512342,-0.0008675847202539444
1761476340951761200,9.12276123046875,-0.0009115352295339108,0.0040090554393827915,0.00007202569395303726
1761476340961794300,9.132794189453126,-0.0002574631944298744,0.004072172567248344,-0.0008443687111139297
1761476340971827200,9.1428271484375,0.0007574679329991341,0.004593086428940296,-0.0011828560382127762
1761476340981860000,9.152860107421875,0.002379865385591984,0.0006651901639997959,-0.0024188291281461716
1761476340991893200,9.162893310546876,0.001143861562013626,0.0013327635824680328,-0.00225088931620121
1761476341001927400,9.172927490234375,0.0002740733325481415,-0.00182627746835351,-0.004995276220142841
1761476341011960300,9.182960205078125,0.0011758795008063316,-0.002049820963293314,-0.005061645992100239
1761476341021993200,9.1929931640625,0.0018493924289941788,-0.0062722633592784405,-0.005279226694256067
1761476341032026400,9.2030263671875,0.003462911583483219,-0.008049899712204933,-0.001453641802072525
1761476341042059300,9.213059326171875,0.00028309784829616547,-0.004941457416862249,-0.001927950419485569
1761476341052093200,9.22309326171875,-0.00021169986575841904,-0.002757271286100149,-0.0007881578058004379
1761476341062126000,9.2331259765625,-0.0008497931994497776,-0.0009623006917536259,-0.0008970806375145912
1761476341072159200,9.2431591796875,0.001121697947382927,-0.001843768171966076,-0.000955529510974884
1761476341082192100,9.253192138671874,0.0011850809678435326,-0.0017201974987983704,0.0007558176293969154
1761476341092225300,9.263225341796876,-0.00030056387186050415,-0.0026437719352543354,-0.0008412497118115425
1761476341102259200,9.27325927734375,-0.0007149516604840755,-0.0009811604395508766,-0.0028274348005652428
1761476341112292400,9.283292236328125,0.00018006376922130585,0.0015090648084878922,0.000409075990319252
1761476341122325200,9.2933251953125,0.0010157637298107147,0.002666741143912077,0.0009955046698451042
1761476341132358400,9.3033583984375,-0.0005909167230129242,0.003959950990974903,-0.0033044954761862755
1761476341142391300,9.313391357421875,-0.002225564792752266,0.001929024700075388,0.002136075869202614
1761476341152425200,9.32342529296875,-0.0012957900762557983,0.00006734626367688179,0.0008741524070501328
1761476341162458000,9.3334580078125,-0.004879073239862919,-0.003979859873652458,-0.0021719718351960182
1761476341172491300,9.3434912109375,-0.0012804791331291199,-0.00716445641592145,-0.0006664562970399857
1761476341182524200,9.353524169921876,-0.0002706078812479973,-0.008563149720430374,-0.0006613964214920998
1761476341192558300,9.363558349609375,0.000582568347454071,-0.006364639848470688,0.0020420532673597336
1761476341202591200,9.37359130859375,-0.000012648291885852814,-0.0016353987157344818,-0.002805698662996292
1761476341212624400,9.383624267578124,0.003425166942179203,0.0018603545613586903,-0.003300516866147518
1761476341222657300,9.3936572265625,0.0017345920205116272,0.0023477128706872463,-0.0025127530097961426
1761476341232690400,9.4036904296875,0.0036707287654280663,0.0031409459188580513,-0.0021004769951105118
1761476341242724000,9.41372412109375,-0.0008891359902918339,-0.00034406641498208046,-0.0021968837827444077
1761476341252757200,9.42375732421875,0.0019385730847716331,-0.003230990841984749,-0.0008965050801634789
1761476341262790100,9.4337900390625,0.003496788442134857,-0.0011273594573140144,0.0013072602450847626
1761476341272823300,9.4438232421875,0.001407449133694172,0.0024351736065000296,0.0006808368489146233
1761476341282856200,9.453856201171876,0.0052807508036494255,0.007170273922383785,-0.0007325029000639915
1761476341292890400,9.463890380859375,0.0025734547525644302,0.011118223890662193,-0.00031495001167058945
1761476341302923300,9.47392333984375,0.0010024560615420341,0.010099297389388084,0.00003205984830856323
1761476341312956400,9.483956298828126,0.0009885281324386597,0.003788614645600319,-0.0018674815073609352
1761476341322989300,9.4939892578125,-0.004058960825204849,-0.010677676647901535,0.00008035451173782349
1761476341333022500,9.5040224609375,-0.0037944684736430645,-0.023524196818470955,0.0033584237098693848
1761476341343056100,9.51405615234375,-0.00608425447717309,-0.029792211949825287,0.00014292355626821518
1761476341353089300,9.52408935546875,-0.0035809786058962345,-0.025208350270986557,-0.0010371701791882515
1761476341363122200,9.5341220703125,-0.003466462716460228,-0.017675332725048065,-0.002010023221373558
1761476341373155300,9.5441552734375,-0.004508857615292072,-0.006561222020536661,-0.001872132532298565
1761476341383188200,9.554188232421875,-0.003842002246528864,-0.00152917904779315,-0.0003852890804409981
1761476341393221400,9.564221435546875,-0.0028350665234029293,0.005310125648975372,0.002914115786552429
1761476341403255300,9.57425537109375,-0.002743187826126814,0.011797851882874966,-0.0030825240537524223
1761476341413288400,9.584288330078126,0.0004153558984398842,0.012100711464881897,-0.0009854147210717201
1761476341423321300,9.5943212890625,0.0014137746766209602,0.008873227052390575,-0.00018300488591194153
1761476341433354500,9.6043544921875,-0.00021031498908996582,0.006613530218601227,0.0007843673229217529
1761476341443388200,9.61438818359375,-0.0006002020090818405,0.0040600914508104324,-0.002970689907670021
1761476341453421300,9.62442138671875,0.0014905110001564026,-0.0009213085286319256,-0.00203071441501379
1761476341463454200,9.6344541015625,0.0008103400468826294,-0.0033615631982684135,-0.0016940906643867493
1761476341473487400,9.6444873046875,0.0002476479858160019,-0.006451336666941643,0.001416143961250782
1761476341483520300,9.654520263671875,-0.0004764655604958534,-0.004794583655893803,-0.0006017331033945084
1761476341493553200,9.66455322265625,0.002682310529053211,-0.0019233962520956993,0.000586419366300106
1761476341503587300,9.67458740234375,0.005165441893041134,0.004981114994734526,-0.00018936023116111755
1761476341513620500,9.684620361328125,0.002771393395960331,0.00909142941236496,-0.0013859467580914497
1761476341523653400,9.6946533203125,0.0013652443885803223,0.01236818265169859,-0.0028520170599222183
1761476341533686300,9.704686279296874,0.004272617399692535,0.010999850928783417,0.0031118663027882576
1761476341543719200,9.71471923828125,0.002253142185509205,0.008167845197021961,-0.0011457297950983047
1761476341553753300,9.72475341796875,0.002960111014544964,0.002484162338078022,0.0011370880529284477
1761476341563786200,9.7347861328125,0.0011994950473308563,0.0004263380542397499,0.004834088496863842
1761476341573819400,9.7448193359375,0.001248631626367569,0.00017203018069267273,0.0012863129377365112
1761476341583852300,9.754852294921875,-0.00046724313870072365,-0.0012937737628817558,0.00021092873066663742
1761476341593885200,9.76488525390625,0.00015816651284694672,-0.0017239428125321865,0.0008814390748739243
1761476341603919400,9.77491943359375,-0.0023952722549438477,-0.0015550986863672733,0.001148819923400879
1761476341613952500,9.784952392578125,-0.0012705572880804539,-0.002709754277020693,0.0026649311184883118
1761476341623985400,9.7949853515625,-0.0029246467165648937,-0.0019789827056229115,0.0004169568419456482
1761476341634018300,9.805018310546876,-0.00019347108900547028,0.0005406294949352741,-0.0000028638169169425964
1761476341644051200,9.81505126953125,-0.00018228590488433838,0.003387815086171031,0.001882120966911316
1761476341654085400,9.82508544921875,0.000598786398768425,0.002639389131218195,-0.0011907368898391724
1761476341664118300,9.8351181640625,-0.0022848844528198242,0.007354515604674816,-0.0028309784829616547
1761476341674151400,9.8451513671875,0.0003505125641822815,0.003250414738431573,0.001670297235250473
1761476341684184300,9.855184326171875,-0.003009331878274679,0.0051055727526545525,0.0030921585857868195
1761476341694217200,9.86521728515625,-0.002839057706296444,0.005568697117269039,0.0022486327216029167
1761476341704250400,9.87525048828125,-0.004392479546368122,0.007645430043339729,0.002161547541618347
1761476341714284500,9.885284423828125,-0.00406534131616354,0.0065504820086061954,-0.0016507524996995926
1761476341724317400,9.8953173828125,-0.0015268162824213505,-0.0009963838383555412,-0.0016507524996995926
1761476341734350000,9.90535009765625,0.00007660407572984695,-0.008321027271449566,-0.00502145616337657
1761476341744383200,9.91538330078125,0.0027453582733869553,-0.014000484719872475,-0.002846452407538891
1761476341754416000,9.925416015625,0.002329109236598015,-0.012497899122536182,0.0003563808277249336
1761476341764450300,9.9354501953125,0.0016643842682242393,-0.007104997523128986,0.0022946298122406006
1761476341774483200,9.945483154296875,0.0027577783912420273,0.0023628745693713427,-0.00041559524834156036
1761476341784516400,9.955516357421875,0.00025946740061044693,0.009309197776019573,-0.0018662186339497566
1761476341794549200,9.96554931640625,0.00007240660488605499,0.013853107579052448,-0.0007983911782503128
1761476341804582400,9.97558251953125,0.0004034377634525299,0.01130792498588562,-0.00021249614655971527
1761476341814616300,9.9856162109375,0.001666812226176262,0.005313367582857609,0.0032746605575084686
1761476341824649200,9.995649169921874,-0.001256805844604969,0.0008528390899300575,0.0006967214867472649
1761476341834682000,10.00568212890625,-0.0014507495798170567,-0.003147582057863474,-0.0011024829000234604
1761476341844715300,10.01571533203125,-0.0012571378611028194,-0.0021116123534739017,-0.0004366934299468994
1761476341854748200,10.025748046875,0.001381589099764824,-0.0033370968885719776,0.00028372183442115784
1761476341864781300,10.03578125,0.0020971810445189476,-0.0033485484309494495,0.004886996001005173
1761476341874815200,10.045815185546875,0.0010055815801024437,0.0012015076354146004,0.0021993201225996017
1761476341884848400,10.055848388671874,-0.0021281596273183823,0.0035293768160045147,0.0035841641947627068
1761476341894881300,10.06588134765625,0.0008327038958668709,0.005467005539685488,0.0004638461396098137
1761476341904914400,10.07591455078125,0.0017688050866127014,0.006455570925027132,0.00003907177597284317
1761476341914947300,10.085947265625,-0.000581059604883194,0.0027614738792181015,-0.0017347624525427818
1761476341924981200,10.095981201171876,-0.002221833448857069,0.003224065061658621,-0.0004156995564699173
1761476341935014100,10.10601416015625,0.0006040418520569801,0.005369211081415415,-0.0007148860022425652
1761476341945047300,10.11604736328125,0.0005118958652019501,0.009844120591878891,0.0015442734584212303
1761476341955080200,10.126080078125,0.001354524865746498,0.010322489775717258,0.0009117396548390388
1761476341965113300,10.13611328125,0.00010470300912857056,0.00925056729465723,-0.0016270512714982033
1761476341975146200,10.146146240234375,0.00012497417628765106,0.0018025152385234833,0.0021497122943401337
1761476341985180400,10.156180419921874,-0.0015163319185376167,-0.008920703083276749,0.007496541365981102
1761476341995213300,10.16621337890625,-0.0055008260533213615,-0.016527507454156876,0.003243919461965561
1761476342005246500,10.17624658203125,-0.005228650756180286,-0.019608788192272186,-0.0007329788058996201
1761476342015279400,10.186279296875,-0.00567988958209753,-0.023089203983545303,-0.003140403889119625
1761476342025312300,10.196312255859375,-0.0010225540027022362,-0.02144789695739746,-0.00043063703924417496
1761476342035346200,10.20634619140625,-0.0027412865310907364,-0.014605822041630745,0.00048383045941591263
1761476342045379300,10.21637939453125,-0.0014262176118791103,-0.006968407891690731,0.00031711626797914505
1761476342055412200,10.226412109375,-0.0007419162429869175,0.003738838480785489,0.0008108951151371002
1761476342065445000,10.236445068359375,0.0007555792108178139,0.010970385745167732,0.0018966663628816605
1761476342075478300,10.246478271484374,0.000574151985347271,0.015237713232636452,-0.00022010225802659988
1761476342085511200,10.25651123046875,-0.0023081875406205654,0.01477325800806284,0.00200576800853014
1761476342095545300,10.26654541015625,-0.0024018301628530025,0.011063672602176666,0.0017305882647633553
1761476342105578200,10.276578125,-0.0027216761372983456,0.008055898360908031,0.0017079515382647514
1761476342115611400,10.286611328125,0.0004737451672554016,0.002632144605740905,-0.0011137090623378754
1761476342125644300,10.296644287109375,0.002216517925262451,0.002930951304733753,0.002691148780286312
1761476342135677400,10.306677490234375,0.006025405600667,0.0010902495123445988,0.0016145361587405205
1761476342145711000,10.316711181640626,0.0036605186760425568,0.005572083406150341,0.002777005545794964
1761476342155744300,10.326744140625,0.0025830361992120743,0.004441898316144943,0.0010651703923940659
1761476342165777200,10.336777099609375,0.004436329938471317,0.0019505112431943417,0.0013152416795492172
1761476342175810300,10.346810302734376,0.002344840206205845,0.0020879749208688736,-0.004026033915579319
1761476342185843200,10.35684326171875,0.002039375714957714,0.006281654816120863,0.0018917759880423546
1761476342195876400,10.36687646484375,-0.0013804412446916103,0.00632206816226244,0.0017704758793115616
1761476342205910300,10.37691015625,-0.0013330369256436825,0.005372917745262384,0.003467974252998829
1761476342215943400,10.386943359375,-0.0041827242821455,0.0036171176470816135,-0.002436886541545391
1761476342225976300,10.396976318359375,-0.0010772119276225567,0.0019939211197197437,0.00022307876497507095
1761476342236009500,10.407009521484374,-0.00021180137991905212,-0.006544670555740595,-0.002787187695503235
1761476342246042400,10.41704248046875,-0.00004668533802032471,-0.01528756320476532,-0.003966435790061951
1761476342256075300,10.4270751953125,-0.001261322759091854,-0.01717674545943737,-0.0011487659066915512
1761476342266109200,10.437109130859374,0.0009395135566592216,-0.014081619679927826,0.00006590224802494049
1761476342276142300,10.447142333984376,0.0007143914699554443,-0.005110407713800669,-0.0006734719499945641
1761476342286175200,10.45717529296875,-0.001095759216696024,0.0011858376674354076,-0.000004219822585582733
1761476342296208400,10.46720849609375,-0.00086549436673522,0.006958040874451399,0.0002240864560008049
1761476342306241300,10.4772412109375,-0.001969907432794571,0.009996441192924976,-0.0028334883973002434
1761476342316274400,10.4872744140625,-0.0006955540738999844,0.008558396250009537,0.001245720311999321
1761476342326308400,10.497308349609375,-0.00241355923935771,0.004702139645814896,-0.00288217980414629
1761476342336341500,10.507341552734376,-0.0018229004926979542,0.0017435713671147823,-0.001277669332921505
1761476342346374400,10.51737451171875,0.0006743455305695534,-0.0015193335711956024,-0.0007378468289971352
1761476342356407300,10.5274072265625,0.0009292718023061752,0.003225745866075158,0.0013980995863676071
1761476342366440200,10.537440185546876,0.0028909556567668915,0.0069786724634468555,0.0015083542093634605
1761476342376474400,10.547474365234375,0.0017951568588614464,0.009077431634068489,0.0019369935616850853
1761476342386507300,10.55750732421875,0.0018414957448840141,0.005453135818243027,-0.0014183232560753822
1761476342396540400,10.56754052734375,0.002407331019639969,-0.0019431719556450844,-0.0029878048226237297
1761476342406573300,10.5775732421875,0.0012011853978037834,-0.005778656341135502,-0.0008998867124319077
1761476342416606200,10.587606201171875,0.0020277565345168114,-0.011112583801150322,0.00018301885575056076
1761476342426639400,10.597639404296874,-0.00016189459711313248,-0.006815572269260883,0.0013172589242458344
1761476342436673300,10.60767333984375,-0.0003603249788284302,-0.0008568009361624718,-0.0039792247116565704
1761476342446706200,10.6177060546875,-0.0021153483539819717,0.005900704301893711,-0.000667584128677845
1761476342456739000,10.627739013671874,-0.003817714285105467,0.009943767450749874,0.0002597915008664131
1761476342466772200,10.637772216796876,-0.0006797118112444878,0.009460936300456524,-0.0029085716232657433
1761476342476805000,10.64780517578125,-0.0043378062546253204,0.005027093458920717,-0.0008973628282546997
1761476342486838300,10.65783837890625,-0.0003396030515432358,0.0008248914964497089,-0.0012624822556972504
1761476342496872200,10.6678720703125,0.004084584303200245,0.0008534020744264126,0.0016236696392297745
1761476342506905300,10.6779052734375,0.0031924257054924965,0.0001623118296265602,0.0012708008289337158
1761476342516938800,10.687938720703125,0.0009720120579004288,0.0057189916260540485,0.003476136364042759
1761476342526972000,10.697971923828124,0.004449567757546902,0.009798155166208744,0.0006153685972094536
1761476342537004800,10.7080048828125,0.0035141119733452797,0.012108960188925266,0.001051723025739193
1761476342547038000,10.718037841796875,0.0038147829473018646,0.008865229785442352,-0.001710774376988411
1761476342557071600,10.728071533203124,0.0018224800005555153,0.010661538690328598,-0.0007384000346064568
1761476342567104800,10.738104736328125,0.002560975030064583,0.018225181847810745,0.009686010889708996
1761476342577137700,10.7481376953125,-0.002361221704632044,0.07992847263813019,0.036322835832834244
1761476342587170800,10.7581708984375,-0.0019782590679824352,0.13479943573474884,0.03757105767726898
1761476342597203700,10.76820361328125,-0.0014629927463829517,0.1465982049703598,0.01973719522356987
1761476342607236900,10.77823681640625,0.0006318492814898491,0.12393017113208771,0.00854046642780304
1761476342617270800,10.788270751953124,-0.001902771182358265,0.07756008952856064,0.0025974856689572334
1761476342627304000,10.798303955078126,-0.0009245919063687325,0.03191963583230972,0.004719226621091366
1761476342637336800,10.8083369140625,0.0008257590234279633,0.00018725916743278503,0.0043878452852368355
1761476342647370000,10.818369873046874,0.0021805083379149437,-0.03340185806155205,-0.002026377245783806
1761476342657403000,10.82840283203125,0.0021415576338768005,-0.07188866287469864,-0.013187033124268055
1761476342667435800,10.838435791015625,-0.0002984302118420601,-0.11903966218233109,-0.027401655912399292
1761476342677469700,10.8484697265625,-0.0018266616389155388,-0.16574881970882416,-0.03777846693992615
1761476342687502800,10.8585029296875,0.001439705491065979,-0.19081901013851166,-0.037519607692956924
1761476342697535700,10.86853564453125,0.0002876613289117813,-0.16700200736522675,-0.02414555475115776
1761476342707569000,10.87856884765625,-0.0012721521779894829,-0.08370338380336761,-0.003305520862340927
1761476342717601800,10.888601806640626,-0.0032863765954971313,0.01656366139650345,0.009707723744213581
1761476342727635000,10.898635009765625,-0.002339356578886509,0.08532728254795074,0.009447532705962658
