time,seconds_elapsed,z,y,x
1761475292456344800,0.0483447265625,0.0015624270111322402,-0.05435116055773105,-0.007308898241259157
1761475292466321700,0.05832177734375,0.002610474759340286,-0.04215943131151143,0.001091247569117695
1761475292476298800,0.068298828125,0.006797989577054977,-0.03128999561103992,-0.007198314006254076
1761475292486276900,0.07827685546875,0.0036591070294380184,-0.025855882832291534,-0.0032131350939162075
1761475292496253700,0.088253662109375,-0.0014279869765043258,-0.017318031884543596,-0.013057707558944821
1761475292506230800,0.098230712890625,0.02386310614645481,-0.025053653938160277,-0.007137505463417619
1761475292516207600,0.10820751953125,0.010847557228803635,-0.03230166143819224,0.0007624905387870966
1761475292526184700,0.118184814453125,0.011148586001992224,-0.021594156567472964,0.00007217018706724048
1761475292536161800,0.128161865234375,-0.0008165770798921585,-0.019768009719392285,-0.0059180649373680345
1761475292546139600,0.1381396484375,-0.004553425520658493,-0.034298150751343924,0.007061097492650151
1761475292556116700,0.14811669921875,0.002786415848135948,-0.025312624534755013,-0.005143920493405312
1761475292566093600,0.158093505859375,0.002790507501363754,-0.026553176347492262,-0.0014421433660201728
1761475292576071000,0.16807080078125,0.002944236758351326,-0.022408422959269956,0.007943214089423417
1761475292586048000,0.178048095703125,0.015219780963659285,-0.03593363843210973,0.007964677002560348
1761475292596024800,0.18802490234375,0.008937339693307875,-0.023561120675329582,-0.00873368861367926
1761475292606002700,0.198002685546875,0.004898877957463264,-0.0187561657957267,-0.0016588183240033685
1761475292615979800,0.207979736328125,0.007893968120217323,-0.03043438571199076,-0.0000960625193081796
1761475292625956900,0.217956787109375,-0.003479658809304237,-0.02252914956237655,-0.013501688466779887
1761475292635934000,0.227933837890625,0.017172668597102165,-0.02983795190551318,-0.010290544400550425
1761475292645910800,0.237910888671875,-0.005424363136291504,-0.028637930749275255,0.0020234138526953756
1761475292655888000,0.247887939453125,0.0062456163913011545,-0.019416881027049384,-0.012879611045680939
1761475292665866000,0.257865966796875,0.004599018228054046,-0.014489665174379478,0.009654000062681734
1761475292675842800,0.2678427734375,-0.0010848726272583008,-0.019850000330863985,-0.0006385353655554354
1761475292685820000,0.27781982421875,0.017172668597102165,-0.02898460931207519,0.0016609554821625351
1761475292695796700,0.287796630859375,0.007000234150886535,-0.02298380256127566,-0.017402458764985203
1761475292705773800,0.29777392578125,0.003114332628250122,-0.016271831316838507,0.0011650069250725209
1761475292715750700,0.307750732421875,0.007903320470452307,-0.03698053540284745,0.0011926438506692648
1761475292725727700,0.317727783203125,0.0029699557214975356,-0.026990757197292985,0.0019418365164659917
1761475292735706400,0.327706298828125,0.006264905613660812,-0.016724381406907924,0.004628792311809957
1761475292745683500,0.337683349609375,0.018686580291390417,-0.035231892504077406,-0.002651263427454978
1761475292755660300,0.347660400390625,0.0019259996265172958,-0.014842586248298175,-0.014374270050227641
1761475292765637400,0.357637451171875,0.011502806267142295,-0.023693932725163177,-0.00948209582818672
1761475292775614500,0.367614501953125,0.002830254989862442,-0.0219649923239951,-0.005964260432962328
1761475292785591300,0.37759130859375,0.008512976801395416,-0.022503188570635393,-0.0022212562460452315
1761475292795569400,0.3875693359375,0.007917933517694473,-0.029280758697458074,-0.006779211811348796
1761475292805546500,0.39754638671875,0.021091303345561026,-0.026535021919582503,0.0005472586192190647
1761475292815523300,0.4075234375,0.012113047119975089,-0.030361343308666255,-0.014425525313429534
1761475292825500400,0.41750048828125,0.01077449199259281,-0.025603186712856402,-0.0023609569776803256
1761475292835477200,0.427477294921875,0.0016524433821439742,-0.02502152806711383,-0.00721488154856488
1761475292845454300,0.437454345703125,0.007640870141983031,-0.02980741520335432,0.0043658487929962575
1761475292855432400,0.447432373046875,0.0067465516507625575,-0.013754937142063862,-0.0077884619191288945
1761475292865409300,0.4574091796875,0.00973930372595787,-0.01673238433356164,-0.019779453562013802
1761475292875386400,0.467386474609375,0.01288636958003044,-0.019259555590467062,-0.010365399735048412
1761475292885363500,0.477363525390625,0.010045008674263953,-0.022080684275669043,0.002832483479566872
1761475292895340500,0.487340576171875,-0.0052127662122249604,-0.02257298413752578,-0.008495605541486293
1761475292905317400,0.4973173828125,0.0018231237739324568,-0.0170245562301483,0.005500698041822761
1761475292915295500,0.50729541015625,0.014841010779142379,-0.032046640930930154,-0.0017415829703211784
1761475292925272600,0.5172724609375,0.022919687816500663,-0.028813529344776177,-0.006507573529426008
1761475292935249400,0.52724951171875,0.014694880306720733,-0.01591106257989304,-0.006192150904703885
1761475292945226500,0.5372265625,0.0037760114073753354,-0.023568331300828138,0.003234744137525558
1761475292955203300,0.547203369140625,0.005723638343811035,-0.008302220127545296,0.0019798852382227777
1761475292965180400,0.557180419921875,-0.0010053776502609252,-0.024637937860295642,0.01410564570929855
1761475292975158500,0.567158447265625,-0.013120762857794762,-0.01468032890827162,0.014261402526590972
1761475292985135400,0.57713525390625,0.00019815292060375213,-0.018273387247463687,0.0009514737722463905
1761475292995112400,0.587112548828125,0.005584522134065628,-0.021782043822389095,0.0023875892562791705
1761475293005089500,0.597089599609375,0.0015483984857797622,-0.020653770444821567,0.005506141401920467
1761475293015066400,0.60706640625,0.018459201276302337,-0.0324411429741187,-0.012666406686417758
1761475293025043500,0.61704345703125,0.002601122409105301,-0.004557377893279772,-0.010175247457809745
1761475293035021300,0.627021240234375,0.009783142867684363,-0.008396759693336206,-0.0012087364689446986
1761475293044998400,0.636998291015625,0.005893149691820144,-0.02226699834471801,-0.0006208718447014689
1761475293054975500,0.6469755859375,-0.00009235445857048034,-0.025287538042559753,-0.0031739538609981536
1761475293064952300,0.656952392578125,0.006790390792489051,-0.02607928207529476,-0.006211787186935543
1761475293074929400,0.666929443359375,-0.00907177972793579,-0.020957370201009323,-0.006721362410578876
1761475293084906200,0.67690625,0.00274842192530632,-0.014064402666746172,-0.0024335107572376726
1761475293094884400,0.68688427734375,-0.0011398176848888397,-0.012693847249192185,-0.008469502985849977
1761475293104861400,0.696861328125,-0.011311083087325095,-0.017640573803219012,0.0036476175210438666
1761475293114838300,0.70683837890625,-0.0006844751328229904,-0.02095266434313962,0.0031473215823993087
1761475293124815400,0.7168154296875,0.018623451927304267,-0.025810128011403137,-0.00042810748526826497
1761475293134792400,0.72679248046875,0.02086801598370075,-0.003149036332161631,0.008092669030092656
1761475293144769500,0.73676953125,0.016533786171674728,-0.005557325883174781,-0.01597010614061728
1761475293154747400,0.746747314453125,0.012494155392050742,-0.008648884990613441,-0.011632003871072083
1761475293164724200,0.75672412109375,0.0048632221221923825,-0.021902348017098845,0.004085296552255749
1761475293174701600,0.76670166015625,0.003970072674751282,-0.02384473252283642,0.005303604567144066
1761475293184678400,0.776678466796875,-0.00784837541282177,-0.021062305579939856,0.0022400157454423603
1761475293194655500,0.786655517578125,-0.013834464085102081,-0.019393043493735603,-0.014240359738562256
1761475293204632600,0.796632568359375,0.006371288597583771,-0.01551811317297397,-0.023210852782800794
1761475293214610400,0.8066103515625,0.005325578936934471,-0.010904454498214181,-0.01460574071854353
1761475293224587500,0.81658740234375,0.007126490879058837,-0.007149221017386298,-0.00036079613640904425
1761475293234564400,0.826564453125,0.0086269585698843,-0.016678825232130476,0.01805047434493899
1761475293244541400,0.83654150390625,0.0068348144561052315,-0.014979037860210518,-0.007705331946630031
1761475293254518500,0.8465185546875,0.0038438159465789793,-0.010670469929114915,-0.011117715939693152
1761475293264495400,0.856495361328125,0.0007025953114032745,-0.01111880506837042,-0.009902896789833903
1761475293274473500,0.866473388671875,-0.004533551776409149,-0.019488736120285465,0.001812565847299993
1761475293284450300,0.8764501953125,-0.010366495713591575,-0.02338203093151096,0.001921761842817068
1761475293294427400,0.886427490234375,-0.0018348142117261886,-0.014367634813464246,-0.009370762674510478
1761475293304404500,0.896404541015625,0.007593523868918419,-0.0034363516738289035,0.004000559144560247
1761475293314381300,0.90638134765625,0.008488426882028579,-0.013267064576863776,0.012392247653845697
1761475293324358400,0.9163583984375,-0.0003372691303491592,-0.006923403771722223,-0.0030507841390557586
1761475293334336500,0.92633642578125,0.010890811848640441,-0.009484833491255994,0.0026658216757699848
1761475293344313300,0.936313232421875,0.007899813339114188,-0.015287151678022928,0.0010800503216683863
1761475293354290400,0.94629052734375,0.018071663263440133,-0.018279654874757398,0.0073581076778471465
1761475293364267300,0.956267333984375,0.012834931653738021,-0.014811364559549837,-0.0034078356821089983
1761475293374244400,0.966244384765625,0.014482698860764502,-0.014091313506558071,-0.0045701939923688765
1761475293384221400,0.976221435546875,0.00879646991789341,-0.001076476974959951,-0.00319830285096541
1761475293394198500,0.986198486328125,0.008196750459074973,-0.005311817556351889,-0.0047824302372522646
1761475293404176400,0.99617626953125,0.01567570803761482,-0.0025686951439594847,-0.010720131456851958
1761475293414153200,1.0061533203125,0.00460018727183342,-0.013636379663157276,0.004140406006667763
1761475293424130600,1.016130615234375,0.005047931039333343,-0.021389048749697392,-0.010432126562017946
1761475293434107400,1.026107421875,0.0019072949260473251,-0.005171829130349215,-0.006483169740531593
1761475293444084500,1.03608447265625,0.004154197070002556,-0.01929419079571962,0.0010769815817475317
1761475293454061600,1.0460615234375,0.001609188762307167,-0.0024630085630691608,0.001626012032944709
1761475293464039400,1.056039306640625,0.006249708044528961,-0.006608280257810838,0.01488395487172529
1761475293474016500,1.0660166015625,0.012533318358659744,-0.011641598249902017,0.001515007672831416
1761475293483993300,1.075993408203125,0.009391513201594353,-0.015823930002423003,0.009182400495558976
1761475293493970400,1.085970458984375,0.00789630620777607,-0.01562573369933525,-0.008299443648569285
1761475293503947500,1.095947509765625,-0.00930792657136917,0.0011382650486193597,0.0008170154713094234
1761475293513924400,1.10592431640625,-0.0036199440628290175,-0.016446635327895635,-0.0043452078637667
1761475293523902500,1.11590234375,0.011491115829348563,-0.01329772001003148,-0.001462802561558783
1761475293533879600,1.125879638671875,0.0019137246668338775,-0.0169094168343232,-0.0017955233809538184
1761475293543856400,1.1358564453125,0.004005143988132477,-0.003684538298216648,-0.012232125188689678
1761475293553833500,1.14583349609375,0.014177578434348106,-0.005018321352358907,0.0070831631939858196
1761475293563810300,1.155810302734375,0.006844166806340217,-0.010784716559085063,0.0013327829737216233
1761475293573787400,1.165787353515625,-0.0027332243561744686,0.000816124988743104,-0.00631491876784712
1761475293583765500,1.175765625,0.010882044020295143,-0.003554372579907067,-0.011152056600712239
1761475293593742300,1.185742431640625,0.011483517044782638,-0.005980241170094814,0.00017323767505586147
1761475293603719400,1.195719482421875,-0.001985036337375641,-0.0183690981403226,0.008348506954684852
1761475293613696300,1.2056962890625,0.008792378264665604,-0.021850001341931054,-0.009338084247615187
1761475293623673300,1.21567333984375,0.016126958936452863,-0.011676635313953737,0.008280264024063944
1761475293633650200,1.225650146484375,0.012083236503601073,-0.017489639291516503,-0.002201236371323466
1761475293643627500,1.23562744140625,0.0060953942656517025,-0.015446079983224626,-0.0005266542226076126
1761475293653605400,1.24560546875,0.0005605564922094345,-0.010502136758039704,-0.007342435184679925
1761475293663582200,1.255582275390625,0.009841010534763335,0.004398488403984811,-0.0046549679326824845
1761475293673559600,1.2655595703125,0.012688216659426689,-0.015270874113368336,-0.006901194223202765
1761475293683536400,1.275536376953125,0.0076005381315946575,-0.003536757008114364,-0.006759246735554188
1761475293693513500,1.285513427734375,-0.010053776502609251,-0.007987133146252016,-0.0009533004031516611
1761475293703490600,1.295490478515625,0.007454407659173011,-0.02757648922995431,-0.004228102556429803
1761475293713468400,1.305468505859375,0.007608721438050269,-0.005215321212203707,-0.007668470534961671
1761475293723445500,1.315445556640625,-0.0024169980138540265,-0.010615399290609638,-0.000026979338470846413
1761475293733422000,1.325422119140625,-0.003016132950782776,-0.014613040392298717,0.00906624503629282
1761475293743399200,1.335399169921875,0.0025175357788801193,-0.01589143543081591,-0.01169241055510938
1761475293753376300,1.345376220703125,0.00820610280930996,-0.019756214250321497,-0.014764383612666278
1761475293763353000,1.35535302734375,0.005066635739803314,-0.017038349576771725,-0.0010335808314383028
1761475293773331200,1.365331298828125,0.02107552125453949,-0.01779696080817375,0.019965660316497085
1761475293783308300,1.375308349609375,0.009554010286927223,-0.006579275642323773,0.02191988139050081
1761475293793285000,1.38528515625,-0.002716273221373558,-0.009763033944705967,0.0015384616136550901
1761475293803262200,1.39526220703125,0.008508300626277924,-0.012287394473305903,0.014330741435755044
1761475293813239000,1.405239013671875,0.0014735796838998795,-0.013497345651802606,0.003919548063911498
1761475293823216000,1.415216064453125,-0.007200725159049033,-0.004263109937729314,-0.015055329383257775
1761475293833194200,1.4251943359375,0.011208207234740256,-0.01285682610842632,0.012907083574496209
1761475293843171000,1.435171142578125,-0.001513327172398567,-0.010126213834446389,-0.005918119736295193
1761475293853148200,1.445148193359375,-0.0052589434415102,-0.011307633038202765,-0.0041594577670097345
1761475293863125000,1.455125,-0.0021188918501138685,-0.016292856980202487,0.0009745258542709052
1761475293873102000,1.46510205078125,0.005360065728425979,-0.007863305837183724,0.007131824641302228
1761475293883079200,1.4750791015625,0.011644845086336135,-0.010662028611043933,0.0030718999923206865
1761475293893056300,1.48505615234375,-0.001228080490231514,-0.0018751941711758263,-0.0005366093610413372
1761475293903034000,1.4950341796875,0.0077495912134647365,-0.0028829042007739187,-0.01327637354461476
1761475293913011200,1.50501123046875,0.0007148702710866927,-0.016082046649069523,0.007158529985137284
1761475293922988300,1.51498828125,-0.006615034225583076,-0.019445344503130763,0.004407916102744639
1761475293932965000,1.524965087890625,0.0010164835661649703,-0.010580393050954444,0.002006919375620782
1761475293942942200,1.534942138671875,0.02092120747566223,-0.0015627866290917154,0.015426500783208758
1761475293952919300,1.544919189453125,0.0062567223072052,0.00536060572618735,-0.0026807269839569923
1761475293962897200,1.554897216796875,0.014186346262693404,-0.008813272638933266,-0.0012239888370037077
1761475293972874200,1.564874267578125,0.014932196193933486,-0.016538713508541695,0.009447554237768054
1761475293982851300,1.574851318359375,-0.0012292495340108871,-0.0117006954679091,0.0064405544415116305
1761475293992828200,1.584828125,-0.004072364005446433,-0.013661356557498219,-0.015708331665582952
1761475294002805200,1.59480517578125,0.008946692043542861,-0.012051730545418103,0.012710355425998568
1761475294012782000,1.604781982421875,0.004758008182048797,-0.007572201378032332,0.016051062422338874
1761475294022760200,1.61476025390625,0.008501870885491371,-0.0034458878287987314,-0.014827932101860642
1761475294032737300,1.6247373046875,0.012092004331946373,-0.009914697967126266,-0.003795538091752678
1761475294042714000,1.634714111328125,0.00910100582242012,0.0014957675411773378,-0.0014805756802670656
1761475294052691200,1.644691162109375,-0.0033189152896404266,-0.008664557483780663,0.0010600669795647263
1761475294062668000,1.65466796875,0.009100421300530433,-0.014955618168716317,-0.00988289518142119
1761475294072645000,1.66464501953125,0.0022188450932502744,-0.007025361742277163,-0.003531023670360446
1761475294082622000,1.6746220703125,0.0023696517407894133,0.0020052194672345648,-0.01202509484188631
1761475294092600000,1.68460009765625,0.004611877709627152,-0.0028036923515668602,-0.01196587546793744
1761475294102577200,1.6945771484375,0.007756020954251289,0.007939690975064877,0.002883866606932133
1761475294112554000,1.704553955078125,0.0011725509107112884,0.0009792248622747138,-0.00816500361394137
1761475294122531000,1.714531005859375,0.00027647885382175443,-0.0183528993491258,-0.009449855792708694
1761475294132508200,1.724508056640625,0.0032709844946861265,-0.010030505224876106,0.01635437448415905
1761475294142485200,1.7344853515625,0.019881927555799483,-0.002494648093637079,-0.007974705206230281
1761475294152463000,1.744463134765625,0.007761281651258468,-0.0036012633368896784,-0.011262019781209527
1761475294162440000,1.75443994140625,-0.012289572730660437,-0.017161453083343804,-0.012436634784843772
1761475294172417300,1.764417236328125,0.013448679637908936,0.0049481524677772535,0.015423578173760324
1761475294182394400,1.774394287109375,0.006414543217420578,-0.009310854889039183,0.002068038445711136
1761475294192371200,1.78437109375,-0.0028659108251333234,-0.00864869547765702,0.005092318170331418
1761475294202348300,1.794348388671875,0.020177111110091208,-0.016669813091901596,0.004721968754287808
1761475294212325000,1.8043251953125,0.010296937608718871,-0.008924272432469297,0.005462156129721552
1761475294222303200,1.81430322265625,-0.009155366358160971,-0.008579421642218948,0.0023572671832516787
1761475294232280300,1.8242802734375,0.02346563126146793,-0.002163909168774262,-0.008568104522116482
1761475294242257200,1.834257080078125,0.004462824627757072,-0.005543813381053041,0.003143357793334871
1761475294252234200,1.844234130859375,0.013291443249583243,-0.011227517006697598,-0.0016487901203334331
1761475294262211000,1.854211181640625,0.010596212816238402,-0.0067926638063217975,-0.010700020250584929
1761475294272188200,1.864188232421875,0.004162964898347854,-0.003989680415875045,-0.012466792461089789
1761475294282166300,1.874166259765625,0.007007248413562774,-0.014310381351027171,0.008234835713449865
1761475294292143000,1.88414306640625,-0.0022737901508808134,-0.01976856227524113,-0.00493334648264572
1761475294302120200,1.8941201171875,-0.0015279402196407318,-0.01651463851321023,0.006623272330965846
1761475294312097000,1.904096923828125,0.0035603228300809856,-0.016762851395417236,-0.005633932500053197
1761475294322074000,1.91407421875,0.009396189376711845,0.0025254679235862565,-0.005925955982878804
1761475294332051200,1.92405126953125,0.011789221993088721,-0.010081883785664103,-0.01061151998322457
1761475294342028000,1.934028076171875,0.0034130233138799666,-0.0024687772917968685,0.0058247240981087085
1761475294352006100,1.944006103515625,-0.005413257220387459,-0.013878206187061731,0.0032000198840163646
1761475294361983000,1.95398291015625,0.002668342426419258,-0.008929708942701108,0.00833674345165491
1761475294371960000,1.9639599609375,0.010151976180076598,0.00016977506784605792,0.008244407259393483
1761475294381937200,1.973937255859375,-0.0022667758882045745,-0.006338216303399531,-0.004564823697507381
1761475294391914200,1.983914306640625,-0.000022796353697776793,-0.01399009646316408,-0.0014617796482518314
1761475294401891300,1.993891357421875,0.004767360532283783,-0.005052058083534939,-0.009619513271190226
1761475294411869000,2.003868896484375,0.0029728783309459685,-0.00830616565030068,-0.0028441008521243928
1761475294421846300,2.01384619140625,0.007763619738817214,-0.01111104188702302,0.0018866357305087147
1761475294431823400,2.0238232421875,0.009409633380174637,-0.018759280201420186,0.0005325177078135311
1761475294441800200,2.03380029296875,-0.0013654431343078613,0.0012469621455704328,0.004518116745259613
1761475294451777300,2.04377734375,0.0032709844946861265,-0.011861262032703962,0.011161153222620486
1761475294461754000,2.053754150390625,-0.0027127660900354384,-0.016766812901193043,-0.007478044263087212
1761475294471731200,2.063731201171875,0.013449848681688309,0.001822140818176558,0.0009635843351483344
1761475294481709300,2.073709228515625,-0.001211129355430603,-0.011239857040107017,0.0039357685463503
1761475294491686100,2.08368603515625,0.015249007058143615,-0.007800206014205468,-0.015966105818934737
1761475294501663200,2.093663330078125,0.008367430850863456,-0.01775210674465052,-0.005430738078150898
1761475294511640000,2.10364013671875,0.0005880290210247039,-0.01594974605588941,0.013794680063985288
1761475294521617200,2.1136171875,0.0025339023917913435,-0.005608019457373302,0.010066142793837935
1761475294531594200,2.12359423828125,0.01061550203859806,-0.0035883867306518366,0.01803029007343575
1761475294541572000,2.133572021484375,0.012262684723734854,-0.0022974119134189096,0.008666980053018778
1761475294551549200,2.143549072265625,0.007921440649032592,-0.007781072055472759,0.0009385594917461276
1761475294561526000,2.153526123046875,0.008068155643343925,-0.000997727491700789,0.006357643664721399
1761475294571503000,2.163503173828125,0.00013794716596603394,-0.004610585368261672,-0.008140709422901272
1761475294581480200,2.173480224609375,0.004326046505570411,-0.0029031524043588433,-0.008055570156406611
1761475294591457000,2.18345703125,0.009408464336395262,-0.009833416316774674,0.009832626298908144
1761475294601434000,2.19343408203125,0.007313537883758545,0.001967197003297042,0.00834105430059135
1761475294611412000,2.203411865234375,0.001924246060848236,-0.003953583905898267,-0.004628938442282378
1761475294621389000,2.21338916015625,0.00042260932624340057,-0.0023104757493245414,0.011173848307412117
1761475294631366100,2.2233662109375,0.00490647674202919,-0.01487744864076958,0.004528729470819235
1761475294641343200,2.23334326171875,0.0005634791016578674,-0.0038375471776409538,-0.003247731483262032
1761475294651320300,2.2433203125,-0.003926233533024788,0.005926102113351226,0.004968582192808389
1761475294661297200,2.253297119140625,0.006400514692068099,0.00003903281915700063,-0.0005093742942437529
1761475294671275300,2.263275146484375,0.0032569559693336487,0.0014988488391856662,-0.00713785252328962
1761475294681252400,2.27325244140625,0.00729717127084732,-0.003794307399180252,0.006325604558642953
1761475294691229200,2.283229248046875,0.01762333497405052,0.0002706576094555203,0.0026257088610902425
1761475294701206300,2.293206298828125,0.012832593566179275,-0.005480461254680995,-0.004943155490607023
1761475294711183000,2.30318310546875,0.005801379755139351,-0.0018727579022059216,0.0010858772742561996
1761475294721160200,2.31316015625,0.002661328163743019,-0.013353425402776337,-0.0018140636846423147
1761475294731137500,2.323137451171875,0.015830606338381768,-0.004160041147255105,0.012013331338856369
1761475294741115400,2.333115478515625,0.007599953609704971,-0.001961963705753442,0.004662804179266095
1761475294751092500,2.343092529296875,0.0008680150061845779,-0.001609860049164854,-0.000809526284597814
1761475294761069600,2.353069580078125,-0.0016758242577314376,-0.014074954885157058,0.0032365342358127236
1761475294771046400,2.36304638671875,0.004606617012619972,-0.007232248241896741,0.004970427090022713
1761475294781023500,2.3730234375,0.005803717842698097,0.005044042598793748,0.006908372882660478
1761475294791000300,2.383000244140625,-0.007812135055661201,0.005226384887268068,0.008303261307161301
1761475294800977400,2.392977294921875,0.004755670094490051,-0.00772395559035358,-0.016763302344921974
1761475294810955500,2.40295556640625,-0.015296353331208228,-0.0042522951411257965,-0.011409246232174337
1761475294820932400,2.412932373046875,-0.008860767325758934,-0.001983170890563633,0.005693224939238279
1761475294830909400,2.422909423828125,0.007751344779133796,0.004565364836913067,0.00039279870986938477
1761475294840886300,2.43288623046875,0.006404021823406219,0.0008761446553573477,0.0024562888446263966
1761475294850863400,2.44286328125,-0.006164367848634719,0.0056736982548609375,-0.009334577116277068
1761475294860840400,2.45284033203125,0.005803717842698097,-0.005218258663028245,-0.011549111360590903
1761475294870818300,2.462818359375,-0.006620294922590256,-0.0044297466253512535,0.0035582587371580303
1761475294880795400,2.47279541015625,-0.003178630036115646,-0.006085618365375557,-0.0004709967789240181
1761475294890772200,2.482772216796875,-0.004223170652985573,0.0057330614759936,0.006516724950261414
1761475294900749600,2.49274951171875,0.00849836375415325,0.0020192114599689374,0.001812437983136624
1761475294910726700,2.5027265625,0.01448328338265419,-0.009705106912122573,-0.0003036225890740752
1761475294920703500,2.512703369140625,0.010741174244880676,-0.01028647672185325,0.006376110903173685
1761475294930680600,2.5226806640625,0.0040104046851396555,-0.0019072424104087985,-0.013100889113545417
1761475294940658700,2.53265869140625,0.006255553263425827,-0.0038205001447175163,-0.009327946446090937
1761475294950635500,2.542635498046875,0.003109656453132629,-0.002020221815188415,0.002492584000714123
1761475294960612600,2.552612548828125,0.014780220502614974,-0.004827861972799292,0.0061965896178036925
1761475294970589400,2.56258935546875,0.007149287232756614,-0.0013593684449035208,0.012644706311263144
1761475294980566500,2.57256640625,0.0020657003581523894,0.008580331532738636,0.005928823793400079
1761475294990543400,2.58254345703125,0.007901566904783249,-0.0067624536144372535,0.011012081874441354
1761475295000520400,2.5925205078125,-0.012300094124674796,0.007398199942929204,0.009482260224968194
1761475295010498600,2.60249853515625,-0.013946107766032218,-0.006113153684628196,-0.007417162655014544
1761475295020475400,2.612475341796875,0.005807224974036216,0.007648673280881485,-0.003765910138469189
1761475295030452500,2.622452392578125,-0.0060118076354265205,-0.008795370514417299,0.002613013776298612
1761475295040429300,2.63242919921875,-0.00944996539056301,-0.001406393915915396,0.011880151679553091
1761475295050406400,2.642406494140625,-0.007957096484303474,-0.010541522345290285,0.009335910556837915
1761475295060383500,2.652383544921875,-0.0000263034850358963,-0.0035893034710374194,-0.0007081482693552971
1761475295070360300,2.6623603515625,0.00985036288499832,0.00594391290632193,-0.002933624032791704
1761475295080338400,2.67233837890625,-0.003017301994562149,-0.00006246278545004315,-0.006928502355236559
1761475295090315300,2.682315185546875,0.0026700959920883177,-0.008629889170842944,-0.006432809526473284
1761475295100292400,2.692292236328125,0.0026718495577573776,-0.006234634914627531,0.0005354037846438586
1761475295110269400,2.70226953125,0.0023725743502378462,0.010552572320622858,-0.0032190716443583367
1761475295120246500,2.71224658203125,-0.004510755422711372,0.0012448010128806345,0.005310564030893147
1761475295130223600,2.7222236328125,0.008353402325510979,0.0071011874744435766,-0.00385610917257145
1761475295140201500,2.732201416015625,0.017632687324285506,0.01013762228609412,-0.01427623476954177
1761475295150178600,2.742178466796875,0.01074701946377754,-0.0030295153054525144,-0.0040296573748812075
1761475295160155600,2.75215576171875,0.0023690672188997268,-0.007216457017720676,-0.008450506024435162
1761475295170132500,2.762132568359375,0.004914660048484802,0.004887627052731113,-0.000008055442292243242
1761475295180109600,2.772109619140625,0.001772270369529724,-0.00043781032030819914,0.006881448343116789
1761475295190086400,2.78208642578125,0.006859364375472068,0.002143554792267969,0.0049362142931669946
1761475295200063500,2.7920634765625,-0.00795242030918598,0.014521956583851714,-0.0023255020718090237
1761475295210041600,2.80204150390625,-0.0010720131456851958,0.012614654807938495,-0.009467683710344135
1761475295220018400,2.812018310546875,0.01418868435025215,0.006026993788115214,0.00795665809288621
1761475295229995500,2.82199560546875,0.015834113469719885,-0.011183169833250576,-0.003127941028494388
1761475295239972400,2.831972412109375,0.010748188507556915,-0.004613386963412631,-0.0006780271257273852
1761475295249949400,2.841949462890625,0.003415361401438713,0.001761363099736627,-0.001878306293580681
1761475295259926500,2.851926513671875,0.014187515306472777,0.007507171034516068,-0.01557078635841608
1761475295269903400,2.8619033203125,0.005056114345788955,-0.009362034803716232,0.010197477555926888
1761475295279881500,2.871881591796875,0.003708791390061378,-0.006196827079821378,0.0121438258507289
1761475295289858300,2.8818583984375,-0.0004816460371017456,0.0030514097601408137,0.002984221708867699
1761475295299835400,2.89183544921875,-0.005125087928771972,0.0017463219358760398,-0.019929054633155464
1761475295309812500,2.9018125,0.0043003275424242015,-0.00423748687270563,0.010683836300764232
1761475295319789300,2.911789306640625,0.005796119058132172,0.01719816608125111,0.0025637678070925176
1761475295329766400,2.921766357421875,0.01073708259165287,-0.00926527017315384,0.004911225982382893
1761475295339743500,2.931743408203125,0.010440729993581772,-0.0037797594256640875,0.012512421701103449
1761475295349721300,2.941721435546875,-0.001982113727927208,0.004620726594718872,-0.007784607727918774
1761475295359698400,2.951698486328125,-0.003929740664362907,-0.01134824475144851,-0.01042661013668403
1761475295369675500,2.961675537109375,0.001757072800397873,-0.009234210597898345,0.002025551010854542
1761475295379652600,2.971652587890625,-0.004377484431862831,0.002498546808975516,-0.002899466034863144
1761475295389629400,2.98162939453125,-0.005574000740051269,-0.004063551652972819,0.006709927701111882
1761475295399606500,2.9916064453125,-0.001388239488005638,0.010683803193079074,0.0017456015583127737
1761475295409584600,3.001584716796875,0.010578092637658118,0.007541351865330943,0.008886084430105985
1761475295419561500,3.0115615234375,0.008482581663131714,-0.007814612423826474,0.01455444892272353
1761475295429538600,3.02153857421875,0.0095288758456707,-0.010067880376486572,-0.0010535459072329102
1761475295439515400,3.031515380859375,-0.00034837504625320433,-0.005444387577590532,-0.005888564848247915
1761475295449492500,3.041492431640625,0.008481412619352341,-0.010116800977062666,-0.002568151721265167
1761475295459469600,3.051469482421875,0.005488660544157028,-0.0101522364749806,0.016286770874354987
1761475295469446400,3.0614462890625,0.007729717469215393,-0.012593195319734513,0.0026823344191536304
1761475295479424500,3.071424560546875,0.013567337581515312,-0.014734345809073419,0.009179934543836862
1761475295489401300,3.0814013671875,0.015066051706671715,-0.0052827570002933495,0.0035908458325080573
1761475295499378400,3.09137841796875,0.004293313279747963,-0.011387215921812457,-0.011629665783513337
1761475295509355500,3.10135546875,0.012974047863483428,-0.010758063730888534,0.0038512503343634307
1761475295519332400,3.111332275390625,0.007587094128131866,0.008601685989665566,-0.006465433154441416
1761475295529309400,3.121309326171875,0.020456512573361396,-0.005331057688005967,0.0046133755469694735
1761475295539286300,3.131286376953125,0.012075053197145462,0.0015168194623605812,-0.0005211377972736955
1761475295549264400,3.141264404296875,0.0047428106129169464,-0.007992318494734354,0.00005415960634127259
1761475295559241500,3.151241455078125,-0.00722702864408493,-0.001078167750191642,-0.018905209744442254
1761475295569218300,3.16121826171875,-0.005581015002727508,0.006109406807983759,-0.0010965082661248743
1761475295579195400,3.1711953125,-0.010667524486780166,-0.0027022915034380273,-0.0004593246074393391
1761475295589172500,3.18117236328125,0.00803483789563179,-0.014136610528075834,-0.00310885273553431
1761475295599149600,3.191149658203125,0.0035427871733903884,-0.0007502338454127311,0.0000662336366251111
1761475295609127400,3.20112744140625,0.006536123770475387,-0.012060081673588137,0.008903565287869423
1761475295619104500,3.2111044921875,0.019254735568165777,-0.004944758359226398,-0.009985405707824975
1761475295629081600,3.22108154296875,0.006381809991598129,-0.001681305292091565,-0.0035567974324338136
1761475295639058400,3.231058349609375,-0.011577625069022178,-0.008672230475227116,0.0008324139698408544
1761475295649035500,3.241035400390625,-0.0008054711639881133,-0.005045486778853228,0.0025628179590217767
1761475295659012600,3.2510126953125,0.010862170276045798,0.005028564185160212,-0.0026858415504917503
1761475295668989400,3.260989501953125,0.01175882685482502,-0.005936226215143688,0.005036149269994348
1761475295678967600,3.270967529296875,0.004127893584966659,0.0014892647351545747,-0.009757095110975205
1761475295688944400,3.2809443359375,0.014749825364351273,-0.004197633211285574,-0.0027982524164021014
1761475295698921500,3.29092138671875,0.004423077139258384,-0.015851458471809746,0.0038699367685243484
1761475295708898600,3.300898681640625,-0.0020107553005218504,-0.0036679616227513175,-0.02036797577338293
1761475295718875400,3.31087548828125,0.011757657811045647,0.0032342395307379773,0.003952938876859844
1761475295728852500,3.3208525390625,0.008765490257740021,-0.007154458881507161,0.01670554427569732
1761475295738829300,3.330829345703125,0.010261866295337676,-0.011649168493360047,-0.0032251543252728877
1761475295748807400,3.340807373046875,-0.009041969111561774,-0.009403478775668191,-0.0020436346568167207
1761475295758784300,3.3507841796875,-0.0032061025649309156,0.0018016939684806857,0.006206343826837837
1761475295768761300,3.36076123046875,-0.005748772785067558,-0.004418532253237208,-0.007514668212737888
1761475295778738400,3.370738525390625,-0.0032078561305999755,-0.0025891579766757784,-0.010026504903193562
1761475295788715300,3.38071533203125,0.0008364508241415023,-0.007117469605675432,0.0003109291126951575
1761475295798692400,3.3906923828125,0.002482464465498924,-0.004176682896446436,-0.005662884599901735
1761475295808669400,3.40066943359375,0.009662731358408927,0.000526069700717926,-0.0041214455778710544
1761475295818647300,3.410647216796875,0.007867664635181426,-0.006895114967221161,-0.003950947849173099
1761475295828624400,3.420624267578125,0.00008884732723236084,-0.016796155443397583,0.008715038712136447
1761475295838601500,3.4306015625,0.001135141509771347,-0.005415687781135784,0.0067179466107860205
1761475295848578600,3.44057861328125,0.005178279420733452,0.006091945358173688,-0.00514147280799225
1761475295858555400,3.450555419921875,-0.0008083937734365463,0.0022338988151983357,0.002448890989460051
1761475295868532500,3.460532470703125,-0.003803483936190605,0.0018156231707776897,-0.0025827099695801734
1761475295878509600,3.470509521484375,-0.0012608137160539626,-0.00536289129810757,-0.005170497973076999
1761475295888487400,3.4804873046875,-0.0030552959173917767,-0.016279152681835694,0.004750153669156134
1761475295898464500,3.490464599609375,-0.013082184413075446,0.007733004263200564,0.006481196979153901
1761475295908441300,3.50044140625,0.0041238019317388535,-0.005313702411117264,-0.006795468826405703
1761475295918418400,3.51041845703125,0.01759293983578682,-0.0007084804878511931,-0.01210192293776199
1761475295928395500,3.5203955078125,0.006371873119473457,-0.012834053729259175,-0.008746602894179523
1761475295938372400,3.530372314453125,-0.0005120411753654479,-0.0017245975861907936,-0.005612049461808055
1761475295948349400,3.540349365234375,0.011012392401695251,-0.007932489482720849,-0.004933657009899616
1761475295958327300,3.550327392578125,0.008918634992837906,0.00197607899607392,-0.01535111572574824
1761475295968304400,3.560304443359375,0.007573650124669075,-0.0020683170069241896,0.0014716434551402926
1761475295978281500,3.570281494140625,0.01924596773982048,-0.0009497247731545939,0.002833159333001822
1761475295988258300,3.58025830078125,0.0024888942062854767,0.00002427364144241437,0.00009292071415111422
1761475295998235400,3.5902353515625,-0.00020224457383155822,-0.004626195070991525,-0.004168152530118823
1761475296008212200,3.600212158203125,-0.00813420661687851,0.008162823073298204,-0.006304287775978446
1761475296018189300,3.610189208984375,0.004586743268370628,-0.008038220587739488,0.01529198768334463
1761475296028167400,3.62016748046875,0.012216507494449615,-0.006160212263325229,-0.01020368810100481
1761475296038144300,3.630144287109375,0.016706220129132268,0.0035255746020411605,-0.007484510536491871
1761475296048121300,3.640121337890625,0.01101765309870243,-0.0022192115610756443,-0.013117018264438956
1761475296058098400,3.650098388671875,0.008025485545396805,-0.0070582490900822446,-0.0011286935026757418
1761475296068075500,3.660075439453125,0.0020358897417783735,-0.01291439580633887,-0.01175484479945153
1761475296078052600,3.670052490234375,0.0014379238486289978,0.002250045090756612,-0.005462192662339657
1761475296088030500,3.680030517578125,0.011015315011143684,0.0005214528911048546,-0.005592522777430713
1761475296098007600,3.690007568359375,0.01684650538265705,-0.0043526844923908355,-0.0012897292832843958
1761475296107984400,3.699984375,0.01415302851498127,-0.011621176516381091,-0.003693849549256265
1761475296117961500,3.70996142578125,0.0143085113376379,0.000019783554348396136,0.0049146235158666965
1761475296127938600,3.7199384765625,-0.0009516016364097595,0.012270926254050572,-0.003794295982737094
1761475296137915400,3.729915283203125,0.000398059406876564,0.0027712365453131495,0.0025991679140366613
1761475296147892500,3.739892578125,0.006231587865948677,0.0002635268990590703,0.004893324999511241
1761475296157869300,3.749869384765625,0.014309095859527587,0.00551551087682019,-0.0016527173767797649
1761475296167847400,3.759847412109375,0.006675239980220795,-0.0046845604949921835,0.004240578445512801
1761475296177824500,3.769824462890625,-0.0009562778115272521,-0.014497058462968561,-0.01462937732245773
1761475296187801300,3.77980126953125,0.003531681257486343,-0.01757218474212568,-0.002994268178846687
1761475296197778400,3.7897783203125,0.018791209709644315,-0.007096970240341034,-0.013176146306842565
1761475296207755300,3.79975537109375,0.004424830704927444,0.01471294796966249,-0.005143591699842363
1761475296217732400,3.809732421875,0.001578209102153778,-0.004462091692106332,-0.007984057556465267
1761475296227710500,3.81971044921875,0.009655717095732689,-0.007226454396994085,-0.009273476312495768
1761475296237687300,3.829687255859375,0.006661211454868316,0.005415251673007151,-0.009644629446137696
1761475296247664400,3.839664306640625,0.01638473308980465,-0.000054381085338536645,0.015375775242969392
1761475296257641200,3.84964111328125,0.0009726444244384765,-0.002120575775479665,0.0017766360173933208
1761475296267618300,3.859618408203125,-0.0045627778708934785,0.00506134650168824,-0.005522727210540324
1761475296277595600,3.869595703125,0.00696340927183628,0.00550847492290195,-0.009095982587430626
1761475296287572500,3.879572509765625,-0.0023111995518207548,-0.01604264507879852,-0.0007463431215845048
1761475296297549600,3.889549560546875,0.010559387937188148,-0.01384709980438929,-0.011156276118103414
1761475296307527400,3.89952734375,0.007867664635181426,0.0011790731246874202,0.007024583140853792
1761475296317504500,3.90950439453125,-0.0017108955711126327,-0.002611462281673448,0.0026005013545975088
1761475296327481600,3.919481689453125,-0.0020095862567424774,-0.010543312443577452,-0.0003673537413589656
1761475296337458400,3.92945849609375,0.006820201408863067,-0.0045913760610041205,-0.0018161277775652705
1761475296347435500,3.939435546875,0.009366378760337829,-0.0016085220420267432,-0.00516145615009591
1761475296357412400,3.949412353515625,0.010863923841714859,-0.0032256007082003633,0.0011707242798060177
1761475296367389400,3.959389404296875,0.003681318861246109,-0.007968353097257203,0.004606050757039338
1761475296377366300,3.9693662109375,0.006375380250811576,0.003639386265526991,0.008212496017478406
1761475296387344400,3.979344482421875,-0.009786065477132797,-0.0041873572707991115,0.006245817320700734
1761475296397321500,3.989321533203125,-0.006347323200106621,-0.008051952285569859,0.01271793594425544
1761475296407298300,3.99929833984375,-0.006195932030677795,-0.0022131288801610933,-0.0014162782724015414
1761475296417275400,4.009275390625,0.003830371943116188,-0.005525397516594967,-0.016821206544619053
1761475296427252200,4.019252197265625,0.013255787414312362,0.005040670181484893,-0.00925303631266579
1761475296437229300,4.029229248046875,0.008470306703448295,0.003576821873732842,-0.016167455343622714
1761475296447206400,4.039206298828125,0.01445931798517704,0.0039892751321429385,0.008504282038286327
1761475296457183500,4.04918359375,0.015353051954507826,0.005371111137181288,-0.002725662104226649
1761475296467161300,4.059161376953125,0.012809797212481497,0.011475668240111554,0.011362740209326148
1761475296477138400,4.069138427734375,0.00921907924413681,0.001166798165004002,0.006601005700230598
1761475296487115300,4.079115234375,0.019095745614171027,0.008069304137525614,-0.0007256839260458946
1761475296497092600,4.089092529296875,0.006374211207032203,-0.008536490107723511,-0.01202940569082275
1761475296507069400,4.0990693359375,0.00741875182390213,0.0010810880763514432,0.002968330019991845
1761475296517046500,4.109046630859375,0.020289339312911034,0.007406916397280292,0.0064758632169105105
1761475296527024400,4.1190244140625,0.0075695584714412685,0.002664386628865031,-0.0001397737968713045
1761475296537001500,4.12900146484375,-0.004251227703690528,0.003742581778520252,-0.012529372835904358
1761475296546978600,4.138978515625,0.007865911069512366,-0.007098368754627881,-0.009989369496889411
1761475296556955400,4.148955322265625,0.004874912559986114,0.0028789130122459025,-0.011398249914124607
1761475296566932500,4.158932373046875,-0.004400865307450294,-0.010253687555459327,-0.013576014078315346
1761475296576909300,4.168909423828125,-0.004395604610443115,0.010564757090405328,-0.011567742995824665
1761475296586886400,4.178886474609375,-0.004845101943612098,-0.004936705200222786,-0.00876211099056527
1761475296596863500,4.188863525390625,-0.007989829710125922,-0.002522996263642562,-0.006754734957218169
1761475296606841300,4.19884130859375,0.006973930665850639,-0.006434898735571187,-0.0024243958690203724
1761475296616818400,4.208818359375,0.006081365740299225,-0.0029655934985668864,-0.012988697443343699
1761475296626795300,4.218795166015625,0.0027910920232534406,0.003370679726207163,0.00924527313131839
1761475296636772400,4.2287724609375,-0.0012467851907014846,0.013353332929586757,-0.006527319409511983
1761475296646749400,4.23874951171875,0.012817395997047424,-0.00035414605826954355,-0.0019407405379228294
1761475296656726300,4.248726318359375,0.006983283016085624,-0.0011805721036740578,0.005772738182544708
1761475296666704400,4.258704345703125,0.012072130587697029,-0.00531032428558683,0.002955086945928633
1761475296676681500,4.268681396484375,0.009079378512501715,-0.008003818277927347,-0.0066155456822365516
1761475296686658300,4.278658203125,-0.0033405425995588303,0.00021108090083580462,0.015527403874415903
1761475296696635400,4.288635498046875,0.0047393034815788266,-0.006004542211000807,0.000529978690855205
1761475296706612200,4.2986123046875,0.018655016109347344,0.005642274495068704,0.0067991220882162445
1761475296716590300,4.30859033203125,0.010725976675748825,0.0009674773422651923,-0.010792612171173095
1761475296726567400,4.3185673828125,0.003544540739059448,-0.0015591573418118059,0.0024219116509892045
1761475296736544300,4.328544189453125,-0.00378887088894844,0.0003436132478120271,-0.002868175847455859
1761475296746521300,4.338521240234375,-0.01037584806382656,-0.004013441459019668,-0.0074726557019166645
1761475296756498400,4.34849853515625,0.004291559714078903,0.015220444259006762,0.001011661260575056
1761475296766475500,4.3584755859375,0.005489245066046714,-0.010803086757770506,0.01224233605545014
1761475296776452400,4.368452392578125,-0.0037894554108381267,-0.0012950082466006278,0.004256360536534339
1761475296786430500,4.378430419921875,-0.0005003507375717163,0.009060303919273429,-0.010533650707732885
1761475296796407300,4.3884072265625,0.004587912312150002,-0.01580263376935618,-0.0027178989228792486
1761475296806384400,4.39838427734375,-0.008581365862488746,0.0014764600525086278,-0.00903559416970238
1761475296816361500,4.408361572265625,0.0068324763685464855,-0.013121311988710659,-0.005261153664905578
1761475296826338300,4.41833837890625,0.007279051092267036,-0.0005418141174770426,0.00721791375586763
1761475296836315400,4.4283154296875,0.0015904840618371963,0.001412571353308158,0.006685140319727361
1761475296846292200,4.438292236328125,0.016997896552085875,0.007817716554721119,-0.004905417296104133
1761475296856270300,4.448270263671875,0.0006868132203817367,-0.00007278325006482192,-0.005381893967743963
1761475296866247400,4.458247314453125,0.0015858078867197036,0.0018480515775678213,-0.004740216797031462
1761475296876224300,4.468224365234375,-0.0037999768048524855,0.0016737019409483764,-0.020251619384717194
1761475296886201300,4.478201416015625,0.0006868132203817367,0.011413013658416456,-0.007167736204899847
1761475296896178200,4.48817822265625,0.005624854144454002,-0.00568542636691709,-0.01599865638166666
1761475296906155300,4.4981552734375,-0.005444821402430534,-0.015357401619351002,-0.003284063171967864
1761475296916132000,4.508132080078125,-0.006495791760087013,-0.0009918571566289755,-0.002510338853113353
1761475296926110200,4.518110107421875,0.013402502408623694,-0.009568043378856963,-0.009221362532768397
1761475296936087300,4.52808740234375,-0.00455225647687912,0.008501544375217053,-0.006463040267955512
1761475296946064100,4.538064208984375,0.008915712383389472,0.001418109469884075,0.0016554573231376706
1761475296956041200,4.548041259765625,0.007124737313389778,-0.005428524429822573,0.0018290237917564808
1761475296966018600,4.5580185546875,-0.004400280785560607,-0.0035224807459453586,-0.003958985025156289
1761475296975995400,4.567995361328125,-0.007842530193924904,0.0014125896196172105,-0.0009892119667492807
1761475296985972500,4.577972412109375,0.004876081603765487,-0.0017644284147245342,-0.013137312133796512
1761475296995950300,4.587950439453125,0.008014379629492759,0.004191189770767232,-0.023165095678623765
1761475297005927400,4.597927490234375,-0.009048398852348326,0.0015586824177764354,-0.004655972579680383
1761475297015904500,4.607904541015625,0.0009773205995559692,0.005061746077198768,-0.0052433257472701365
1761475297025881300,4.61788134765625,-0.001415127494931221,-0.008644763654633425,-0.015206665753759443
1761475297035858400,4.6278583984375,0.003673720076680183,0.009787211688025854,0.0010033866225741804
1761475297045835300,4.637835205078125,0.007114800441265106,-0.002520698133634869,0.013699366463348269
1761475297055812400,4.647812255859375,-0.0048562078595161436,0.006070877453970024,0.005315879526827484
1761475297065790500,4.65779052734375,-0.002011339822411537,0.0002829051696753595,-0.005830697181168944
1761475297075767300,4.667767333984375,0.0038233576804399486,0.0032338776294898704,0.0017522322284989058
1761475297085744400,4.677744384765625,0.00561842440366745,0.0006856259102933108,0.0008429718964733183
1761475297095721200,4.68772119140625,0.005023965641856193,0.005723657751764403,0.0017457659550942479
1761475297105698300,4.6976982421875,-0.0070972647845745085,0.009065646814671344,0.007997465027309953
1761475297115675100,4.707675048828125,0.01803717647194862,-0.0012729402619763277,0.0022962394447065887
1761475297125652200,4.71765234375,0.013992869517207145,-0.010291123214218533,0.0031655878914520143
1761475297135630300,4.72763037109375,-0.002917348751425743,0.0005526494636782445,-0.002404430793225765
1761475297145607200,4.737607177734375,-0.002766542103886604,0.01160349815415102,-0.0008656221196986734
1761475297155584300,4.747584228515625,0.0008288520395755767,-0.010202367218531435,-0.011015936065651476
1761475297165561300,4.757561279296875,-0.0050052609413862225,-0.00784353826585575,-0.001819507044740021
1761475297175538200,4.7675380859375,0.0024731121152639386,-0.01630528720351285,-0.008972831131797284
1761475297185515500,4.777515625,0.0015741174489259718,0.004532452372933039,-0.0015530198619700967
1761475297195492400,4.787492431640625,0.019978958189487455,0.01494221640609321,0.003528137593530118
1761475297205470200,4.79747021484375,0.0030669863551855085,-0.00920561012449907,0.0010174516805447637
1761475297215447600,4.807447509765625,0.0063601826816797255,-0.006708066820877138,0.001358447137940675
1761475297225424400,4.81742431640625,0.007414660170674324,0.003725040413608076,-0.0009201470522210002
1761475297235401500,4.8274013671875,0.015344284126162528,0.0002302742250729352,-0.007692125405184924
1761475297245378300,4.83737841796875,0.015339023429155349,0.012638639613369014,-0.014643990369699895
1761475297255355400,4.84735546875,0.019229601126909256,0.012563914426323026,-0.008061159646976738
1761475297265332200,4.857332275390625,0.014138999989628791,-0.015883000962610822,0.0008112433176487684
1761475297275310300,4.867310302734375,0.009498480707406998,0.004078847403515828,-0.009447773433476686
1761475297285287400,4.877287353515625,0.006806757405400276,-0.0063923770513851196,-0.01221411460796371
1761475297295264300,4.88726416015625,0.02401391279399395,0.0014428157945221756,0.007641838256362825
1761475297305241300,4.897241455078125,0.011887421670556068,0.000587635153735755,-0.0012646679072640837
1761475297315218200,4.90721826171875,0.0050052609413862225,-0.004810532953729853,-0.006308123700879514
1761475297325195300,4.9171953125,0.008147066098451615,0.002323603517311858,0.011646726516168564
1761475297335172400,4.92717236328125,0.004105681753158569,0.003431446028203936,-0.007247559975460172
1761475297345149200,4.937149169921875,0.009644026657938957,0.005619442750397138,-0.009277184373233468
1761475297355127300,4.947127197265625,0.016827216160297392,0.006712636823073262,0.006593059855792671
1761475297365104400,4.9571044921875,0.011143325304985045,0.004115023828594713,-0.0036348493710160255
1761475297375081200,4.967081298828125,0.004409048613905907,0.005691042115306482,-0.0020214228250086306
1761475297385058300,4.977058349609375,-0.0029249475359916684,-0.0029292835011030544,-0.006275189545657485
1761475297395035400,4.987035400390625,0.013232406538724898,0.0010940114900062326,-0.005825052891671657
1761475297405012500,4.997012451171875,0.015775661280751228,0.010272894579428248,-0.011078132847975939
1761475297414989300,5.0069892578125,-0.007267945176362991,0.005584814395010471,0.004525167540553957
1761475297424967200,5.01696728515625,-0.012057517540454863,-0.004595688051584875,-0.017514467772096396
1761475297434944500,5.026944580078125,-0.011160860961675644,-0.006558070740802213,0.009063925215043128
1761475297444921300,5.03692138671875,0.006496960803866386,0.00408158849151805,0.0035564869051799178
1761475297454898400,5.0468984375,-0.0021820202142000195,0.0011112194947781972,-0.004533515243791044
1761475297464875300,5.056875244140625,0.0055991351813077924,-0.009649778262001927,-0.006485215567145496
1761475297474852400,5.066852294921875,0.009635843351483344,-0.00232398025993607,-0.014865012709237634
1761475297484829400,5.076829345703125,-0.003083352968096733,0.003994619169185171,-0.00902472571581602
1761475297494807300,5.086807373046875,-0.011612696382403373,0.004752965539105935,-0.010967621678207069
1761475297504784400,5.096784423828125,-0.0033832126975059506,0.0008873430444509722,0.0027580665364861485
1761475297514761200,5.10676123046875,0.0012555530190467834,-0.00406681675571599,0.002461604340560734
1761475297524738300,5.11673828125,0.01591711557805538,0.0015886323147569783,-0.002293499498348683
1761475297534715400,5.12671533203125,0.009179331755638122,0.0015096807604539208,0.010864800624549389
1761475297544692200,5.136692138671875,-0.0009925181686878204,0.010806512832362204,0.00037131753042340276
1761475297554669300,5.14666943359375,0.008884148201346398,0.010400892315182136,-0.014565226045064628
1761475297564647400,5.1566474609375,0.007238134559988975,0.0009210603676736355,-0.0018511077594012021
1761475297574624300,5.166624267578125,0.0034983635097742076,0.003711650067428127,0.00044516821792349215
1761475297584601300,5.176601318359375,0.005442483314871788,-0.002010872889886377,-0.0040857349436730145
1761475297594578200,5.186578125,0.0057435120880603785,-0.005433691511995857,-0.009116623516660182
1761475297604555300,5.19655517578125,0.0029033202260732647,0.0054261509512900374,0.008672514744661748
1761475297614532400,5.206532470703125,0.007690554502606391,0.00006649849810637533,0.0035363208999857304
1761475297624509400,5.216509521484375,0.004396773654222488,-0.00709324163000565,-0.006553294100984931
1761475297634487300,5.2264873046875,-0.013407763105630873,-0.0014029427251487504,-0.0022782653965987263
1761475297644464000,5.236464111328125,0.010533668974041939,0.021546212072786872,-0.0016900902451016007
1761475297654441500,5.24644140625,0.009485036703944206,-0.012740396654524373,0.005300444495677948
1761475297664418300,5.256418212890625,0.014270517414808273,-0.00283969068013248,-0.00978670479794964
1761475297674395400,5.2663955078125,0.009483867660164833,-0.006017437083547701,-0.008094148601125926
1761475297684372500,5.27637255859375,-0.003685410514473915,-0.012292406291852239,-0.003793346134666353
1761475297694349300,5.286349365234375,0.01142681842148304,-0.011183223490533419,0.00991590240187943
1761475297704327400,5.296327392578125,-0.004134907847642899,0.0015337454809865449,-0.009947630980703979
1761475297714304300,5.30630419921875,0.005742927566170692,-0.01078192409708863,-0.019755342034064233
1761475297724281300,5.31628125,0.004101005578041076,-0.007082614063069923,-0.016911533442884683
1761475297734258400,5.326258544921875,0.012182020702958107,-0.0042009028806060085,-0.008502236211672424
1761475297744235300,5.3362353515625,-0.0017354454904794693,-0.001469211752747651,0.005660181186161935
1761475297754212400,5.34621240234375,0.0017021277427673339,-0.014567743370780954,0.009682093646004796
1761475297764189200,5.356189208984375,0.00604103372991085,-0.005498715005646227,-0.0029191571160219606
1761475297774166300,5.366166259765625,0.011431494596600532,0.005945089941611513,-0.011155271471105515
1761475297784144400,5.376144287109375,-0.005028641816973686,-0.003032667385408422,-0.011154979210160672
1761475297794121200,5.386121337890625,0.011429156509041785,-0.010721867897856282,-0.007505206264648586
1761475297804098300,5.396098388671875,0.02160392904281616,-0.013542968041950371,-0.0124591023449786
1761475297814075100,5.4060751953125,0.004247136050462723,0.000652455434697913,-0.01973398871878162
1761475297824052200,5.41605224609375,0.0017044658303260803,0.006300280604430008,0.005447908408660441
1761475297834029300,5.426029296875,0.005295768320560455,-0.0018736266935302408,0.002604940067697316
1761475297844006400,5.43600634765625,0.010682137534022331,0.00011862826085416599,-0.020178097490780054
1761475297853984300,5.445984375,-0.0036830724269151685,-0.00529353298099013,-0.01015475265905261
1761475297863961300,5.45596142578125,0.00020575170516967773,0.0018225038610689807,0.0032438042268157
1761475297873938400,5.4659384765625,-0.0023375030368566513,0.01521598499630927,0.006416351582016796
1761475297883915500,5.47591552734375,0.013524667483568191,0.003515152531082276,0.006291428294405341
1761475297893892400,5.485892333984375,0.0005085340440273285,-0.00014219294117647223,0.01819707974139601
1761475297903869400,5.495869384765625,0.011734276935458183,0.007263525871216552,0.007839717182330787
1761475297913846300,5.50584619140625,0.003952537018060684,0.012171562099381117,-0.010140340541210024
1761475297923824400,5.515824462890625,-0.004876666125655174,0.0075307448479929005,-0.01358757665194571
1761475297933801500,5.525801513671875,0.003800561326742172,0.00788190893130959,0.01462026243424043
1761475297943778300,5.5357783203125,-0.006076105043292045,-0.00802237342299195,-0.0008300210833549499
1761475297953755400,5.54575537109375,-0.011913725155591965,0.00361875446945196,-0.01540648090848699
1761475297963732200,5.555732177734375,0.0018517653465270996,-0.0024328291955811434,-0.00857754820389673
1761475297973709300,5.565709228515625,0.002302431723475456,0.00866639553112909,0.005990362988598645
1761475297983686100,5.57568603515625,0.011879238364100455,0.009076992475881706,-0.003130973235797137
1761475297993664300,5.585664306640625,0.01367196699976921,-0.00572751308461884,-0.011769329982530325
1761475298003641300,5.595641357421875,0.004092237749695778,0.010486165154061745,-0.007243066463433205
1761475298013618200,5.6056181640625,0.008731003466248511,0.0031440998621401375,-0.01593081530984491
1761475298023595300,5.61559521484375,0.0018476736932992934,-0.001119455316872336,-0.01981642457153648
1761475298033572400,5.625572265625,-0.004588496834039688,0.0010310760638094507,-0.02016909220041707
1761475298043549200,5.635549072265625,-0.0024912322938442227,-0.0024590447740047237,-0.02411443229271099
1761475298053526500,5.645526611328125,0.010976152044534683,-0.005914409392268862,-0.011095120515394956
1761475298063503400,5.65550341796875,0.011428571987152098,-0.010972853834106353,-0.007964713535178452
1761475298073481200,5.665481201171875,0.014723521879315376,0.0011798973918834236,-0.007540789034683257
1761475298083458300,5.675458251953125,0.002751344534754753,0.001405761444964446,-0.002505827074777335
1761475298093435400,5.685435302734375,0.006346154156327247,-0.008444038609386188,-0.007294139063544571
1761475298103412500,5.69541259765625,0.01592412984073162,0.005650699830119265,-0.0017239011831581591
1761475298113389300,5.705389404296875,0.0005120411753654479,-0.0036180477916204832,-0.009012067163642496
1761475298123366400,5.715366455078125,0.003653261810541153,-0.010446374283079058,-0.014169760454073548
1761475298133343200,5.72534326171875,0.00739303286075592,-0.0006939062565157655,-0.012545100127998738
1761475298143321300,5.7353212890625,-0.0038280338555574415,-0.012070419262867654,0.008152545991167425
1761475298153298400,5.74529833984375,0.005747603741288185,0.00023912767674191853,-0.010137326600216328
1761475298163275300,5.755275146484375,0.01068739823102951,-0.003465558360359864,-0.00032468364341184494
1761475298173252400,5.76525244140625,0.005600888746976852,-0.009843576951185241,-0.005229479885008186
1761475298183229200,5.775229248046875,-0.004278115710616112,-0.010080149627948412,0.008872585627716034
1761475298193206300,5.785206298828125,-0.004277531188726425,0.0010969226830115076,-0.007573193466942757
1761475298203183400,5.795183349609375,0.00006137479841709136,0.009050215208454756,0.004241217766329646
1761475298213160200,5.80516015625,0.0044049569606781,0.008964201442414195,-0.011314243158791214
1761475298223138300,5.81513818359375,-0.002776478976011276,0.004265066716086585,0.0027889913977123797
1761475298233115400,5.825115478515625,0.0027601123631000517,0.015546424810361349,-0.008133183703571557
1761475298243092200,5.83509228515625,-0.003525836038589477,0.007932017983618424,0.002597304750513285
1761475298253069300,5.8450693359375,-0.004423661661148071,-0.013567572760244366,-0.011028302356880158
1761475298263046100,5.855046142578125,0.0072486559540033335,-0.007076624996989266,0.01668846527673304
1761475298273023500,5.8650234375,0.004106850796937942,0.004174099355359794,-0.009032342766691
1761475298283000300,5.875000244140625,0.006799743142724037,-0.007310962334182113,-0.01443968170294538
1761475298292978200,5.884978271484375,0.011739537632465363,-0.008301907317002769,0.0029779563648626205
1761475298302955300,5.894955322265625,0.0050064299851655955,-0.003745035172154894,-0.0050746911820955575
1761475298312932400,5.904932373046875,-0.0033738603472709652,-0.0071184742526733315,-0.0016373554108664392
1761475298322909400,5.914909423828125,-0.005171849679946899,-0.006434752605098765,-0.009516144228260963
1761475298332886300,5.92488623046875,-0.0021779285609722135,-0.0027345966126420536,0.004292655692622065
1761475298342863400,5.93486328125,0.0030582185268402096,-0.0004875471965700853,0.013686835775338113
1761475298352840400,5.94484033203125,0.02191080303490162,-0.006763679740432417,0.014969276801310478
1761475298362818300,5.954818359375,0.0109884270042181,-0.01170934570688987,-0.00442338766651228
1761475298372795400,5.96479541015625,0.004401449829339981,-0.0024221000223013105,-0.009482954344712198
1761475298382772200,5.974772216796875,0.008588964647054671,-0.00389367383713834,-0.006710238228365779
1761475298392749300,5.984749267578125,0.0021545476853847504,0.0041832210934429894,-0.010305139181483536
1761475298402726400,5.994726318359375,-0.0029331308424472807,0.004025630795379402,-0.01658113244473934
1761475298412703200,6.004703125,0.015171850168704986,-0.0041200676131818905,0.0052253516991622746
1761475298422680300,6.014680419921875,0.007988660666346549,0.0033260345835937183,0.0038485286543145773
1761475298432657200,6.0246572265625,0.006643675798177718,-0.001875981905753724,-0.005080664265155792
1761475298442635300,6.03463525390625,0.011432663640379905,-0.00022404427204164676,-0.01732055263519287
1761475298452612400,6.0446123046875,0.005596212571859359,-0.008544588932499755,0.000023179946187883614
1761475298462589200,6.054589111328125,0.012180267137289046,-0.011830178482917834,-0.0031146248891949654
1761475298472566300,6.064566162109375,-0.0030851065337657926,0.0012835838119324761,-0.008891198996640742
1761475298482543000,6.074543212890625,0.009635258829593658,0.0008440895662584808,0.010458503112290053
1761475298492520400,6.0845205078125,0.000058452188968658445,-0.005262855856580427,0.0029727504667825997
1761475298502497500,6.09449755859375,0.007690554502606391,0.0013956590344139839,-0.002393251812085509
1761475298512475100,6.10447509765625,-0.013110825985670089,-0.011648555430362466,-0.012344992712326346
1761475298522452500,6.114452392578125,0.003804652979969978,-0.0015087834280217065,0.00824216050338
1761475298532429300,6.12442919921875,0.0162257431358099,0.006800390455051092,-0.008468078213743865
1761475298542406400,6.134406494140625,-0.0020300445228815076,-0.0040274619928619354,-0.0033755225813947615
1761475298552383500,6.144383544921875,-0.00547287845313549,-0.004338483578746673,-0.006114738286938518
1761475298562360300,6.1543603515625,0.0033528175592422486,0.004997974967362825,-0.005035290753468871
1761475298572337400,6.16433740234375,0.0032049335211515426,0.0046002317959617355,0.004310958534292877
1761475298582314200,6.174314208984375,0.013231237494945525,0.0053235890508920415,-0.01092570049893111
1761475298592292400,6.184292236328125,0.008591302734613417,-0.0035270781476050613,-0.0015427907289005814
1761475298602269400,6.19426953125,-0.006371873119473457,-0.004094902347528841,0.005788502007257193
1761475298612246300,6.204246337890625,0.004106266275048256,-0.002949956396373454,0.011780673360452056
1761475298622223400,6.214223388671875,0.006353752940893173,-0.0023475609232787974,-0.011014602625090629
1761475298632200200,6.2242001953125,0.011444938600063324,-0.002391582728095818,-0.004883954382967203
1761475298642177300,6.23417724609375,0.008752630776166915,-0.00650327866350999,0.006692848702147603
1761475298652154000,6.244154052734375,0.00531213493347168,-0.008839612656587269,-0.0067222209271043535
1761475298662132200,6.25413232421875,-0.006508651241660118,-0.014803561420651385,-0.007752331159822642
1761475298672109300,6.264109375,-0.014737550404667853,0.001079714678239543,-0.006954330916237085
1761475298682086100,6.274086181640625,-0.007707505637407302,-0.0025535272575798445,-0.009165120567195116
1761475298692063200,6.284063232421875,0.013989946907758712,-0.00045740664498880503,-0.015445881337113677
1761475298702040300,6.294040283203125,0.0030658173114061354,0.00006870757985743693,-0.001436225081887096
1761475298712017400,6.304017333984375,-0.0044137247890233995,-0.0021485905853449367,0.0027026282885111866
1761475298721994500,6.313994384765625,0.007255085694789886,-0.003240063058392843,-0.00638809360191226
1761475298731971300,6.323971435546875,0.002765373060107231,-0.0027610553613048976,0.0012114216163754462
1761475298741949200,6.33394921875,0.0009679682493209838,-0.009960625176306347,0.012956767935119568
1761475298751926000,6.343926025390625,0.007400631645321846,-0.008000217531755333,-0.000292151346988976
1761475298761903000,6.353903076171875,-0.009207388806343078,0.002516599630541168,-0.018620748513564465
1761475298771880200,6.363880126953125,-0.0063648588567972175,-0.0032210923547972923,-0.015043712010700254
1761475298781857000,6.37385693359375,0.003509469425678253,0.005970961885096039,0.00702794414171949
1761475298791834000,6.383834228515625,0.010392214676737784,-0.0009521656087017618,0.010437880449369549
1761475298801811000,6.39381103515625,0.011884499061107634,-0.01706251133707119,-0.006619893063791096
1761475298811789000,6.4037890625,-0.012356792747974394,-0.0005031740239646751,0.00009927738970145583
1761475298821766100,6.41376611328125,0.00020808979272842406,0.0017503690649755298,-0.01174647882990539
1761475298831743000,6.423742919921875,0.009786065477132797,-0.0029048192050599025,-0.01394477432547137
1761475298841720000,6.433719970703125,0.006048047992587089,0.0006022322179574985,-0.005294818472489715
1761475298851697000,6.44369677734375,0.007842530193924904,0.0004648159165983088,0.0007994250156916678
1761475298861674000,6.453674072265625,0.009486790269613266,-0.008983378783630905,0.012070778880827129
1761475298871650800,6.46365087890625,0.013224223232269286,0.002558355271391338,-0.019034297750517726
1761475298881628200,6.473628173828125,0.0006558335602283477,0.000028050200839061288,-0.0032775055670179426
1761475298891606000,6.48360595703125,0.004251227703690528,0.006827906366350361,-0.000430591703299433
1761475298901582800,6.493582763671875,0.007243395256996154,-0.0021536823189933782,-0.005541925101354718
1761475298911560000,6.503559814453125,-0.007571312037110328,-0.009114237480040173,0.006568290740717202
1761475298921537000,6.513537109375,-0.0018844985723495483,-0.009950449700519675,0.0014940744826570152
1761475298931514000,6.52351416015625,-0.0020347206979990005,-0.010176103691046592,-0.004525788595061749
1761475298941491200,6.5334912109375,-0.00038929157853126526,0.007064593207545112,0.00727718792874366
1761475298951468000,6.543468017578125,0.011133972954750061,-0.001030481267120922,-0.003131028034724295
1761475298961445000,6.553445068359375,0.0006605097353458404,-0.001826144564792048,-0.0083187876698561
1761475298971423200,6.56342333984375,0.008442834174633025,-0.0029694305651122702,0.0014362433481961488
1761475298981400000,6.573400146484375,0.0006616787791252136,-0.005290557855903171,-0.0037986616306006906
1761475298991377200,6.583377197265625,0.003955459627509117,0.00023499949089600703,-0.010167557341698557
1761475299001354000,6.59335400390625,0.00694470457136631,-0.012526209339505294,-0.0020806421989575026
1761475299011331000,6.6033310546875,0.009191022193431854,-0.007739419162611011,-0.012951872564293443
1761475299021308000,6.613307861328125,0.004249474138021469,0.006216688265983248,0.004868263623490929
1761475299031285000,6.623284912109375,-0.0006868132203817367,-0.017240001637203385,0.002253404949977994
1761475299041263000,6.63326318359375,0.00454699577987194,-0.0004917838386259973,-0.006266531315166503
1761475299051240000,6.643239990234375,0.007991583275794982,-0.0021061431080393956,0.0020798019487410784
1761475299061217000,6.653217041015625,0.007694646155834197,-0.010889959040336543,-0.0015771861888468264
1761475299071193900,6.66319384765625,-0.0038268648117780685,0.006753529380820691,-0.017115641180239616
1761475299081171000,6.6731708984375,0.0030558804392814636,0.004437865999725181,0.0017182386273518204
1761475299091148000,6.68314794921875,0.014280454286932944,-0.010058457244304007,-0.00464974376829341
1761475299101125000,6.693125,-0.00442541522681713,-0.013186182502022711,0.005634864081814885
1761475299111102200,6.703102294921875,0.00305646496117115,-0.0030310610918560994,0.007430277864914387
1761475299121079800,6.713079833984375,-0.0014344167172908782,-0.002916566725069424,0.00017294541411101816
1761475299131057200,6.72305712890625,0.014875497570633887,-0.004014283992524724,0.005989614069927484
1761475299141034200,6.7330341796875,0.01398001003563404,0.010077353741019032,-0.008589585701562463
1761475299151011000,6.743010986328125,0.006649521017074584,-0.007423547871672781,-0.0001299465226009488
1761475299160988200,6.75298828125,0.009045476242899895,-0.005066986224608262,-0.003208111858926713
1761475299170965000,6.762965087890625,0.00021919570863246916,0.005977090231783222,0.00004475245717912912
1761475299180942000,6.772942138671875,0.0029109190106391906,-0.004565326021006331,-0.007216982174105942
1761475299190920200,6.782920166015625,0.015179448953270912,-0.008686931429081595,0.004845485536102205
1761475299200897000,6.79289697265625,0.007250409519672393,0.0032908902049763127,-0.0018245120134204626
1761475299210874000,6.8028740234375,-0.0024731121152639386,0.007251597971405135,-0.008450652154907584
1761475299220851000,6.812850830078125,0.0003723404437303543,-0.010482652314502046,-0.008067680719308554
1761475299230828000,6.822828125,0.00621054507791996,-0.015247240934387082,-0.006777038120571523
1761475299240805000,6.83280517578125,0.0065104048073291775,-0.007574192405719077,-0.0012112754859030246
1761475299250782000,6.842781982421875,0.0003717559218406677,0.005393439416709589,0.0004554886825382709
1761475299260759000,6.852759033203125,-0.00037350948750972747,-0.002061168030218687,-0.004971705731656402
1761475299270737000,6.86273681640625,0.0023187983363866806,-0.005102049546479247,-0.01087170528937131
1761475299280714000,6.8727138671875,0.004114449581503868,0.0007783925024617928,-0.00428593369089067
1761475299290691000,6.882691162109375,0.015334931775927542,0.010561829914379631,-0.0003496536878868937
1761475299300668000,6.89266796875,0.01757540417909622,0.009811449938494478,-0.010076426725834607
1761475299310645000,6.90264501953125,0.007398293557763099,-0.001967768967099255,-0.006125698072370142
1761475299320622000,6.9126220703125,0.010540098714828491,0.003349947465432342,-0.008688479498773813
1761475299330599200,6.92259912109375,0.013833879563212394,0.00597908582604723,-0.006238474264461546
1761475299340576000,6.932575927734375,0.010843465575575828,0.007490515585592947,-0.001655311192665249
1761475299350554000,6.94255419921875,0.014734043273329734,-0.008377949961589182,-0.005677168853580951
1761475299360531200,6.95253125,0.0036626141607761383,0.0005120400337211322,-0.011604056418221443
1761475299370508000,6.962508056640625,0.005458265405893325,-0.0003969874028640333,-0.002760276759881526
1761475299380485000,6.972485107421875,0.015486322945356368,-0.003132984813081566,-0.004474058407824486
1761475299390462000,6.9824619140625,-0.0008218377768993377,-0.015341980287933255,0.00101290336959064
1761475299400439000,6.99243896484375,0.0038163434177637097,0.0025694680371612776,-0.001406925922166556
1761475299410416000,7.002416015625,-0.008601824128627776,-0.004878469923674128,-0.0005802110407501458
1761475299420394000,7.01239404296875,-0.006358429116010665,0.008245046580210328,-0.007808627924323082
1761475299430371000,7.02237109375,0.01144903025329113,0.0005222543254145421,-0.0007719159542582929
1761475299440348200,7.03234814453125,0.011597498813271523,-0.0030084839338669553,-0.005741283598355949
1761475299450325000,7.042324951171875,0.008905190989375113,0.00021034225696348584,-0.005557360132504254
1761475299460302000,7.052302001953125,-0.0021650690793991088,0.0031247021835704796,0.00158571655517444
1761475299470279000,7.06227880859375,-0.007401800689101219,0.001713771373144118,-0.010053813035227357
1761475299480256000,7.072256103515625,0.015195815566182136,0.008669273616449208,0.004539506593160331
1761475299490232800,7.08223291015625,-0.004106850796937942,0.0015547163454233668,0.008309965042583644
1761475299500211000,7.0922109375,0.005472293931245803,-0.012564896240434609,0.00825673701800406
1761475299510188000,7.10218798828125,0.006820201408863067,-0.0034808929268096106,0.005153619903512299
1761475299520164900,7.112164794921875,0.007871171766519545,0.006967309128819033,-0.004872026483155787
1761475299530142000,7.122141845703125,0.0075707275152206415,-0.006694805480504874,0.006300269187986851
1761475299540119000,7.132119140625,0.0009855039060115813,0.007461896845884621,0.0013064064234495163
1761475299550096100,7.14209619140625,0.004129647150635719,0.015244774982664966,0.0072066982421092685
1761475299560073200,7.1520732421875,-0.000360065484046936,0.0007759425337600987,0.005998454963508993
1761475299570050000,7.162050048828125,-0.002008417212963104,0.002679852484411094,-0.012492858484108001
1761475299580028200,7.172028076171875,0.005470540365576744,-0.006394318988366285,-0.010075732606090605
1761475299590005000,7.1820048828125,0.005472293931245803,-0.005013816423888783,0.0022644012680277225
1761475299599982000,7.191982177734375,0.011157353830337524,0.0005691896065254695,-0.011993950784951447
1761475299609959200,7.201959228515625,-0.010836451312899589,0.007037186894100159,-0.0003428951535373926
1761475299619936000,7.21193603515625,0.0012847791135311127,0.0016318024529144166,-0.009297551307827234
1761475299629913000,7.2219130859375,-0.00006488192975521087,0.006218712401355151,-0.01569647683100775
1761475299639890000,7.231889892578125,0.004576806396245956,0.01016949471210246,-0.007789685761835426
1761475299649867000,7.241866943359375,0.0038321255087852475,0.00232160792304785,-0.004960727679915726
1761475299659845000,7.25184521484375,0.005327332502603531,0.0014617065830156207,0.010992719586845487
1761475299669822000,7.261822021484375,0.0039823476344347,0.003621504690608708,0.00970163859669119
1761475299679799000,7.271799072265625,0.0030839374899864196,0.002746696900745155,0.0005565196379087865
1761475299689775900,7.28177587890625,0.007124152791500091,0.002197709832031978,0.011919515575561672
1761475299699753000,7.2917529296875,0.015501520514488219,-0.001775220378441736,-0.001467953660711646
1761475299709730000,7.30172998046875,0.008171031495928764,0.006010067769489251,-0.0063362720831297336
1761475299719707100,7.31170703125,-0.011129296779632567,0.006184523579030064,-0.010409969529137015
1761475299729684200,7.321684326171875,0.00637830286026001,0.000017544789845123886,-0.00025114348316565154
1761475299739662600,7.33166259765625,0.006975684231519699,-0.007760617214266676,-0.006447112046461552
1761475299749639400,7.341639404296875,0.018047113344073294,0.0002847420753794722,-0.00634812691770494
1761475299759616500,7.351616455078125,-0.005445990446209907,-0.005011502310860669,0.0060687254544347525
1761475299769593600,7.361593505859375,0.013859598526358603,0.004056855909060687,-0.02002274253228679
1761475299779570700,7.37157080078125,0.01775017622411251,0.0034920056925795504,-0.011333349718060343
1761475299789547500,7.381547607421875,0.006825462105870247,0.00489557289716904,0.006741966807190329
1761475299799524600,7.391524658203125,0.005925298395752907,-0.009667120980803155,-0.005313230912014842
1761475299809501700,7.401501708984375,0.017893968608975408,0.011108314498752587,-0.01078426446793601
1761475299819479600,7.4114794921875,0.004423077139258384,-0.004133169123349944,0.0008848382768221199
1761475299829456600,7.42145654296875,0.011456044515967368,-0.004452790715865558,-0.0013552322675473988
1761475299839433500,7.43143359375,0.004722936868667602,-0.00526106347500463,-0.0023855982285924254
1761475299849410600,7.44141064453125,0.007118307572603225,0.005634709959832253,-0.014000778829026967
1761475299859387600,7.4513876953125,-0.010985504394769668,-0.005658756414055824,0.013913995594717562
1761475299869364500,7.461364501953125,-0.006646013885736465,-0.0004902300607122015,0.0038826866522431373
1761475299879341600,7.471341552734375,0.008014379629492759,-0.0014208254417113493,-0.007807787674106657
1761475299889319400,7.4813193359375,-0.0015630115330219267,-0.002180837470688857,0.0032415209381841123
1761475299899296500,7.491296630859375,0.013550970968604087,-0.0002167856974818278,-0.005568009390681982
1761475299909273600,7.501273681640625,0.011458967125415801,0.0006807248312456067,0.00023395488634705543
1761475299919250400,7.51125048828125,0.005322656327486038,-0.001779262940963963,-0.014758410529606043
1761475299929227500,7.5212275390625,-0.0018622867405414581,0.001489495347306365,-0.0067771477184258395
1761475299939204400,7.531204345703125,-0.005903671085834503,-0.011395158341317437,0.007082688269950449
1761475299949181400,7.541181396484375,0.0033750293910503387,-0.001968246174423257,-0.007837342562153935
1761475299959158500,7.551158447265625,0.009960837522149085,0.0023213955772051122,-0.002538596833217889
1761475299969136400,7.561136474609375,0.0015805471897125244,-0.0009543929567618761,-0.0012108005618676543
1761475299979113500,7.571113525390625,-0.008145312532782554,0.0059214133801462595,0.0034448066916316746
1761475299989090600,7.581090576171875,0.00038110827207565303,0.005690143641229951,-0.003106057990249246
1761475299999067600,7.591067626953125,0.004869067341089248,-0.002175353011395782,-0.01303366909623146
1761475300009044700,7.601044677734375,-0.007405307820439338,-0.0018168413052626418,-0.009483173540420829
1761475300019021600,7.611021484375,0.0009703063368797302,-0.012850823342613876,-0.002900288018770516
1761475300028998700,7.62099853515625,-0.0068108490586280815,-0.003094687212863937,-0.013976484637986867
1761475300038975500,7.6309755859375,-0.008306056052446364,0.0020079719716799443,0.010314747260045259
1761475300048953600,7.64095361328125,0.00860650030374527,0.007193858168489532,0.0002589614634402096
1761475300058930700,7.6509306640625,0.010552958196401596,-0.004577297303301748,0.007783694412466138
1761475300068907500,7.660907470703125,0.012949497944116591,-0.004417867816245416,0.005042177151981741
1761475300078884600,7.670884521484375,0.01265022273659706,0.007866791277279845,-0.0010874116442166268
1761475300088861400,7.680861328125,0.006665887629985809,0.00428245909641555,0.0001603781934827566
1761475300098838500,7.690838623046875,-0.00874503199160099,0.004925240237181424,0.0011140621891245245
1761475300108815400,7.7008154296875,0.00891103620827198,0.013586301435244967,0.017231285182852298
1761475300118792400,7.71079248046875,-0.0075479311615228644,-0.009197660855128197,-0.0035322840456850826
1761475300128770600,7.7207705078125,0.009662146836519241,-0.01225648331181146,0.0007383972771465778
1761475300138747400,7.730747314453125,0.018639234018325804,-0.001543870153601165,0.006063665686827153
1761475300148724500,7.740724365234375,-0.00021685762107372282,0.0007313624648726545,-0.003434906352125108
1761475300158701300,7.750701416015625,0.008760229560732842,0.0016406382090965051,-0.007658095271419733
1761475300168678400,7.760678466796875,0.014296820899844168,0.01326039166583796,-0.010808558658976107
1761475300178655700,7.77065576171875,0.006368365988135337,-0.003397854856678168,-0.0029398163115605712
1761475300188632600,7.780632568359375,0.002924363014101982,0.006099904331521247,-0.01005585886184126
1761475300198609700,7.790609619140625,-0.00904606076478958,0.0004497570572508266,0.004622106842696667
1761475300208587500,7.80058740234375,0.00277238732278347,-0.0022058885719103273,-0.004921455115452409
1761475300218564600,7.810564697265625,0.0029226094484329224,0.0017260189333639573,-0.003250343565456569
1761475300228541700,7.820541748046875,0.013698855006694793,0.004824404502988909,0.0014815803272649644
1761475300238518500,7.8305185546875,0.017588263660669325,0.00971618771185167,0.013700827768072485
1761475300248495600,7.84049560546875,0.004121463844180107,0.011925835718493908,-0.012320022667851298
1761475300258472400,7.850472412109375,0.004570376655459404,0.0010784274742734851,-0.007679412054084241
1761475300268449500,7.860449462890625,-0.005606733965873718,0.002378009718825342,-0.005363006604183465
1761475300278426600,7.870426513671875,-0.003810498198866844,0.009218958229839336,-0.015676402157358823
1761475300288404500,7.880404541015625,0.00890928264260292,0.007325170668514329,-0.0027860139893367887
1761475300298381600,7.890381591796875,0.00008183306455612182,0.010146863896830472,-0.012464417840912937
1761475300308358400,7.9003583984375,-0.0036579379856586454,0.004994358238170389,-0.008071133051719515
1761475300318335500,7.91033544921875,0.010111644169688225,-0.0038742521840380503,-0.003766238932032138
1761475300328312600,7.9203125,0.004576806396245956,0.001655499563977355,0.007245294953137636
1761475300338289400,7.930289306640625,0.012060440149903297,0.0017452916018810354,0.004601940837502479
1761475300348266500,7.9402666015625,0.009069441640377044,-0.003303318715820205,0.008114807796664536
1761475300358243600,7.95024365234375,0.005027472773194313,0.0037469160311651645,-0.004215334406401962
1761475300368220700,7.960220703125,0.013859014004468918,0.007131889715028228,0.006063135963864624
1761475300378197500,7.970197509765625,0.011461889734864235,-0.007685653994380846,0.003102057668566704
1761475300388174600,7.980174560546875,0.002484218031167984,0.00829660894573317,-0.0004786138297989964
1761475300398152700,7.990152587890625,0.0008370353460311889,0.017481072392570785,0.013848364746291189
1761475300408129500,8.000129638671876,0.006972761622071266,0.005839922808884876,0.004900686322059482
1761475300418106600,8.010106689453124,-0.0014104513198137283,0.011236351050413214,-0.01124583583138883
1761475300428083500,8.02008349609375,0.006367196944355964,-0.004519132808700669,-0.005697645386029035
1761475300438060500,8.030060546875,-0.000661094257235527,0.009571816513320664,-0.007177362549770623
1761475300448037600,8.04003759765625,-0.0006622633010149001,0.015349081315577495,0.004460486540198326
1761475300458014500,8.050014404296874,-0.004402618873119354,0.005756505142018431,0.0037249753398820758
1761475300467991600,8.059991455078125,0.010858078622817992,-0.0012496370182023383,-0.006240666221547872
1761475300477969700,8.0699697265625,0.01265372986793518,0.0029853873277141244,-0.01597962288763374
1761475300487946500,8.079946533203126,0.015495675295591354,-0.002554759662618744,-0.006890618030261248
1761475300497923600,8.089923583984374,0.0035270050823688506,-0.013086085411702515,0.00247123068543151
1761475300507900400,8.099900390625,0.00502279659807682,0.00010563006949669215,-0.012818017051555216
1761475300517877500,8.10987744140625,0.0029278701454401013,0.011084368509228806,0.002312185932509601
1761475300527854300,8.119854248046876,-0.0012619827598333358,0.014390020175208337,-0.0030733612970449027
1761475300537831400,8.12983154296875,0.006667056673765182,0.004334820612959447,-0.009132624803390353
1761475300547808800,8.139808837890625,0.004873743516206741,0.002213187104021199,-0.005602459649555385
1761475300557786400,8.149786376953125,0.015199907219409942,0.005258093487317091,-0.005872052104864269
1761475300567763500,8.159763427734376,0.008916881427168845,0.002912304396016407,-0.0045838571915403
1761475300577740500,8.169740478515624,0.004277531188726425,0.004736004129506182,-0.002226188149489462
1761475300587717600,8.179717529296875,-0.0014081132322549819,-0.0008029241555195767,0.0081331289046444
1761475300597694700,8.18969482421875,0.010862754797935486,-0.0009469323111581616,-0.0021891806073486802
1761475300607671600,8.199671630859376,0.0126572369992733,-0.0010893490146205295,0.020658629283029584
1761475300617648600,8.209648681640624,0.008167524364590645,0.013368814768153242,-0.006291099500842392
1761475300627625500,8.21962548828125,0.016548399218916893,-0.00056645879332209,-0.008328249617945403
1761475300637602600,8.2296025390625,0.012058686584234236,0.0015806482252344722,0.002123458427377045
1761475300647580700,8.23958056640625,0.0107096100628376,-0.005863458377277129,-0.004853504445776343
1761475300657557500,8.2495576171875,0.0009808277308940886,0.011602440991514595,-0.000910283245332539
1761475300667534600,8.25953466796875,0.0030798458367586132,0.00003540181941061746,0.016442673822119832
1761475300677511400,8.269511474609375,0.003232406049966812,-0.01045963334016269,0.007892616413347422
1761475300687489500,8.279489501953124,-0.004101590099930763,0.0187799325470929,0.003628163901902735
1761475300697466600,8.289466552734375,0.014001637345552443,0.018083208712405756,-0.0006646927201189101
1761475300707443500,8.299443359375,0.008459785309433936,0.004975013075239258,0.012870697086863218
1761475300717420500,8.309420654296876,0.008310732227563858,0.0004069413996534422,0.005884637591801583
1761475300727397400,8.3193974609375,0.0060655836492776866,0.005931799489309196,0.002707560191955417
1761475300737374700,8.329374755859375,0.00890928264260292,0.008954590509741683,-0.01163035990325734
1761475300747351600,8.3393515625,0.014444120416045187,-0.004856179889230407,-0.009897161168791354
1761475300757328600,8.34932861328125,-0.002911503532528877,0.0024716342566971435,-0.00112631888249889
1761475300767305700,8.3593056640625,0.012203063490986822,0.010999894821370253,-0.004827621085848659
1761475300777283600,8.36928369140625,0.0060702598243951795,0.0006564106614299817,-0.0036902876189909874
1761475300787260700,8.3792607421875,-0.006195932030677795,0.010498997236171271,-0.01923186614923179
1761475300797237800,8.38923779296875,-0.006644844841957092,0.002921712116000708,-0.0006823379746638238
1761475300807214800,8.39921484375,0.011610358294844627,0.006888521400475292,0.003054108607303351
1761475300817191700,8.409191650390625,-0.0021557167291641234,-0.005142266250791726,-0.0011155600264668463
1761475300827168800,8.419168701171875,0.00488075777888298,0.0034530630633234976,-0.01055197181571275
1761475300837145900,8.429145751953126,-0.004396773654222488,0.0023172622539597795,-0.015346202088613063
1761475300847123700,8.439123779296875,0.013407178583741188,0.002951915458019357,0.004884867698419839
1761475300857100800,8.449100830078125,-0.0029033202260732647,0.013782268106983974,-0.004103873388562352
1761475300867077600,8.45907763671875,-0.009188684105873108,0.000988471610410488,-0.0027802418356761335
1761475300877054700,8.4690546875,0.0014344167172908782,-0.004499927497198223,0.001973966954089701
1761475300887031800,8.47903173828125,0.004130816194415092,0.008003018556084134,0.006881941533461213
1761475300897008600,8.489008544921875,0.008770750954747199,0.004623146880668355,-0.0009935228156857192
1761475300906985700,8.49898583984375,0.004282791885733604,-0.006277559028434916,0.00607519172783941
1761475300916962600,8.508962646484376,0.011019991186261176,0.0015735215105931273,-0.010386332925222813
1761475300926939600,8.518939697265624,0.008179799324274062,0.004493315093321144,-0.012822967221308499
1761475300936917800,8.528917724609375,-0.0005009352594614029,-0.009395083694191998,0.00013201061552390456
1761475300946894600,8.53889453125,0.002642623463273048,0.004946977144954144,-0.012088917325716465
1761475300956871700,8.54887158203125,0.012368483185768126,0.0001235487478552386,-0.0031363435306586323
1761475300966848500,8.5588486328125,0.00144610715508461,-0.0021470819023816146,0.013068630811758339
1761475300976825600,8.56882568359375,0.00338847339451313,-0.002355462243588408,0.007570983243547379
1761475300986803000,8.578802978515625,0.004434767577052116,-0.0015101927879295543,-0.005943308976478875
1761475300996779800,8.58877978515625,0.010121581041812896,-0.006784848680158029,-0.019088585221022365
1761475301006756900,8.5987568359375,0.006231587865948677,0.0051681975597806734,-0.007240363049693405
1761475301016734700,8.608734619140625,0.005480477237701416,0.01002391337059671,-0.012743417445383966
1761475301026711800,8.6187119140625,0.007722118684649467,0.006786374487786088,-0.011667312646470963
1761475301036689000,8.62868896484375,0.0018821604847908018,0.001053447725821752,0.0001378923670388758
1761475301046665700,8.638665771484375,-0.000218026664853096,0.021424878114904275,-0.009341938438825309
1761475301056642800,8.648642822265625,0.009955576825141907,0.0019251205603941343,0.00046210108641535043
1761475301066619600,8.65861962890625,0.010548282021284102,0.0030369593972136497,-0.005901661791838706
1761475301076596700,8.6685966796875,0.016530863562226293,0.00451609260988771,-0.0015430464572273193
1761475301086573600,8.678573486328125,0.006501636978983879,0.0030464869898511097,-0.00481993096973747
1761475301096551700,8.6885517578125,0.002610474759340286,0.016585493526025674,-0.009190748198796063
1761475301106528800,8.69852880859375,0.006198270118236542,0.005972029893353464,-0.00917560542859137
1761475301116505600,8.708505615234374,-0.0038262802898883816,-0.00012071404501912184,-0.007193418635427952
1761475301126482700,8.718482666015625,-0.002626256850361824,-0.009693931355915265,0.005506086602993309
1761475301136459500,8.72845947265625,0.0050040918976068495,-0.014094028336741029,-0.0020359628070145846
1761475301146436600,8.7384365234375,0.0023076924204826353,0.013400422332680318,0.005942158199008554
1761475301156413700,8.74841357421875,-0.004423077139258384,0.003446135565615259,0.013238379621785134
1761475301166390800,8.758390869140625,0.007996259450912474,0.013513431420212146,-0.00040531113157048817
1761475301176368600,8.76836865234375,0.01936754829287529,0.005814158750788192,-0.0038932263125665482
1761475301186345700,8.778345703125,0.0075479311615228644,-0.006702274688440956,-0.005153619903512299
1761475301196322600,8.788322509765624,0.0021650690793991088,0.007582964800641639,0.00038273397358134386
1761475301206300000,8.7982998046875,0.0068038347959518426,0.007754936962973443,0.0062201348901726305
1761475301216276700,8.80827685546875,0.005905424651503562,0.003153590922159492,-0.006356401555705815
1761475301226253800,8.81825390625,-0.0008329436928033829,0.009131533391424454,0.0007801175270229577
1761475301236230700,8.828230712890624,0.013232991060614586,0.003567323963847593,0.0009293532719835639
1761475301246207700,8.838207763671875,0.003657353463768959,-0.0019194757000746902,-0.00889348228527233
1761475301256185900,8.848185791015625,-0.009953823259472847,-0.0031240229052025823,-0.008067625920381396
1761475301266162700,8.85816259765625,0.009202128109335898,0.0034365851400914834,0.00024739888980984686
1761475301276139800,8.868139892578125,-0.00022679449319839477,0.002118540794486762,-0.0019013218429870902
1761475301286116600,8.87811669921875,0.0036591070294380184,0.007926820647870772,-0.0026778226408176124
1761475301296093700,8.88809375,0.015180617997050285,0.013010126107151153,0.02902120129568502
1761475301306070800,8.89807080078125,0.014434183543920516,-0.0004046723815758014,-0.01789822465898469
1761475301316047600,8.908047607421874,0.015031564915180205,-0.012486355678085237,-0.0010538564344868063
1761475301326024700,8.918024658203125,0.0000672200173139572,-0.00205371080954792,-0.001528908334020525
1761475301336001500,8.92800146484375,0.0020095862567424774,0.0050000384894636225,-0.016454090265277773
1761475301345979600,8.937979736328124,-0.004578559961915016,0.0005512372496596071,-0.0025443324542604386
1761475301355956700,8.947956787109375,0.009635843351483344,0.006735030176327563,-0.010386625186167656
1761475301365933600,8.95793359375,0.012774725899100304,-0.002194367097475333,-0.004231536622531712
1761475301375910700,8.96791064453125,-0.002187280911207199,0.012965670477494131,-0.004901526572275906
1761475301385887700,8.9778876953125,0.005745850175619125,-0.003845293234323617,-0.007959197109844536
1761475301395864800,8.98786474609375,-0.007274374917149543,-0.01231254718087148,-0.025976171043980867
1761475301405841700,8.997841552734375,-0.003682487905025482,-0.004977080022273003,-0.009051010934542863
1761475301415818800,9.00781884765625,0.007840192106366157,-0.007341153118113288,-0.016801570262387395
1761475301425796900,9.017796875,0.011731938847899435,-0.005252581628560437,-0.006137297178618609
1761475301435773700,9.027773681640625,0.003951367974281311,0.0074333254844153995,-0.006111687813326716
1761475301445750800,9.037750732421875,0.016219897916913032,-0.0024618349527125247,0.0060989379296079275
1761475301455727900,9.047727783203126,-0.00158814597427845,-0.004343262501852587,0.004989990307018161
1761475301465704700,9.05770458984375,-0.0021884499549865723,0.003523181715555256,0.0038776816835626956
1761475301475681800,9.067681884765625,0.0023006781578063964,0.0009540852836187696,-4.566577263176441e-7
1761475301485658600,9.07765869140625,0.022203648501634598,0.00026104153938358646,0.008113401290867477
1761475301495635700,9.0876357421875,-0.0074216744333505625,0.0023908058391389204,-0.0032864925910718735
1761475301505613800,9.09761376953125,-0.006371288597583771,0.0002906506555358646,0.004288764968793839
1761475301515590700,9.107590576171875,0.009041384589672088,-0.0037232525986095424,-0.0003428951535373926
1761475301525567700,9.117567626953125,0.0017068039178848265,0.006331667260781978,-0.0017621143016964195
1761475301535544600,9.127544677734376,0.005742927566170692,0.00015488460103515534,-0.003589877718128264
1761475301545521700,9.137521728515624,0.0073883566856384275,0.0022741851598140784,-0.006010528993792831
1761475301555498500,9.14749853515625,0.013375614401698111,-0.00652938578572357,-0.007416432002652436
1761475301565475600,9.1574755859375,-0.002481295421719551,0.004847583878354635,0.00008895692508667707
1761475301575453000,9.167452880859376,0.0026034604966640473,0.005435586641560075,-0.021122228206787257
1761475301585430500,9.177430419921874,0.024895956325531005,0.011524116199940908,-0.01063082747189328
1761475301595407600,9.18740771484375,0.017562544697523115,-0.007497718219581293,-0.010663670295570044
1761475301605384700,9.197384765625,0.003647416591644287,-0.008032949615933467,-0.001787175677716732
1761475301615361800,9.20736181640625,0.003649754679203033,-0.00372209953785059,-0.015169548613764345
1761475301625339000,9.2173388671875,-0.011612111860513686,0.0051175330975122045,-0.01872135934382677
1761475301635315700,9.227315673828125,0.011734276935458183,0.01455507911038585,-0.00917903949469328
1761475301645292800,9.237292724609375,0.016070844835042952,-0.008550069966859883,-0.011539558080956339
1761475301655269600,9.24726953125,0.0036579379856586454,0.019641136503289452,0.000403648897446692
1761475301665246700,9.257246826171874,0.015628946286439894,-0.0008122787890431937,-0.012320680254977196
1761475301675224800,9.267224853515625,0.011586392897367476,-0.005952708704952965,0.009003189737442881
1761475301685201700,9.27720166015625,0.0033580782562494275,0.006741320636507589,-0.0009557663548737763
1761475301695178800,9.2871787109375,0.002163315513730049,0.02091744461599737,-0.009845558845717459
1761475301705155600,9.297155517578124,0.011288871255517006,0.014456409075460397,0.0009864902867004275
1761475301715132700,9.307132568359375,0.018320669588446616,0.005106233102074475,-0.006987228538841009
1761475301725109800,9.31710986328125,0.003209609696269035,-0.003998005286225816,0.005956826045177876
1761475301735086600,9.327086669921876,-0.002626256850361824,-0.004500619333653594,-0.008988120032474399
1761475301745062700,9.337062744140624,0.0000672200173139572,0.007813773886076524,-0.005259929822199047
1761475301755040800,9.347040771484375,0.024158289700746533,0.0013413869761076057,-0.0036117424900643526
1761475301765017600,9.357017578125,0.009193944802880287,-0.0015224175152630777,-0.013061196423973888
1761475301774994700,9.36699462890625,0.014732874229550361,0.007672938930813688,-0.016704777090717104
1761475301784971500,9.376971435546874,-0.0003793547064065933,-0.002856537354478496,0.004747760782670229
1761475301794948600,9.386948486328125,-0.002026537391543388,-0.010404556993435834,0.005755001596454531
1761475301804925700,9.39692578125,-0.00008358663022518158,-0.008911714344995561,0.0007177380816079676
1761475301814902500,9.406902587890626,0.00694470457136631,0.003611546127242036,-0.0072439249799586825
1761475301824879600,9.416879638671874,0.0070960957407951355,-0.005283431141261826,0.0008968575081788003
1761475301834856400,9.4268564453125,0.004850362640619278,0.01580126607946586,0.015829437294602393
1761475301844834600,9.43683447265625,0.010236147332191466,-0.002943570038070902,0.0063421173020265995
1761475301854811600,9.446811767578126,0.0014046061009168624,-0.0037832979522208912,-0.018159049285948275
1761475301864788500,9.45678857421875,0.0029015666604042052,-0.013469300017540807,0.007280220136046409
1761475301874765600,9.466765625,0.005296352842450142,-0.003457008015256724,0.0038755079927854236
1761475301884742400,9.476742431640625,0.018618191230297086,0.003140431188131333,-0.0029980127722024916
1761475301894719500,9.486719482421876,-0.009359949019551277,0.0016188213862216797,-0.009869706906285136
1761475301904696600,9.496696533203124,0.006055062255263328,0.0077302637460205,-0.004239537265896797
1761475301914673700,9.506673583984375,0.0009650456398725509,-0.008198834530773455,-0.010906612205971031
1761475301924651500,9.516651611328125,0.0009609539866447448,-0.0022842647374782246,-0.01794339724127203
1761475301934628600,9.526628662109376,0.006049217036366463,-0.0024043839858088173,0.011554846981633454
1761475301944605700,9.536605712890625,0.0017138181805610656,0.005224450370974955,0.0022721461830660697
1761475301954582800,9.546582763671875,0.006500467935204505,0.011808041999634587,-0.019632373241521416
1761475301964559600,9.5565595703125,0.016830138769745824,-0.0006306174914032453,-0.014068729498703032
1761475301974536700,9.56653662109375,0.014737550404667853,-0.0037830570652702586,0.01071892588045448
1761475301984513500,9.576513427734374,-0.003367430606484413,0.0005347507640952244,-0.007339987499266862
1761475301994490600,9.58649072265625,-0.00755728351175785,0.016167286380263976,-0.003152089089062065
1761475302004468700,9.59646875,0.01294131463766098,0.0009979090131470001,-0.0032043124666437505
1761475302014445600,9.606445556640624,-0.004565700480341911,-0.014187500465096672,-0.012161635502055287
1761475302024422700,9.616422607421875,0.0145873282790184,-0.0017317751040041912,0.0002228307041339576
1761475302034399500,9.6263994140625,0.008454524612426757,-0.0009274798336613457,0.003157897775340825
1761475302044376600,9.63637646484375,0.0005202244818210602,0.0036756340433756122,0.002585851774737239
1761475302054353400,9.646353515625,0.011145663392543793,-0.006359759702460724,0.0029271394930779934
1761475302064330500,9.65633056640625,0.0066582888454198835,-0.007266548945364775,-0.008684935834817588
1761475302074307600,9.6663076171875,0.0021709142982959746,0.00589863129700243,0.00395419925218448
1761475302084284400,9.676284423828125,0.016684592819213865,0.009710031965700909,-0.007466043298039585
1761475302094262500,9.686262451171874,0.01338964292705059,0.008134026237076614,-0.005781615608744323
1761475302104239400,9.6962392578125,0.012193126618862151,0.010111305101326433,0.016384623491950332
1761475302114216400,9.706216552734375,0.005754618003964424,0.018205670614872358,0.007860339845251292
1761475302124193800,9.71619384765625,-0.002927285623550415,0.00742115955176414,0.00040361236482858653
1761475302134170600,9.726170654296874,0.004253565791249275,-0.00186004683439387,-0.014923665827605872
1761475302144147700,9.736147705078125,0.007242810735106468,0.014851624646346318,-0.0012888159678317605
1761475302154124500,9.74612451171875,0.005296352842450142,0.004079140806104988,-0.00851752511234954
1761475302164101600,9.7561015625,0.0008066402077674866,0.013978094356472138,-0.0008925466592423617
1761475302174079700,9.766079833984374,0.0024538228929042814,0.012278973704832606,0.0031926220288500187
1761475302184056600,9.776056640625,0.0006593406915664673,0.0018352491782105062,-0.003641845367383212
1761475302194033700,9.78603369140625,-0.0074228434771299355,0.00105253897694638,0.0003403196039609611
1761475302204010500,9.796010498046876,0.007541501420736312,0.009947981465508928,-0.0005472403529100119
1761475302213987600,9.805987548828124,0.004099836534261703,-0.0017344842259655706,0.0018579028263688087
1761475302223964700,9.815964599609375,0.006791559836268424,0.007264473435998661,-0.01570701649133116
1761475302233941500,9.82594140625,-0.010566402199864386,-0.003196980826847721,-0.009100147305894642
1761475302243918600,9.835918701171876,-0.00951835445165634,0.0036209909506666007,0.004547105377726257
1761475302253895400,9.8458955078125,0.002751344534754753,0.0020007156804087572,0.001989000126440078
1761475302263873500,9.85587353515625,0.004548164823651313,-0.00379491589560057,-0.014868117981776594
1761475302273850600,9.8658505859375,0.0000637128859758377,0.006803185200336156,-0.0019661124411970376
1761475302283827500,9.875827392578126,-0.003977671459317207,0.004942296974081546,-0.0036714185217395423
1761475302293804500,9.885804443359374,0.008891162464022636,-0.013331768410105723,-0.015188527308870107
1761475302303781600,9.89578173828125,0.009339490753412246,-0.009570157704129814,0.0032024675694294273
1761475302313758700,9.9057587890625,0.005298690930008888,-0.009868537862505763,-0.0017601232740096747
1761475302323735600,9.915735595703126,0.004251812225580215,-0.01506008090690011,-0.0015823372879996895
1761475302333712600,9.925712646484374,0.0053021980613470075,0.00022991346546914426,0.005273172896262258
1761475302343690800,9.935690673828125,0.005900163954496383,-0.0028256735712231603,0.0035934213820844885
1761475302353667600,9.94566748046875,0.018618191230297086,0.005349339980079093,0.0038633608972653746
1761475302363644700,9.955644775390626,-0.006370704075694083,0.0034439321920857763,0.001026493503525853
1761475302373621500,9.96562158203125,-0.0021808511704206465,0.010874202065489953,-0.003604308102279901
1761475302383598600,9.9755986328125,-0.005773907226324081,-0.0007915236953820568,-0.007717241580132395
1761475302393575700,9.98557568359375,-0.011456629037857055,-0.0053900338917155744,-0.005191394630633294
1761475302403552500,9.995552490234376,-0.0026256723284721374,-0.012360653789050411,-0.019601028255186975
1761475302413529600,10.005529541015624,0.009942132821679115,-0.009824376777082216,-0.010688914334680884
1761475302423506400,10.01550634765625,0.0038099136769771573,0.00010682822520611806,0.0031821919663809236
1761475302433484500,10.025484619140625,-0.0041238019317388535,0.004410054402548121,0.0006848587253130972
1761475302443461600,10.035461669921874,0.0072474869102239605,0.012667635095701553,-0.0011797295701690017
1761475302453438500,10.0454384765625,-0.0017325228810310363,0.013491431934246793,0.0003933284328319132
1761475302463415600,10.05541552734375,-0.0030792613148689267,-0.005787015586358029,0.00084156539067626
1761475302473392400,10.065392333984375,0.01337912153303623,-0.006694377363886451,-0.004150726471282541
1761475302483369500,10.075369384765626,-0.007871171766519545,-0.00019459669856005348,-0.006180460466910153
1761475302493346800,10.085346923828125,-0.005178279420733452,-0.0035424709379149135,0.015945026498287915
1761475302503323600,10.09532373046875,-0.003083352968096733,0.001778708101826487,0.006832257172837853
1761475302513300700,10.10530078125,-0.0003898761004209518,-0.005839648814249085,-0.010080116520263254
1761475302523278600,10.115278564453124,0.00694470457136631,-0.016035843161965022,-0.003703037502709776
1761475302533255700,10.125255615234375,-0.0012859481573104857,-0.008291826597694308,0.004521751740761101
1761475302543232800,10.135232666015625,0.014122633376717566,0.01089557593037025,0.0001721234302036464
1761475302553209600,10.145209716796876,0.003797638717293739,-0.0033303762569266834,0.006596877514384687
1761475302563186700,10.155186767578124,0.005291676667332649,-0.011669165535195498,0.008449866703618317
1761475302573163500,10.16516357421875,-0.018353987336158752,-0.011081732452503637,-0.007515271000936627
1761475302583140600,10.175140625,-0.001443184545636177,-0.004906143381888978,0.0003182173700071871
1761475302593117400,10.185117431640625,-0.003835632640123367,-0.009042993166513042,0.004428410901501775
1761475302603095600,10.195095458984374,0.00558919830918312,-0.008187718910892726,-0.005536554806493222
1761475302613072600,10.20507275390625,-0.0023427637338638303,-0.004593252924259286,-0.01082998503949493
1761475302623049500,10.215049560546875,0.010229133069515228,-0.004359318587509915,-0.0007156374560669064
1761475302633026600,10.225026611328126,0.005888473516702652,0.0035913321729865856,-0.017071765505895016
1761475302643003400,10.23500341796875,0.010078326421976088,0.0030038945237174626,-0.011539923407137394
1761475302652980500,10.24498046875,0.0025958617120981214,0.006784649463224923,0.01447416849443689
1761475302662957600,10.25495751953125,-0.0020458266139030457,-0.0005278301162528806,0.008215564757399261
1761475302672934700,10.2649345703125,0.006180734461545944,0.006581872883142204,-0.00989255805891007
1761475302682911700,10.274911865234374,0.0046831893801689145,-0.010243684467964339,-0.0024540786212310195
1761475302692889600,10.2848896484375,0.008725742769241332,0.005172669380565639,0.004072108277119696
1761475302702866400,10.294866455078125,0.00019873744249343872,-0.003473960862524109,-0.0017977518706582486
1761475302712843800,10.30484375,0.019205051207542418,-0.01044253264995641,0.010550273048970847
1761475302722820600,10.314820556640624,0.010079495465755463,0.0075522853929433035,-0.011055537423677741
1761475302732797700,10.324797607421875,0.0012485387563705443,0.003948932846955722,-0.01638392937220633
1761475302742775600,10.334775634765625,0.01097498300075531,0.006525961994420504,-0.003960135802626609
1761475302752752400,10.34475244140625,0.015911270359158514,-0.0013145315060450228,-0.007158950110245496
1761475302762729500,10.3547294921875,0.0027396540969610215,-0.016302702520781896,0.0013772249036468564
1761475302772706600,10.36470654296875,0.012463175731897353,-0.0015833305185544303,-0.014599091782048344
1761475302782684400,10.374684326171876,0.00827273830473423,-0.00045788841889007014,0.0013897007927298544
1761475302792661500,10.38466162109375,-0.009836918881535529,0.0006853005416633095,0.0073985127534717315
1761475302802638300,10.394638427734375,-0.008192074283957481,-0.007079557881236541,-0.00176569449827075
1761475302812615400,10.404615478515625,0.0021335048973560333,-0.007095376504876185,0.00019694734420627353
1761475302822592500,10.414592529296876,0.003480243331193924,-0.00119602996770991,-0.010433350404724479
1761475302832569300,10.4245693359375,0.005725976431369781,0.0052935603804537094,-0.004702149808965623
1761475302842546400,10.43454638671875,0.0016869301736354826,0.00680763304659049,0.007481660992279648
1761475302852523300,10.444523193359375,0.01784779137969017,-0.0018688785948208532,0.011089731954224406
1761475302862500400,10.454500244140625,0.008418868777155876,-0.004793809006147785,-0.00004928250182420015
1761475302872478500,10.464478515625,0.008868950632214545,-0.0021375109272601545,-0.0019496544967405496
1761475302882455300,10.474455322265625,0.005576338827610015,0.002563974444713676,0.0026624972075223923
1761475302892432400,10.484432373046875,0.01859364131093025,-0.002049794969544746,0.01355098923491314
1761475302902409200,10.4944091796875,0.017249240964651108,-0.013271158513380213,0.007208506606705486
1761475302912386300,10.50438623046875,-0.0065437225550413125,-0.0034513266223191747,0.00046093204263597727
1761475302922363400,10.51436328125,0.011562427499890327,0.004402285512979142,-0.005378806961514056
1761475302932340500,10.524340576171875,0.010512041664123534,0.004855573105276562,-0.0007175006195902824
1761475302942317600,10.534317626953126,0.001982113727927208,-0.0005052735078614204,-0.0095629790446721
1761475302952295400,10.54429541015625,0.0025818331867456436,0.00466244456130662,-0.005623922562692314
1761475302962272500,10.5542724609375,0.012308277431130409,-0.0029080922993132844,-0.006385134459845721
1761475302972249600,10.56424951171875,0.010960369953513144,-0.0024593564429029355,-0.013915146372187883
1761475302982226400,10.574226318359376,0.007068038690090179,-0.010000743699207669,0.005781506010890006
1761475302992203500,10.58420361328125,0.008266308563947677,0.004582895927026402,0.011502148680016398
1761475303002180400,10.594180419921875,0.009315525355935095,0.004629256961046485,0.010531458750646561
1761475303012157400,10.604157470703125,-0.0037000235617160797,-0.007267616382800042,0.0024168701496906577
1761475303022134300,10.61413427734375,-0.010883213064074516,-0.010743795460229738,-0.0017953407178632915
1761475303032111400,10.624111328125,0.0013876549661159514,-0.008777700143697439,-0.015684293202869595
1761475303042089500,10.63408935546875,-0.0025017536878585815,0.003441573554929346,0.023273378358688205
1761475303052066300,10.64406640625,-0.010134440523386001,-0.0024234802702791055,-0.00596110036149621
1761475303062043400,10.65404345703125,-0.007890460988879203,-0.0013926439517759717,-0.009438567213714123
1761475303072020200,10.664020263671874,0.004826397243142128,-0.0022265466258046215,-0.012209219237137586
1761475303081997300,10.673997314453125,0.01814531302154064,-0.005098210196645232,-0.0141177928048186
1761475303091974400,10.683974365234375,0.0069219082176685326,-0.010386493897071341,0.01024184642061591
1761475303101951500,10.693951416015626,0.009315525355935095,-0.011444972849392797,0.00304404387101531
1761475303111928600,10.703928466796874,0.00542494765818119,-0.0015959491131769027,0.004093151065148413
1761475303121905400,10.713905517578125,0.00961421604156494,-0.002641034294385463,0.004664064554590732
1761475303131883300,10.72388330078125,0.009462824872136115,-0.010423017382022226,-0.010219305795244871
1761475303141860600,10.733860595703124,0.006771686092019081,-0.013460379208857193,-0.009374836061429232
1761475303151837400,10.74383740234375,0.009164718708395957,-0.006650129513494903,0.018733725635055452
1761475303161814500,10.753814453125,0.0018295535147190092,0.0003171350911958143,0.009931995020154863
1761475303171791400,10.763791259765625,0.010506196445226669,0.008436262869951314,-0.015018741966225206
1761475303181768400,10.7737685546875,0.003025485301017761,-0.002854896240774542,0.006122172674722969
1761475303191745500,10.78374560546875,0.008410100948810577,-0.0025328052716038652,-0.01808313450552523
1761475303201722400,10.793722412109375,0.0030202246040105817,-0.0007112124426988884,0.004844517421722412
1761475303211700500,10.803700439453126,-0.015984920117259025,0.003793180596240563,0.007494045549817383
1761475303221677300,10.81367724609375,0.006462474012374877,0.007519685739505803,-0.007115786821953952
1761475303231654400,10.823654296875,0.0021206454157829285,-0.008871450833266134,-0.000776811325084418
1761475303241631500,10.833631591796875,0.00810322695672512,-0.005485787025414174,-0.007472874897625297
1761475303251608300,10.8436083984375,-0.0008732757031917572,-0.003161380932148313,0.0035277540010400115
1761475303261585400,10.85358544921875,0.013645078992843626,-0.018770035632519284,0.0006690035690553486
1761475303271562200,10.863562255859375,-0.0025146131694316863,-0.013878731343446997,0.005350165388919413
1761475303281539300,10.873539306640625,0.010204583150148392,-0.0029511311483744066,-0.006002583149354905
1761475303291516400,10.883516357421875,0.004967851540446281,-0.006472327544464497,-0.015567644553259014
1761475303301494300,10.893494384765624,0.016340309426188467,-0.01571391088135424,-0.01165682778507471
1761475303311471400,10.903471435546875,0.004969020584225654,-0.005339065181236947,-0.014752017321437596
1761475303321448400,10.913448486328125,0.0036257892817258834,0.006367309967143228,-0.00758232662146911
1761475303331425500,10.923425537109376,0.016792729368805884,0.003875618732284056,-0.007621745316404849
1761475303341402400,10.93340234375,0.009461655828356742,-0.006529036442562937,0.0015489464750513434
1761475303351379500,10.94337939453125,-0.010588029509782791,-0.006976904649293282,-0.006467095388565212
1761475303361356500,10.9533564453125,0.0003343465209007263,-0.007728506184596335,-0.0017429346771910786
1761475303371333400,10.96333349609375,0.0013823942691087723,-0.000832649148569908,-0.004103855122253299
1761475303381310500,10.973310546875,0.004224924218654632,-0.006529295595822622,-0.016096837792824954
1761475303391288600,10.98328857421875,0.0007838438540697097,-0.014946943955204914,-0.01323653472457081
1761475303401265400,10.993265380859375,0.00647065731883049,-0.009221698176197241,-0.0024472470216453076
1761475303411242500,11.003242431640626,0.01620002417266369,0.006394863552704919,-0.013401990951970219
1761475303421219300,11.01321923828125,0.0001876315265893936,-0.002803944654960651,-0.007759564618207514
1761475303431196400,11.023196533203125,-0.00265606746673584,-0.0011648984688625204,0.0034211518214084208
1761475303441173200,11.03317333984375,-0.005800210711359977,0.003557952776481397,-0.0021884864876046775
1761475303451150300,11.043150390625,0.004375730866193771,0.006074980523640988,-0.004854691755864769
1761475303461127400,11.05312744140625,0.0006359598159790038,-0.008185469871590611,-0.014102357773669064
1761475303471104300,11.063104248046875,0.0006377133816480637,-0.0016095506635552736,-0.011482987321820109
1761475303481082400,11.073082275390625,0.010964461606740951,0.007930648010439472,0.002655446412228048
1761475303491059200,11.08305908203125,0.008717559462785721,0.01657610235988395,-0.01779732156777754
1761475303501036300,11.093036376953124,0.015154314512014388,0.016659029119694604,-0.006936649129074066
1761475303511013600,11.103013671875,0.007078560084104538,-0.009872332688211463,0.009823639274854213
1761475303520990500,11.112990478515625,0.022643793484568596,-0.02832213594850618,-0.0037122619887813924
1761475303530967600,11.122967529296876,0.0015448913544416428,-0.06705939252530224,-0.024204795723594724
1761475303540944400,11.1329443359375,0.004835749593377113,0.09888098339554853,0.01061206797249615
1761475303550921500,11.14292138671875,0.002444470542669296,0.09998145545073785,0.01911600295091048
1761475303560898300,11.152898193359375,0.012466098341345787,-0.046850265142018906,-0.004540566039085388
1761475303570876400,11.16287646484375,-0.001602174499630928,-0.08691425854424015,-0.020451672001462428
1761475303580853500,11.172853515625,0.012761866417527199,0.024024167043238412,-0.003597878361493349
1761475303590830300,11.182830322265625,0.007073883908987045,0.05230216473920736,-0.0020126001977361736
