time,seconds_elapsed,z,y,x
1761476319831320600,0.117320556640625,-0.11892623915374279,-0.03428082059063017,0.07903769821655005
1761476319841353700,0.127353759765625,-0.09379296694099902,-0.005988134498894214,0.08630487620793283
1761476319851387600,0.1373876953125,-0.03261106074750423,0.009381357133761047,0.05949939646665006
1761476319861420500,0.147420654296875,0.04822305589914322,0.022661475271731613,0.026681049644015728
1761476319871453400,0.157453369140625,0.11147124697268009,0.010731894959881902,-0.00963615387873724
1761476319881487600,0.167487548828125,0.1273737495034933,-0.003284501563385129,-0.03283856762675568
1761476319891520800,0.177520751953125,0.12370295203626155,-0.015169658211618661,-0.04682051389114931
1761476319901553700,0.1875537109375,0.07396423087716102,-0.04604994964376092,-0.04783464110344648
1761476319911587800,0.197587890625,0.02751344534754753,-0.05154335942827165,-0.05919831289453432
1761476319921620500,0.207620361328125,0.0244604875177145,0.006384659535810351,-0.03824923103125766
1761476319931653600,0.217653564453125,0.027864743003249166,0.10603380515910685,-0.001709142005443573
1761476319941686500,0.2276865234375,0.032148703932762146,0.10473229410648345,0.048035168644227084
1761476319951720700,0.237720703125,-0.0457183796018362,0.016326865422725677,0.1256435190442484
1761476319961753600,0.247753662109375,-0.17240706945061682,-0.18270919469110666,0.1473159924117848
1761476319971786800,0.257786865234375,-0.22005846294164658,-0.26927440233565864,0.10046484592035412
1761476319981820700,0.267820556640625,-0.10537351461946963,-0.1650477927289903,0.019038188474345952
1761476319991853800,0.277853759765625,0.08134615782201289,0.03549903727397322,-0.07374530916316434
1761476320001886700,0.28788671875,0.254328981333971,0.16928572255969046,-0.14058339622113852
1761476320011920600,0.297920654296875,0.33568215341866015,0.20553872000612317,-0.16049095140853895
1761476320021953500,0.30795361328125,0.3307721695452928,0.1681815607100725,-0.1464410727407783
1761476320031986700,0.317986572265625,0.21420447621643543,0.06502331098727882,-0.1135263163389638
1761476320042019600,0.32801953125,0.042696985954046245,-0.014899170707166193,-0.07845843702387065
1761476320052053800,0.3380537109375,-0.09783902746140956,-0.05040463772192597,-0.03886635828260332
1761476320062086700,0.348086669921875,-0.15745266142487524,-0.04751454230360686,0.037441092986147846
1761476320072119800,0.358119873046875,-0.1259352411329746,-0.018846227832511067,0.1009598080967553
1761476320082153500,0.368153564453125,-0.06710369745790958,-0.007013824284821749,0.11479355979580431
1761476320092186600,0.3781865234375,0.015678630647063256,-0.0196666773699224,0.10588224959289655
1761476320102219500,0.388219482421875,0.06037058981060981,-0.04065970797277987,0.09876406988445668
1761476320112253700,0.398253662109375,0.06363514456450939,-0.07410941150151193,0.08010260576801374
1761476320122286600,0.40828662109375,0.03993687359094619,-0.12009886312969029,0.07825447541698813
1761476320132319700,0.41831982421875,-0.00012917933762073515,-0.12454356757886707,0.06324209012631327
1761476320142353400,0.428353515625,-0.020779753178358076,-0.08905600154697894,0.0447198700837791
1761476320152386600,0.438386474609375,-0.0029798925936222074,-0.01287738255597651,0.015262871186714618
1761476320162419500,0.44841943359375,0.028763737669587133,0.03925269071906805,-0.019448833368159828
1761476320172452600,0.45845263671875,0.08227204049527645,0.05557787564136087,-0.04522011122349649
1761476320182486500,0.468486572265625,0.11132628554403781,0.05138108153864741,-0.05855364004913717
1761476320192519700,0.478519775390625,0.12894143721163273,0.022769173429906368,-0.06573388867573812
1761476320202552600,0.488552490234375,0.10111877978444099,-0.020917261952906847,-0.04960311208069324
1761476320212586800,0.498586669921875,0.07537643576264381,-0.05527282828018069,-0.03150291684251279
1761476320222619600,0.50861962890625,0.03445873444080352,-0.058212681124359365,-0.0004145538839511573
1761476320232652500,0.518652587890625,-0.026879239097237585,-0.03200440009124577,0.030442502803076057
1761476320242686500,0.5286865234375,-0.07003039855957031,-0.00001746259145438671,0.05734258375894278
1761476320252719600,0.5387197265625,-0.046621465921401976,0.02669679520241916,0.05170728128571063
1761476320262752500,0.54875244140625,0.016005962905287743,0.033109219527989626,0.020852252158988265
1761476320272786700,0.55878662109375,0.08524784143567085,0.04083469921350479,0.004203735300153493
1761476320282819600,0.568819580078125,0.11579378634691238,0.039695392985269425,-0.009088164607156068
1761476320292852700,0.578852783203125,0.12241934196650982,0.024226824892312288,-0.014064272519294171
1761476320302886700,0.58888671875,0.0823527045160532,-0.007456526551023125,-0.0073510203499346964
1761476320312919600,0.59891943359375,0.029706571477651593,-0.03435563939251005,0.006410926488228142
1761476320322952400,0.608952392578125,0.0003758475750684738,-0.05522409376762807,0.01076557803377509
1761476320332986600,0.618986572265625,-0.018837971460819242,-0.05495309480652213,-0.00005295402994379401
1761476320343019800,0.629019775390625,-0.018625790014863013,-0.043314460265263914,-0.0014562449566088616
1761476320353052700,0.639052734375,0.012411153283715247,-0.009674202600494026,-0.006426178856287151
1761476320363086600,0.649086669921875,0.05693477014303207,0.020168051020801065,-0.026147052365168927
1761476320373119500,0.659119384765625,0.0712812754034996,0.02084492736905813,-0.03060266180085018
1761476320383152600,0.669152587890625,0.09540449379086494,0.0112651981189847,-0.04178328690892085
1761476320393185500,0.679185546875,0.09652093060016631,-0.009116422587260604,-0.03768840054441243
1761476320403219700,0.6892197265625,0.08298924885392188,-0.04177198006361723,-0.01718667885614559
1761476320413252600,0.699252685546875,0.05359773467481136,-0.05492043464593589,0.0003744776018895209
1761476320423285800,0.70928564453125,0.013538696008920669,-0.03912380364239216,0.025682156533468514
1761476320433319700,0.719319580078125,-0.009218494722247124,-0.016958514389768243,0.05227702573137358
1761476320443352600,0.7293525390625,-0.026182489004731177,-0.0010710632976144551,0.05999406638210639
1761476320453385500,0.739385498046875,-0.03296586553454399,0.018412074198946356,0.058549164803419255
1761476320463419600,0.749419677734375,0.013351649004220962,0.003307882438972592,0.05616988671775907
1761476320473452500,0.75945263671875,0.05293196424245834,-0.017930866553261874,0.026979575932864097
1761476320483485700,0.769485595703125,0.06965279741883278,-0.029548677502200006,0.010469773424975574
1761476320493522700,0.779522705078125,0.0786181941628456,-0.016603855733200907,-0.0030202428703196343
1761476320503555800,0.789555908203125,0.07113865206241607,-0.009807546656578778,-0.0055901116246357555
1761476320513588700,0.799588623046875,0.03717793027162552,-0.0205679370585829,-0.006221705792751163
1761476320523622700,0.80962255859375,-0.00038461540341377254,-0.019597849917411803,-0.015336721874214709
1761476320533655600,0.819655517578125,0.003481412374973297,-0.0038991263303905723,-0.0200174087700434
1761476320543688700,0.829688720703125,0.02514846978187561,0.013896277274936437,-0.03320621362905949
1761476320553723000,0.839722900390625,0.05910100826621055,0.014527049459144473,-0.035681207174155856
1761476320563755800,0.849755859375,0.088304306396842,0.006520560875162482,-0.03911753829838708
1761476320573788700,0.85978857421875,0.09883914441466331,-0.008858794564381241,-0.035846462472155685
1761476320583822800,0.86982275390625,0.08455635204017162,-0.0030265812795609234,-0.014810652173496782
1761476320593855700,0.879855712890625,0.05559387692809105,-0.019845541068166495,-0.0023716793010942635
1761476320603889700,0.8898896484375,0.026754735934734344,-0.008037175983190536,0.019378252349980175
1761476320613922800,0.8999228515625,-0.0069195701301097865,-0.00886412832662463,0.04361486798394471
1761476320623955700,0.909955810546875,-0.020879121899604797,-0.013379632989689708,0.04610399965224787
1761476320633990000,0.919989990234375,0.0026940613895654678,-0.01935001263618469,0.044207481848541647
1761476320644022800,0.930022705078125,0.03751052322685718,-0.015118658676743507,0.013417060656938701
1761476320654056000,0.940055908203125,0.07429156313538551,-0.006098316875100135,-0.006895294205378741
1761476320664089600,0.950089599609375,0.08894669595360756,0.004449892080947757,-0.01401782129537314
1761476320674122800,0.960122802734375,0.09675941553115844,0.00234714764803648,-0.0190932065972127
1761476320684155600,0.97015576171875,0.05566928025186062,-0.0038453503165394066,-0.012198405582178383
1761476320694189800,0.98018994140625,0.024441198295354842,-0.02079524300843477,-0.0015003215603530407
1761476320704222700,0.99022265625,0.017571312525868413,-0.04148191107586026,0.009248360137548296
1761476320714256000,1.000255859375,-0.00279635272026062,-0.0492504261855036,0.017432305913977323
1761476320724289500,1.01028955078125,-0.006121697750687599,-0.024100348968431353,0.012332370692770928
1761476320734322700,1.02032275390625,0.02526829676926136,-0.0097854078900069,0.005042834739107638
1761476320744355600,1.03035546875,0.03526479012668132,-0.00410129783898592,0.014010807032696903
1761476320754389800,1.0403896484375,0.0562146391749382,-0.006040741468966007,0.012355459307413547
1761476320764422700,1.050422607421875,0.05308920063078403,-0.018421353483945132,-0.0031065511805936693
1761476320774455800,1.060455810546875,0.04802841010987759,-0.031623145688697694,-0.0012883593101054428
1761476320784489700,1.07048974609375,0.0378758494079113,-0.03152501907646656,-0.005923800558410584
1761476320794523000,1.08052294921875,0.026800913164019582,-0.017860943122208116,-0.006671130060683935
1761476320804555800,1.0905556640625,0.011508066964149475,-0.01102108716480434,0.0020974837359040975
1761476320814589700,1.100589599609375,0.01568272230029106,-0.007685366870835423,0.004943374686315656
1761476320824622600,1.11062255859375,0.02239770976901054,0.008296630636975168,0.004969312845170498
1761476320834655700,1.12065576171875,0.04066051169037819,0.009803601133823394,-0.005254614326264709
1761476320844690000,1.13068994140625,0.05309095419645309,0.004118395104259253,-0.008269669564813375
1761476320854722800,1.140722900390625,0.04668225619792938,-0.009487447856739164,-0.007977445152588188
1761476320864756700,1.1507568359375,0.03711889356076717,-0.01036167340800166,-0.007001841586083173
1761476320874789600,1.16078955078125,0.028886487266421318,-0.018995353979617356,0.001362593590095639
1761476320884822800,1.17082275390625,0.01751929007768631,-0.014650968099758029,0.0030296134868636727
1761476320894856700,1.180856689453125,0.022767127603292463,-0.01573328344374895,-0.0011394706250168383
1761476320904889900,1.190889892578125,0.03489946394562721,-0.018149112413823602,-0.007284056060947478
1761476320914922800,1.2009228515625,0.040752866148948665,-0.022493790554627774,0.00039628757489845154
1761476320924956700,1.210956787109375,0.038670214655995364,-0.02085705619826913,-0.0022750870588235557
1761476320934989600,1.220989501953125,0.042566053050756454,-0.012449293337017296,0.0004662110059522092
1761476320945022700,1.231022705078125,0.03525193064510822,-0.019278408704698085,0.010414755302108824
1761476320955056600,1.241056640625,0.021354922717809675,-0.030875615257024765,0.01592115243235603
1761476320965089800,1.25108984375,0.014790741896629333,-0.018916443524509666,0.009187277600076049
1761476320975122700,1.261122802734375,0.029617724150419234,-0.015644216920807957,-0.0005745667512528598
1761476320985156900,1.271156982421875,0.03156476656496525,-0.007830255234241485,0.001999667650926858
1761476320995189800,1.281189697265625,0.02886018378138542,-0.0053825698211789124,0.0013475969503633678
1761476321005223700,1.2912236328125,0.0237590612500906,-0.002852612952142954,0.008461812869738787
1761476321015256600,1.301256591796875,0.03421849594414234,0.008796177656948566,0.001300141079444438
1761476321025289700,1.311289794921875,0.02672784792780876,0.014966902181133628,0.005782218396943062
1761476321035324000,1.321323974609375,0.03616086218357086,0.005144961673021317,0.0049660431758500635
1761476321045356800,1.331356689453125,0.045136195799708366,0.011072232830151916,-0.0068018803008832035
1761476321055389700,1.3413896484375,0.047699908807873725,0.006387582145258784,-0.014072528890985994
1761476321065423600,1.351423583984375,0.039331308913230896,0.000980681600421667,-0.0034058446544222533
1761476321075456800,1.361456787109375,0.037085575813055036,0.0028176877692341804,-0.0016793861879967151
1761476321085489700,1.37148974609375,0.027962358158826826,-0.007271160046756267,-0.012571348814107477
1761476321095523800,1.38152392578125,0.028415947145223615,0.005019800923392177,-0.008779902375582606
1761476321105556700,1.391556640625,0.023331775748729706,-0.0006349369026720523,0.0006824293062090873
1761476321115590000,1.40158984375,0.012572481325268744,-0.0040332010388374325,0.01563040759116411
1761476321125623800,1.411623779296875,0.015716040048003196,-0.019377923556417227,0.026212518816813826
1761476321135657000,1.421656982421875,-0.0010655834048986434,-0.036956469540670514,0.033854667600430544
1761476321145690600,1.431690673828125,0.013244681498408318,-0.04694872511439025,0.03951680328166112
1761476321155723800,1.441723876953125,0.02050385884642601,-0.03524491638243198,0.025256661130394785
1761476321165756700,1.451756591796875,0.016689853516221046,-0.012301628494635224,0.01294361619260162
1761476321175790800,1.461790771484375,0.02652268074452877,-0.0030398791525512933,0.0028921777775511143
1761476321185823700,1.47182373046875,0.03728548229932785,-0.01253295303247869,-0.016523575304914266
1761476321195857000,1.48185693359375,0.05555588300526142,-0.02033778156451881,-0.020275858776830136
1761476321205890600,1.491890625,0.07085282085835934,-0.038917175154387945,-0.024792623815219846
1761476321215923700,1.501923828125,0.06775777745246887,-0.04339797383025289,-0.025767113136872646
1761476321225956600,1.51195654296875,0.054493222209811204,-0.03055836600139737,-0.011693561332579702
1761476321235990800,1.52199072265625,0.017556699478626252,-0.01644084719121456,0.0024163952256552874
1761476321246023700,1.532023681640625,-0.0056423898011446,-0.002321867076307535,0.01846179509218782
1761476321256056800,1.542056884765625,-0.01224456454515457,-0.004184665273502469,0.021350009080674498
1761476321266090800,1.5520908203125,0.008383212941884995,0.0020556173555552957,0.015409695778880267
1761476321276123600,1.56212353515625,0.05162321973145008,0.0077245298374444245,0.006984579924028366
1761476321286157800,1.57215771484375,0.07198211714923382,0.004579290614277124,0.006806118084583431
1761476321296190700,1.582190673828125,0.0706494072407484,0.007304404729232192,0.0019545681338757276
1761476321306223600,1.5922236328125,0.05240823262929916,0.0016943828277289866,0.0018385405387729406
1761476321316257800,1.6022578125,0.03296937266588211,-0.004939794489741325,-0.0032187063181772827
1761476321326291000,1.612291015625,0.020990765580534934,0.0016547084044665097,-0.009093863695580512
1761476321336323800,1.62232373046875,0.003775426885485649,0.01358056238926947,-0.006793879657518118
1761476321346357800,1.632357666015625,0.011227496457099913,-0.0015812778420746325,-0.005026632522977888
1761476321356390700,1.642390625,0.021527356675267218,-0.010946999015286564,0.0018579028263688087
1761476321366423800,1.652423828125,0.02435410453379154,-0.023964447629079223,0.009202548234444111
1761476321376457700,1.662457763671875,0.03210954096615314,-0.0216534672729671,0.009425853862613439
1761476321386491000,1.672490966796875,0.03372925112247467,-0.01615939990133047,0.007900196931604295
1761476321396524500,1.682524658203125,0.015441314759850501,-0.00660831222385168,0.00418784361127764
1761476321406557700,1.6925576171875,0.010925883162021637,-0.006939151613414287,0.008118515857402234
1761476321416590600,1.702590576171875,0.018078093004226685,-0.016930311208590863,-0.001562061684951186
1761476321426624800,1.712624755859375,0.043217210435867306,-0.030555151131004092,-0.010703107256814837
1761476321436657700,1.72265771484375,0.056254971185326574,-0.026943098113685844,-0.001082991197425872
1761476321446690800,1.73269091796875,0.061219315594434734,-0.02646335177272558,0.0014678623291663824
1761476321456724700,1.742724853515625,0.04044190050363541,-0.031911461110785605,0.006998042193800211
1761476321466758000,1.7527578125,0.011570610806345938,-0.02437171325571835,0.02000025670584291
1761476321476790800,1.762790771484375,-0.011044541105628013,-0.021957710916548967,0.02730639673443511
1761476321486821400,1.7728212890625,-0.0017892215043306349,-0.017516221337765453,0.027320808852277695
1761476321496854500,1.7828544921875,0.015243161839246748,-0.016345497057959436,0.02284419316118583
1761476321506888400,1.792888427734375,0.03631634500622749,-0.005338365353271365,0.01251534431055188
1761476321516921600,1.802921630859375,0.056527358385920524,0.0001397007316350937,0.012903320714831351
1761476321526954500,1.81295458984375,0.04904898532927036,0.00097118311971426,0.011986863457038997
1761476321536988400,1.822988525390625,0.03258767987191677,0.005161474416404962,0.005749247709102928
1761476321547021300,1.833021240234375,0.019114450314641,-0.002011412887647748,0.00878547359984368
1761476321557054500,1.843054443359375,0.005334931287169456,-0.010164981792122125,0.006364913655724376
1761476321567088600,1.853088623046875,0.014441197806596756,-0.011857318793237209,0.0015831958045251667
1761476321577121500,1.86312158203125,0.016048048481345174,-0.016290552000328896,-0.0018343210213817656
1761476321587154400,1.873154541015625,0.027533319091796873,-0.014744491602107881,-0.009755579007323831
1761476321597188400,1.883188232421875,0.04546937327682972,-0.012314999432861804,-0.013266254009399563
1761476321607221500,1.893221435546875,0.047555531901121134,-0.007177490413933992,-0.01651414988944307
1761476321617255400,1.90325537109375,0.042784664237499236,-0.015020239803567528,-0.023688516764529047
1761476321627288600,1.91328857421875,0.044909985828399654,-0.01634038249142468,-0.021696192169841377
1761476321637321500,1.923321533203125,0.030733576437830923,-0.023095628905296324,-0.013031678068544715
1761476321647355600,1.933355712890625,0.03119768681824207,-0.02230703581087291,0.0025618681109510363
1761476321657388500,1.943388427734375,0.01593406671285629,-0.03235357885509729,0.01150540008302778
1761476321667421700,1.953421630859375,0.017557284000515937,-0.008804945485293864,0.015841200797632335
1761476321677455400,1.963455322265625,-0.002985153290629387,-0.0075248425468802446,0.023610136032383888
1761476321687488500,1.973488525390625,0.016261983492970467,-0.004912395026162267,0.01620840840851888
1761476321697522400,1.9835224609375,0.03928571620583534,0.004176335836574435,0.007179353577457368
1761476321707555600,1.9935556640625,0.05169862305521965,-0.002773337170854211,0.0007056457850150764
1761476321717588500,2.00358837890625,0.07340133629739284,-0.009024798781052232,-0.016054934879858047
1761476321727622400,2.013622314453125,0.06683598643243313,-0.022660890749841928,-0.011499426999967545
1761476321737655300,2.0236552734375,0.03963058412075043,-0.015032222502306103,-0.009354268197435884
1761476321747688400,2.0336884765625,0.012988660910725593,-0.010690393905714154,-0.005277648141980171
1761476321757722600,2.04372265625,-0.002145195335149765,-0.00998874844238162,-0.002838876687735319
1761476321767755500,2.053755615234375,0.008751461732387542,-0.0064853434313088655,0.005643778040632605
1761476321777788400,2.063788330078125,0.03493687334656715,0.01104424884468317,0.012679083504900336
1761476321787822600,2.073822509765625,0.0650239685744047,0.011492357938364147,0.004793280424829572
1761476321797855500,2.08385546875,0.05499941816627979,0.00019011574462056159,0.011431366732437163
1761476321807889400,2.093889404296875,0.02088555164039135,-0.012509864417836069,0.027037735860887913
1761476321817922600,2.103922607421875,-0.010561726024746894,-0.011056304608657955,0.030282033278048036
1761476321827955500,2.11395556640625,-0.014050737184286117,-0.009732873985171317,0.021582192135043442
1761476321837989600,2.12398974609375,0.005644727888703346,-0.02116612214744091,0.023827523376420138
1761476321848022500,2.1340224609375,0.03776888190209866,-0.025061083759367466,0.008852419622521847
1761476321858055700,2.1440556640625,0.04552607190012931,-0.019594488916546107,-0.00406092929597944
1761476321868089300,2.15408935546875,0.05030979904532432,-0.03188216195106506,-0.017638970934599638
1761476321878122500,2.16412255859375,0.0675426733970642,-0.026837299651652574,-0.0188336240792647
1761476321888156400,2.174156494140625,0.06099661275446414,-0.010870645843446254,-0.022394019974581895
1761476321898189600,2.184189453125,0.03946574894785881,-0.014787307830527424,-0.026550043675489722
1761476321908222500,2.194222412109375,0.0110451256275177,-0.011314955544844268,-0.0067779879686422646
1761476321918256600,2.204256591796875,0.017474281892180442,-0.002650952900201082,0.0049686552580446
1761476321928289500,2.21428955078125,0.012820903128385543,-0.012691285399347543,0.006774499103613198
1761476321938322400,2.224322509765625,0.0324251827865839,-0.009492927749454974,0.005231050787586718
1761476321948356400,2.2343564453125,0.05024082546234131,-0.002243687273561954,0.013413626590836792
1761476321958389500,2.244389404296875,0.05160276146531105,0.0069697659473866224,0.019349921304639427
1761476321968423700,2.254423583984375,0.03696399526000023,-0.00414747506827116,0.014191223367210477
1761476321978456600,2.26445654296875,0.020217443120479583,-0.002501023035496473,0.010474723594728856
1761476321988489500,2.274489501953125,0.02635316939651966,0.008431216802075505,0.0070356890567578375
1761476321998523400,2.2845234375,0.03968085300326347,0.02486526892632246,0.00029047084655612704
1761476322008556500,2.294556640625,0.03115852385163307,0.02534983757287264,-0.00386407328331843
1761476322018589400,2.30458935546875,0.04627835157215595,0.018247604352235793,-0.003904113032761961
1761476322028623600,2.31462353515625,0.0483890601158142,-0.0007857435502111912,-0.003986347956117242
1761476322038656500,2.324656494140625,0.029711832174658774,-0.0316495222389698,-0.008641991742234676
1761476322048689700,2.334689697265625,0.03436579546034336,-0.0438544123608619,-0.006674290132150053
1761476322058723300,2.344723388671875,0.03033843964040279,-0.04299129272550344,-0.010820468292478472
1761476322068756500,2.354756591796875,0.020617256093025206,-0.01919299544356763,-0.009739742117375135
1761476322078790400,2.364790283203125,0.016563012266159055,-0.011564108000323176,0.0062762307252734895
1761476322088823600,2.374823486328125,0.013251695761084556,-0.01910202922448516,0.008196732192765921
1761476322098856400,2.3848564453125,0.016824878072738646,-0.020640344707667825,0.0028689064998179675
1761476322108890600,2.394890625,0.040166590693593025,-0.022579642207175493,-0.0038870157674886284
1761476322118923500,2.404923583984375,0.054115036547183984,-0.02938902996107936,-0.021681067665945738
1761476322128957400,2.41495751953125,0.07199263854324817,-0.028430852453410625,-0.01366365582915023
1761476322138990300,2.424990234375,0.0719131435662508,-0.02145736017897725,-0.012396978627890349
1761476322149023500,2.4350234375,0.04352174634039402,-0.01869483666308224,0.006268047418817878
1761476322159057700,2.4450576171875,0.00927402430176735,-0.01481529181599617,0.032810711505450306
1761476322169090600,2.455090576171875,-0.022308277919888497,-0.008332213407009839,0.04004994204398244
1761476322179123500,2.46512353515625,-0.021581132689118383,-0.0006747574564069509,0.03939708589212969
1761476322189157400,2.475157470703125,0.002776478976011276,0.0034841157887130973,0.03487226541144773
1761476322199190500,2.4851904296875,0.028941432324051854,-0.001283829265460372,0.020589838363137096
1761476322209223400,2.495223388671875,0.06261164673566817,-0.005469955843687057,0.017984953094366936
1761476322219257600,2.505257568359375,0.0581318709731102,-0.011450710753723978,0.007415975344926118
1761476322229290500,2.51529052734375,0.03523088785707951,-0.008468041681125759,0.010119480416271835
1761476322239324700,2.52532470703125,0.0033300212055444715,-0.008894815725833177,0.005632014537602662
1761476322249357600,2.535357666015625,-0.007031213811039924,-0.0004702478602528572,-0.005037610574718564
1761476322259390700,2.545390625,0.01433598386645317,0.003024681583419442,-0.009232669378072022
1761476322269424400,2.55542431640625,0.03901975874602794,-0.0039355128180235625,-0.022332900904491543
1761476322279457500,2.56545751953125,0.06613865181803703,-0.006300707579404115,-0.02499671328626573
1761476322289491500,2.575491455078125,0.08025602449774742,-0.017003084183856845,-0.02190212653810158
1761476322299524600,2.585524658203125,0.06503273640275001,-0.02164996014162898,-0.015468074902612716
1761476322309557500,2.5955576171875,0.02450140404999256,-0.02958637916408479,-0.004413834386877715
1761476322319591400,2.60559130859375,-0.005108136793971062,-0.025057430497556925,0.0036922603803686794
1761476322329624300,2.615624267578125,0.003558569264411926,-0.019093699787557122,0.006399272583052515
1761476322339657500,2.625657470703125,0.015668693774938583,-0.0106306265424937,0.013327226949017494
1761476322349691400,2.63569140625,0.03498188153207302,-0.0034486060839146373,0.015509247163217514
1761476322359724500,2.645724609375,0.04919160867035389,-0.0008918342731893062,0.01590326971579343
1761476322369758700,2.6557587890625,0.04544014718234539,-0.0019317717801779508,0.017408833706844595
1761476322379791600,2.66579150390625,0.033466800794005394,-0.009003536797314882,0.01738084972137585
1761476322389824500,2.675824462890625,0.023902853634953498,-0.02116597601696849,0.000934248642809689
1761476322399858400,2.6858583984375,0.031105916881561276,-0.023002762990072367,-0.0027873656962066886
1761476322409891600,2.6958916015625,0.04668810141682624,-0.02869498328231275,-0.008000296305213123
1761476322419924500,2.705924560546875,0.050307460957765573,-0.01892901074513793,-0.0019487777139060199
1761476322429958700,2.715958740234375,0.039709494575858116,-0.007399462601542473,0.010504077553376555
1761476322439991600,2.725991455078125,0.0054512511432170865,0.00008585165254771709,0.02380118335876614
1761476322450025500,2.736025390625,-0.019838672935962677,-0.0042756314925849435,0.031614359594043344
1761476322460058400,2.746058349609375,-0.011938859596848487,-0.0023716245021671053,0.04102543601263314
1761476322470091500,2.756091552734375,0.005084171396493912,-0.008823869381472468,0.03939156946679577
1761476322480125400,2.76612548828125,0.030334347987174985,-0.025132833821326493,0.023472243665345012
1761476322490158800,2.776158935546875,0.04422434165179729,-0.01823043402172625,0.002254245200194418
1761476322500192800,2.78619287109375,0.05499649555683136,-0.020176818849146363,-0.015463234330713747
1761476322510225700,2.7962255859375,0.052771220722794526,-0.021466054942086338,-0.02513504404472187
1761476322520258800,2.8062587890625,0.05715513489544391,-0.032069574281945824,-0.029744583666790274
1761476322530293000,2.81629296875,0.04522445860505104,-0.032926118046045304,-0.03013900807816535
1761476322540326000,2.826325927734375,0.02879004115462303,-0.022416341404244304,-0.017991218438372016
1761476322550358800,2.83635888671875,0.02177811656594276,-0.02155344096459448,-0.0071819839259609575
1761476322560393000,2.84639306640625,0.006973930665850639,-0.005290215362608433,-0.011821114968694747
1761476322570426000,2.856426025390625,0.02658405554294586,0.002354600302129984,-0.003951934229861944
1761476322580459800,2.866459716796875,0.048127194309234615,0.010388561414927243,0.003022690555732697
1761476322590493000,2.876492919921875,0.04949263744354248,0.010555515479668974,0.00532503094766289
1761476322600525800,2.88652587890625,0.05970248129069805,-0.007143515079095959,0.021375855907984076
1761476322610560000,2.89656005859375,0.048507718059420585,-0.010696019928902387,0.013800707945972681
1761476322620593000,2.906593017578125,0.013193828094005584,0.0016636223632842302,0.012645272566843778
1761476322630626000,2.9166259765625,-0.001031096613407135,0.004876154669001698,0.01688742191493511
1761476322640659700,2.92665966796875,0.001339139649271965,0.005624781079217791,0.015383264429681002
1761476322650692900,2.93669287109375,0.02257423537969589,0.008862667021900415,0.0018279278132133185
1761476322660726800,2.946726806640625,0.038898178192973136,-0.003827814659848809,-0.003428038219921291
1761476322670760000,2.956760009765625,0.06017594402134418,-0.021084727474302054,-0.004491064341552556
1761476322680792800,2.966792724609375,0.05646539906561374,-0.0270616099268198,0.004757003535050899
1761476322690827000,2.976826904296875,0.04630874671041965,-0.02388341828212142,0.009664119597896932
1761476322700860000,2.98685986328125,0.017568974438309667,-0.019686916440352795,0.007953479755111039
1761476322710893800,2.996893798828125,0.0028828619599342345,-0.009348404712229967,0.014763744291849434
1761476322720926700,3.0069267578125,-0.0026788638204336165,-0.0035348230626434086,0.011914401009026914
1761476322730960000,3.0169599609375,0.012106032857298851,-0.01677906616963446,-0.005014668090548366
1761476322740994000,3.026994140625,0.031847675159573555,-0.0305335968863219,-0.004950498546846211
1761476322751027000,3.03702685546875,0.05294657728970051,-0.04297185737267136,-0.006369809026550501
1761476322761059800,3.047059814453125,0.058657940673828124,-0.04129610618017614,-0.01140144651820883
1761476322771093800,3.05709375,0.05524550188183784,-0.027993557014688846,-0.00964722326202318
1761476322781127000,3.067126953125,0.03835691092312336,-0.013441446179524063,-0.004075633674766868
1761476322791160800,3.077160888671875,0.013976502904295921,0.0001486146904528141,0.004343618694879115
1761476322801194000,3.087194091796875,0.00753682524561882,0.00405870080627501,0.011717435398511588
1761476322811227000,3.097226806640625,0.015908932271599768,-0.008433116498216986,0.015905735667515544
1761476322821261000,3.107260986328125,0.03250760037302971,-0.008818316423520446,0.017075400501396505
1761476322831293700,3.117293701171875,0.030839374899864196,-0.01038118182606995,0.009229162246733903
1761476322841327900,3.127327880859375,0.02917641012370586,0.006068433193489909,0.011329331130068749
1761476322851360800,3.13736083984375,0.023622867649793624,0.00894566913023591,0.010595555229112505
1761476322861394000,3.147393798828125,0.02151332814991474,0.008759133582189679,0.003509140632115304
1761476322871427800,3.157427734375,0.025380524972081184,0.006379618034511804,0.00501415663389489
1761476322881461000,3.1674609375,0.028801147070527076,-0.0014302519988268613,0.004152553102187812
1761476322891494000,3.177493896484375,0.04046995755434036,-0.018201792449131608,-0.009972034769598395
1761476322901527800,3.18752783203125,0.05199906730651855,-0.023738602983951567,-0.012444635428208856
1761476322911560700,3.197560791015625,0.04003039709329605,-0.02543547002971172,-0.006367416140064597
1761476322921595000,3.207594970703125,0.025815409258008,-0.01980550131872296,-0.013802169250696897
1761476322931628000,3.2176279296875,0.018632219755649566,-0.01337714877165854,-0.005731967780739069
1761476322941661000,3.227660888671875,0.010848726272583008,-0.004202858517318964,0.0022399426802061496
1761476322951694800,3.23769482421875,0.01306932493150234,-0.0008103665348142385,-0.000350877530593425
1761476322961727700,3.247727783203125,0.018447510838508607,-0.012768880680203437,-0.0074601067475974555
1761476322971762000,3.257761962890625,0.036709728237986565,-0.026766280242055653,-0.00021762480605393646
1761476322981794800,3.267794921875,0.04842062429785728,-0.04017323963008821,0.0004058591208420694
1761476322991828000,3.277827880859375,0.06118307523727417,-0.04331197604723275,0.00010930559337139129
1761476323001862000,3.28786181640625,0.04550152198076248,-0.023691329776123166,0.004466550954803824
1761476323011895000,3.29789501953125,0.0065986676126718515,-0.010827391223609447,0.013842647391557692
1761476323021928700,3.3079287109375,-0.018717559951543807,0.0041332273472100495,0.013275058370362967
1761476323031961900,3.3179619140625,-0.01756020660996437,0.00021568857729434965,0.018397168890759347
1761476323041994800,3.327994873046875,0.011292378386855125,-0.007481441796571016,0.015641550039686262
1761476323052029000,3.33802880859375,0.058710547643899914,-0.008262436106428503,0.009717146693076937
1761476323062061800,3.348061767578125,0.07519464945495129,-0.004326631027460098,-0.0023860183537006375
1761476323072095000,3.358094970703125,0.06519055731296539,0.0007472381707280874,-0.005624160024709999
1761476323082128600,3.368128662109375,0.035890813070535654,0.009201762783154845,0.009614782297145574
1761476323092161800,3.378161865234375,-0.005249006569385528,0.0035969285134226084,0.021342026703618466
1761476323102196000,3.388196044921875,-0.034143677142262456,-0.01123787172064185,0.02843419518796727
1761476323112228900,3.398228759765625,-0.02641805132627487,-0.04099266625419259,0.020869879147224126
1761476323122261800,3.40826171875,0.011514496704936027,-0.021644041857495903,0.02128649712409824
1761476323132296000,3.4182958984375,0.04603402142226696,-0.019476123233884573,-0.00012852175049483776
1761476323142329000,3.4283291015625,0.07071545821428299,-0.010225406742468475,-0.008881152526661754
1761476323152362800,3.43836279296875,0.0571077886223793,-0.007764204260706901,-0.008379651011619716
1761476323162396000,3.44839599609375,0.052342766177654265,-0.012888926863297819,-0.01699541233405471
1761476323172428800,3.4584287109375,0.033656770408153534,-0.020141163013875484,-0.016791158466227352
1761476323182463000,3.468462890625,0.017641455152630804,-0.014463117377460002,-0.007309263567440211
1761476323192495900,3.478495849609375,0.01808569178879261,-0.019519597049430012,-0.013513835562299936
1761476323202529800,3.48852978515625,0.0321679931551218,-0.017402677960693835,-0.007717972232494503
1761476323212562700,3.498562744140625,0.04312193336784839,-0.026922566782310604,-0.009767360776662825
1761476323222595800,3.508595947265625,0.04897299748361111,-0.020967092444002626,0.0027523674480617044
1761476323232629800,3.518629638671875,0.043885318955779073,-0.013876330465450882,0.01196845101751387
1761476323242663000,3.528662841796875,0.027411154016852377,0.0005998655892908573,0.015414938209578394
1761476323252697000,3.538697021484375,0.018715806385874747,0.014401084991917014,0.014935045738145709
1761476323262730000,3.54872998046875,0.021093056911230087,0.014577756733074784,0.020635686798859385
1761476323272763000,3.558762939453125,0.038300212299823756,0.012228563258424401,0.008290547956060618
1761476323282796800,3.568796875,0.06374211207032203,0.012324570978805422,-0.0057340866725891825
1761476323292830000,3.578829833984375,0.06212415547966957,0.004372515995800495,-0.012888762466516344
1761476323302862800,3.58886279296875,0.04928337860703468,0.007121010986343026,-0.018826664615515618
1761476323312897000,3.59889697265625,0.032850714722275735,0.007663008908554911,-0.015929956793319433
1761476323322930000,3.608929931640625,0.0011456629037857055,0.000608268091455102,-0.0013299516958184539
1761476323332963800,3.6189638671875,-0.007840192106366157,-0.02131115664131939,0.009598507015779615
1761476323342996700,3.628996826171875,0.00395662867128849,-0.039798195772618054,0.02006318414052948
1761476323353030000,3.63902978515625,0.01454115104973316,-0.040585546758025885,0.011463515436369925
1761476323363063800,3.649063720703125,0.04788695581257343,-0.03950871130675077,-0.002098305719811469
1761476323373097000,3.659096923828125,0.04968085349202156,-0.031729820933565495,0.005611190945282578
1761476323383131000,3.669130859375,0.044134909802675246,-0.019061185757443307,0.0030876455507241186
1761476323393164000,3.6791640625,0.034244799429178234,-0.014052125423774122,0.0057752954658120866
1761476323403197000,3.689197021484375,0.019867899030447004,-0.007104936634376645,0.004579564608912914
1761476323413230800,3.69923095703125,0.02824117510020733,-0.011384586714953184,0.006807506324071437
1761476323423263700,3.709263671875,0.04097849159836769,-0.007808774054795503,-0.00023592764772474765
1761476323433298000,3.7192978515625,0.053419455498456954,-0.016383783241733906,-0.0003577273964881897
1761476323443330800,3.729330810546875,0.057341597378253936,-0.022562983333319426,0.003996668420732021
1761476323453364000,3.739364013671875,0.04465630332827568,-0.02323540270216763,0.016229834789037705
1761476323463398000,3.74939794921875,0.024020927056670187,-0.019437252528220414,0.023855105503089724
1761476323473430800,3.7594306640625,0.006802081230282783,-0.014375439094007014,0.02986336947456002
1761476323483465000,3.76946484375,-0.008047112855315208,-0.012731471279263495,0.03643492988459766
1761476323493497600,3.77949755859375,-0.006290624576807022,-0.001457286136224866,0.026219752275198696
1761476323503530500,3.789530517578125,0.031688685205578805,0.001406432731822133,0.011449340780545025
1761476323513564700,3.799564697265625,0.043944940188527105,-0.0015284516762942074,0.0027128939541988073
1761476323523597600,3.80959765625,0.06071370415985584,-0.004172609509527683,-0.013453739405516535
1761476323533631500,3.819631591796875,0.05910276183187961,-0.004213818302750587,-0.013604381656274199
1761476323543664400,3.829664306640625,0.04625029452145099,-0.012751929545402526,-0.017842713345773517
1761476323553697500,3.839697509765625,0.027555530923604965,-0.011897723868861794,-0.006023461540602147
1761476323563731500,3.8497314453125,0.0012175590962171553,-0.017193419124186038,-0.007217420565523207
1761476323573764600,3.8597646484375,0.00630114597082138,-0.025613237749412654,-0.0014360058861784637
1761476323583798500,3.869798583984375,0.03368658102452755,-0.02383124970346689,-0.009227865338791162
1761476323593831400,3.87983154296875,0.05180734412670135,-0.019405249954760073,-0.009392700511682778
1761476323603864300,3.8898642578125,0.05842237835228443,-0.021606924717500805,-0.006763575850799679
1761476323613898500,3.8998984375,0.04153378739356994,-0.020694193786755202,0.00024047595867887137
1761476323623931400,3.909931396484375,0.02493570381402969,-0.017725991630926727,-0.002321319087035954
1761476323633965600,3.919965576171875,0.016118775629997254,-0.012450097054615616,0.0016620697270147502
1761476323643998500,3.92999853515625,0.003394318613409996,-0.021990371077135203,0.003143650054279715
1761476323654031600,3.940031494140625,0.0162561382740736,-0.008739113707467914,-0.0007987126296386122
1761476323664065500,3.9500654296875,0.036298809349536894,0.0038829058479517694,0.002592719906941056
1761476323674098400,3.960098388671875,0.04916705875098705,0.002383826396614313,0.0008235730762593447
1761476323684132600,3.970132568359375,0.03209901957213879,0.01949709295667708,-0.0018759134070947766
1761476323694165500,3.98016552734375,0.023120763346552848,0.013266674134507774,-0.005081522781681269
1761476323704198700,3.99019873046875,0.03434825980365276,0.012323182739317417,-0.009098503338079898
1761476323714232300,4.000232421875,0.027917934495210645,0.0018652093499898909,-0.013311024732887745
1761476323724265500,4.010265380859375,0.04903378776013851,-0.0042187136735767124,-0.014222714484017341
1761476323734296600,4.020296630859375,0.03993161289393902,-0.014526684132963418,-0.0059054977167397734
1761476323744330500,4.03033056640625,0.04517126711308956,-0.020997852908447384,0.0024231537600047886
1761476323754363600,4.04036376953125,0.02092822173833847,-0.01739675967656076,0.014939813244808465
1761476323764396500,4.050396484375,-0.010212766456604003,0.009983926136791705,0.024708909320831297
1761476323774430500,4.060430419921875,-0.034493805754184724,0.007300386141240596,0.032741774455085394
1761476323784463400,4.07046337890625,-0.020500351715087888,-0.004142068240791559,0.037736970660183576
1761476323794497500,4.08049755859375,0.007094926697015762,-0.028850977561622856,0.021279446328803894
1761476323804530400,4.090530517578125,0.04954349084794521,-0.031743411067500706,0.002931121548451483
1761476323814563600,4.1005634765625,0.0784311471581459,-0.03229417681805789,-0.005806348191201687
1761476323824597500,4.110597412109375,0.07427519652247429,-0.03368029741421342,-0.020561434252560136
1761476323834630400,4.12063037109375,0.05232347695529461,-0.041384880442172284,-0.026748507123347372
1761476323844663300,4.130663330078125,0.02226268521249294,-0.041653395185247064,-0.012297938700206576
1761476323854697500,4.140697509765625,0.0007113631397485733,-0.04100618332289159,-0.009052819299139082
1761476323864730600,4.150730712890625,0.0019049568384885787,-0.033175708892941476,-0.005074873845186084
1761476323874764500,4.1607646484375,0.0298936184823513,-0.017662936332076787,-0.004730992310959845
1761476323884797700,4.170797607421875,0.047266778087615965,-0.006432955656945705,0.0037143078153952956
1761476323894831400,4.180831298828125,0.048638650962710375,0.000024549919366836548,0.010035181399993598
1761476323904864500,4.190864501953125,0.04987199214994907,0.0012494155392050743,0.01023063090685755
1761476323914897400,4.2008974609375,0.045265959659218785,0.011106573491171001,0.0199806021573022
1761476323924931600,4.210931640625,0.021485271099209783,0.007782105243578552,0.01586925784833729
1761476323934964500,4.220964599609375,0.0056219315350055695,0.01526091669164598,0.02793760731006041
1761476323944997600,4.23099755859375,0.004545826736092567,0.0007284604050219059,0.02710197846982628
1761476323955031300,4.24103125,0.011086626681685446,-0.009608370822668076,0.0031260413323529065
1761476323965064400,4.251064453125,0.026470073774456978,-0.01823664456680417,-0.00823850724156946
1761476323975098600,4.2610986328125,0.05340250436365604,-0.005994783435389399,-0.02391847132919356
1761476323985131500,4.271131591796875,0.061652446314692494,0.001230930034443736,-0.029962592065334318
1761476323995164400,4.281164306640625,0.05284545500278472,-0.012126271927729249,-0.026428170861490068
1761476324005198600,4.291198486328125,0.02832300816476345,-0.022190277563408016,-0.013687201101519166
1761476324015231500,4.3012314453125,0.015590952363610267,-0.024431699814647434,-0.0010526143254712223
1761476324025265400,4.311265380859375,0.010044424152374267,-0.035450229696184395,0.010351462541241198
1761476324035298600,4.321298583984375,0.0020996026277542114,-0.021087284757569432,0.0029219518613070247
1761476324045331500,4.33133154296875,0.0016214637219905852,-0.009892813787236809,0.004485803644545376
1761476324055365600,4.34136572265625,0.021197686329483986,-0.002326908577606082,0.005257536935713142
1761476324065398500,4.3513984375,0.03106441582739353,-0.005134805605188012,0.0004046535444445908
1761476324075432400,4.361432373046875,0.0539531239837408,-0.012546689296886324,0.0029606947028078135
1761476324085465300,4.37146533203125,0.04903787941336631,-0.02561265322752297,-0.0007518595469184219
1761476324095498500,4.38149853515625,0.0408341146916151,-0.030448841212317345,0.0020618461669422686
1761476324105532400,4.391532470703125,0.03321837899088859,-0.03078917908258736,0.013984503547661006
1761476324115565600,4.401565673828125,0.023349895927309988,-0.022900252463668582,0.014725421575456856
1761476324125599500,4.411599609375,0.00881166748702526,-0.012396028779819606,0.02886389184212312
1761476324135632600,4.421632568359375,0.010870938104391097,-0.0030235125396400686,0.031091066372301426
1761476324145665300,4.431665283203125,0.011427987465262412,-0.0018599486529827117,0.026664609965868294
1761476324155699500,4.441699462890625,0.020984335839748382,-0.001223112054169178,0.030958197240252047
1761476324165732400,4.451732421875,0.03069675155878067,-0.017311346415430307,0.013322715170681476
1761476324175766500,4.4617666015625,0.04654606259763241,-0.02135448432639241,0.004278681966196745
1761476324185799700,4.471799560546875,0.03456687099039554,-0.013367942551895976,0.0020996939592994746
1761476324195832600,4.48183251953125,0.040402737537026404,-0.004804769933223724,-0.0040229719057679175
1761476324205866500,4.491866455078125,0.023940847557783126,0.0019987726017832753,0.0036652445092797276
1761476324215899400,4.5018994140625,-0.0009252981513738632,-0.0010248130030930042,-0.003688387922849506
1761476324225933600,4.51193359375,0.018663199415802953,0.0077903616152703754,-0.00205132477292791
1761476324235966500,4.521966552734375,0.03136778268814087,-0.00032747838869690894,-0.009154635705798863
1761476324245999600,4.53199951171875,0.043645080459117885,-0.019228505148366094,-0.01604127168068662
1761476324256033500,4.542033447265625,0.05159750076830387,-0.03176920309588313,-0.01790288256779313
1761476324266066400,4.55206640625,0.04847732292115688,-0.030538126930966972,-0.01059794811559841
1761476324276100400,4.562100341796875,0.031873978644609446,-0.028360709826648234,-0.00857038781074807
1761476324286133500,4.572133544921875,0.005984335106611251,-0.012788023772090673,0.004620462874881923
1761476324296166400,4.58216650390625,0.0001204115092754364,-0.008779153456911444,0.010835117872338741
1761476324306200600,4.59220068359375,0.0012754267632961273,0.0007063216384500265,0.017327566897869108
1761476324316233500,4.6022333984375,0.01574117448925972,0.011561331521347164,0.02231169371968135
1761476324326267400,4.612267333984375,0.041460137635469435,0.00941708603426814,0.0008572196175344288
1761476324336300500,4.622300537109375,0.050592123118042946,-0.0009986556485295295,-0.009002130291517823
1761476324346333400,4.63233349609375,0.06976677918732166,-0.008366115676611661,-0.014210202062316239
1761476324356367600,4.64236767578125,0.056931847533583636,-0.02239128002822399,-0.01620435328790918
1761476324366400500,4.652400390625,0.039144846430420877,-0.02849997216686606,-0.013931184191536158
1761476324376434700,4.6624345703125,0.020744681864976883,-0.011800181778520345,-0.0014777444023638963
1761476324386467600,4.672467529296875,0.00651683454811573,-0.005718523777276277,0.007073609914351254
1761476324396500500,4.68250048828125,0.008292027527093886,0.0006098024614155293,-0.00015429551256820558
1761476324406534400,4.692534423828125,0.010072481203079223,0.01912716366574168,0.011144439549837262
1761476324416567600,4.702567626953125,0.024431845945119858,0.0007101210307329893,0.024318266035430133
1761476324426601500,4.7126015625,0.024279870253801343,-0.01259425476565957,0.02452471186034381
1761476324436634600,4.722634521484375,0.014246552017331122,-0.014412044777348637,0.01919438368305564
1761476324446667500,4.73266748046875,0.003601239362359047,-0.02575768772140145,0.02912225051736459
1761476324456701400,4.742701416015625,0.019569208344817162,-0.014901508794724941,0.02377886192910373
1761476324466734300,4.752734375,0.024467501780390737,-0.016935571905598044,0.001794189940392971
1761476324476768500,4.7627685546875,0.03700841892361641,-0.014443462828919292,-0.0045246743502095335
1761476324486801400,4.772801513671875,0.026968670946359633,-0.020791370550915598,-0.020634481222461906
1761476324496838100,4.782838134765625,0.05032441209256649,-0.031844094962999225,-0.03212146886596456
1761476324506872000,4.7928720703125,0.04750350945293903,-0.03159311587661504,-0.030525212650466708
1761476324516905000,4.802905029296875,0.04949263744354248,-0.031432299291715024,-0.0292701710880734
1761476324526939000,4.81293896484375,0.03651157531738281,-0.028356910434365272,-0.021252649653423578
1761476324536972000,4.822971923828125,0.03730769413113594,-0.016104966300353407,-0.011259754758886992
1761476324547005000,4.8330048828125,0.034656887361407276,-0.00559007509201765,-0.0028344379746355116
1761476324557039000,4.8430390625,0.02585340318083763,0.005438464726880193,0.01580700626708567
1761476324567072000,4.853072021484375,0.01747135928273201,0.024917364439740776,0.032199685201328244
1761476324577106000,4.86310595703125,-0.001703296786546707,0.034240926971659064,0.02982725698156282
1761476324587138800,4.873138916015625,0.004558101695775986,0.020429697631672024,0.029583292157854883
1761476324597172000,4.883171875,0.03313186975121498,0.01856068888939917,0.01997735075429082
1761476324607206100,4.8932060546875,0.05273790297508239,0.008852291758358478,0.0056293841890990735
1761476324617239000,4.903239013671875,0.07476093421280383,0.008000862560793756,-0.010747439588885754
1761476324627273000,4.91327294921875,0.06327507908046245,0.0005813800845295191,-0.02210369525849819
1761476324637305900,4.923305908203125,0.054174073258042334,-0.011452464319393039,-0.019546302393265068
1761476324647339000,4.933339111328125,0.023068156376481054,-0.012649784345179795,-0.01162394842877984
1761476324657373000,4.943373046875,0.0060118076354265205,-0.014640812031924723,-0.0005850150800310075
1761476324667406000,4.953406005859375,-0.001474164205789566,-0.016100655451416968,0.008782039533741771
1761476324677440000,4.96343994140625,0.004781973579525947,-0.017064532047510145,0.011939571982901543
1761476324687473200,4.97347314453125,0.009109189128875731,-0.017019889188185332,0.0056152460658922786
1761476324697506000,4.983506103515625,0.027211247530579564,-0.0141397306419909,-0.0010190225831232965
1761476324707540000,4.9935400390625,0.0381458985209465,-0.02837378850392997,-0.014417214142810553
1761476324717572900,5.00357275390625,0.043860769036412235,-0.04220364947915077,-0.02062896479712799
1761476324727606000,5.01360595703125,0.040000586476922034,-0.04190371668450534,-0.011246493418514728
1761476324737640000,5.023639892578125,0.027614567634463308,-0.0454321100063622,-0.000008694763109087944
1761476324747673000,5.033673095703125,0.018495441633462905,-0.031220117845758795,0.005889569495245814
1761476324757707000,5.04370703125,0.004272270491719246,-0.024748583744093774,0.01888877006629482
1761476324767740000,5.053739990234375,0.00006897358298301697,-0.02035845902636647,0.016844185561407356
1761476324777772800,5.063772705078125,0.008597147953510284,-0.014777517088875173,0.01917571551520377
1761476324787807000,5.073806884765625,0.03194470579326152,-0.019821867931634186,0.01283060253849253
1761476324797840000,5.08383984375,0.05740004956722259,-0.012171207047998905,0.013908004245348275
1761476324807874000,5.0938740234375,0.04754091885387897,0.0013896277274936437,0.011490038117114455
1761476324817907200,5.1039072265625,0.023902853634953498,0.0007469459097832441,0.015945830215886234
1761476324827940000,5.113940185546875,0.01657587174773216,0.006905249343812465,0.015709884301852432
1761476324837974000,5.12397412109375,-0.0042407063096761705,0.003820508136227727,0.010928458711598067
1761476324848007000,5.1340068359375,-0.004575052830576897,0.015602569736167788,0.010650719482451677
1761476324858041000,5.144041015625,0.01872749682366848,0.007455649768188595,-0.0018107940153218804
1761476324868074000,5.154073974609375,0.02857084544599056,-0.004089095944538712,-0.009937949836906046
1761476324878107100,5.164107177734375,0.05130290173590183,-0.001905249099433422,-0.021851638459879905
1761476324888140800,5.174140869140625,0.05745265653729439,-0.004308291653171182,-0.021374230206478387
1761476324898174000,5.184174072265625,0.052097266983985896,-0.011579013308510184,-0.023768304002471267
1761476324908207900,5.194207763671875,0.04254968643784523,-0.02043744254671037,-0.020613420168124136
1761476324918241000,5.204240966796875,0.024019173491001126,-0.04055763583779335,-0.025308226920850573
1761476324928274000,5.21427392578125,0.023451602736115455,-0.039246334043517704,-0.015783369663171468
1761476324938308000,5.22430810546875,0.019582067826390267,-0.035271804389357564,-0.002556406484544277
1761476324948341000,5.234341064453125,0.0167266783952713,-0.014398746904358268,0.01054934146720916
1761476324958375000,5.244375,0.010732406416535377,0.00823554809950292,0.010778035656549036
1761476324968408000,5.254407958984375,0.016551321828365325,0.004160407615080476,0.010561415497492998
1761476324978441000,5.26444091796875,0.027621581897139546,0.006064487670734525,0.01626821230435744
1761476324988475100,5.27447509765625,0.026731939581036566,-0.011781184817105531,0.005060845319833606
1761476324998508000,5.284508056640625,0.03514788574874401,-0.03629837095811963,-0.002582910898979753
1761476325008542000,5.2945419921875,0.0586982726842165,-0.0526454754512757,-0.008029138807207346
1761476325018574800,5.304574951171875,0.05366846182346344,-0.026728359384462236,-0.0005864398521371186
1761476325028608000,5.31460791015625,0.04337912299931049,-0.009755158882215618,0.01252276043202728
1761476325038642000,5.324641845703125,-0.0007744915038347244,0.014223974859341978,0.037744642509985715
1761476325048675000,5.334675048828125,-0.041809097203612325,0.02011062174513936,0.0604389971380122
1761476325058709000,5.344708984375,-0.05069558349251747,0.01142966796569526,0.05079999371506273
1761476325068742100,5.3547421875,-0.018577859219908715,-0.0068630907025188205,0.029711813908349722
1761476325078775000,5.364775146484375,0.039159459477663035,-0.03529350476451218,0.009781279704160989
1761476325088809000,5.37480908203125,0.09063537969291209,-0.04453786458037794,-0.015236604234296828
1761476325098841900,5.384841796875,0.10788286709189414,-0.046622488834708924,-0.027269571855384856
1761476325108876000,5.3948759765625,0.0738297908425331,-0.02717442265152931,-0.033093419170659034
1761476325118909000,5.404908935546875,0.019992986714839935,-0.0224224058188498,-0.025817254155222326
1761476325128942000,5.414942138671875,-0.02324526650905609,-0.006684300069510937,-0.016991886936407536
1761476325138976000,5.42497607421875,-0.0344902986228466,-0.00032565175779163835,-0.014369246815238147
1761476325149009000,5.4350087890625,-0.006699789899587631,-0.003832490834966302,-0.010017554411757737
1761476325159041800,5.445041748046875,0.049396191331744194,0.00013962766639888285,-0.019025237661227584
1761476325169076000,5.455075927734375,0.07635492540597916,-0.012588555677235125,-0.027424031764734534
1761476325179109000,5.465109130859375,0.09885317294001579,-0.02004325559735298,-0.02683768324414268
1761476325189143000,5.47514306640625,0.07377075413167476,-0.020799480792135,-0.008113109029922634
1761476325199176200,5.48517626953125,0.02682663212716579,-0.004515212402120232,-0.0012293043329380453
1761476325209209000,5.495208984375,-0.02584288178682327,0.002818929878249764,0.009534191341605037
1761476325219243000,5.505242919921875,-0.04099076655805111,0.013797712271288037,0.030325835887156424
1761476325229276000,5.51527587890625,-0.026236265018582342,0.013173442893102764,0.02808620373420417
1761476325239310000,5.52531005859375,0.02069032132923603,0.0037461277257651087,0.014671791692078112
1761476325249343000,5.535343017578125,0.06377309173047542,0.00011025544144213199,-0.004992255329340696
1761476325259376000,5.545376220703125,0.10212240386903286,-0.005058014041930437,-0.013489230844005941
1761476325269409800,5.555409912109375,0.09545476267337799,-0.021217852334678173,-0.023087135071586815
1761476325279443000,5.56544287109375,0.051367199143767354,-0.01921959118954837,-0.00839526870585978
1761476325289477000,5.57547705078125,-0.0026350246787071228,-0.01759410887956619,0.012829835353512316
1761476325299510000,5.585510009765625,-0.027649054425954816,-0.010314911656826733,0.030466486466862258
1761476325309543000,5.59554296875,-0.033240006300807,-0.01057816570289433,0.020255053450819103
1761476325319577000,5.6055771484375,-0.00770107589662075,-0.018448387621343133,0.016410031927842645
1761476325329610000,5.61560986328125,0.03147591923773289,-0.02529145844914019,-0.00215873067015782
1761476325339644000,5.625643798828125,0.06259001942574978,-0.043106224342063064,-0.00804820883385837
1761476325349677000,5.635677001953125,0.07502163097560405,-0.05346724016293883,-0.011554043264035134
1761476325359710000,5.6457099609375,0.0659177025437355,-0.037306305891647934,0.0026630269304849206
1761476325369744100,5.655744140625,0.016100070929527283,-0.025423195070028305,0.0001381480953656137
1761476325379777000,5.665777099609375,-0.00395838223695755,-0.021331468776986003,0.009230203426349908
1761476325389810200,5.67581005859375,-0.00442541522681713,-0.00853730752505362,0.009073314097896218
1761476325399843800,5.68584375,0.01036883380115032,-0.012199337163940071,0.0032056641735136505
1761476325409877000,5.695876953125,0.04074877449572086,-0.011809534128755331,-0.00007253551324829458
1761476325419911000,5.705910888671875,0.07697218052148819,-0.0021799743875861167,-0.009798066442180424
1761476325429944000,5.715944091796875,0.06727145524024963,-0.0067214902747422456,0.00045912367803975935
1761476325439977000,5.72597705078125,0.036463644522428514,-0.013134206861257552,0.013287004536483436
1761476325450011100,5.73601123046875,-0.007250409519672393,-0.002106470759958029,0.022565266621951012
1761476325460044000,5.7460439453125,-0.026896190232038496,0.009252177796140312,0.02151630555829033
1761476325470078000,5.756077880859375,-0.009452888000011444,0.014260361346974969,0.019428612564038484
1761476325480110800,5.76611083984375,0.022364976543188093,0.004724690434336662,0.0027774105577729642
1761476325490144000,5.77614404296875,0.0518225416958332,-0.009184519387409091,-0.012023323009908198
1761476325500178000,5.786177978515625,0.07338087803125382,-0.00907163359746337,-0.016778353783581404
1761476325510211000,5.796211181640625,0.07312310387790202,-0.0011561842978000641,-0.018539591302443294
1761476325520244700,5.80624462890625,0.03739069623947144,-0.003190978061035275,-0.01931793699748814
1761476325530278000,5.81627783203125,0.010762217032909393,-0.007031140745803713,-0.007408047766797244
1761476325540310800,5.826310791015625,-0.002115384718775749,-0.023436551297456025,0.000478266769926995
1761476325550345000,5.836344970703125,-0.003776595929265022,-0.02705890651308,-0.0026712833021767437
1761476325560377900,5.8463779296875,0.020461773270368574,-0.039956235878542065,0.003973251012526453
1761476325570412000,5.856412109375,0.03690963472425937,-0.027920345648005603,-0.0011959135199896991
1761476325580445000,5.86644482421875,0.04617021502256393,-0.014871625113114713,-0.00344308965858072
1761476325590477800,5.876477783203125,0.05095218860208988,-0.005463599168136716,0.01339234634079039
1761476325600511700,5.88651171875,0.029099253234267233,-0.001247369712591171,0.009023538405727595
1761476325610545000,5.896544921875,0.012345102310180663,0.006503463609889149,0.008792104270029813
1761476325620577800,5.906577880859375,0.019971943926811217,-0.008842135690525174,0.010538217284996062
1761476325630612000,5.916612060546875,0.01054535941183567,-0.024609102208167314,0.005357015254814177
1761476325640644900,5.926644775390625,0.035981998485326766,-0.0417265334866941,-0.0030414317888207733
1761476325650678800,5.9366787109375,0.04690963521301746,-0.02597593358196318,0.0034626346092671155
1761476325660711700,5.946711669921875,0.03628945699930191,-0.01236621816344559,0.004831548342294991
1761476325670744800,5.956744873046875,0.016547814697027204,0.0015253829363733528,0.0122049266545102
1761476325680779000,5.966779052734375,-0.00934767405986786,0.008125146527588367,0.020363427462428807
1761476325690812000,5.97681201171875,-0.018490765458345413,-0.002900762942805886,0.024457473576720803
1761476325700846000,5.98684619140625,-0.010887304717302322,-0.004990428698435426,0.029654603828396648
1761476325710879000,5.99687890625,0.017194880428910254,-0.0205395877469331,0.03126640467289835
1761476325720912000,6.006911865234375,0.028968904852867124,-0.03557524431534111,0.01187339314520359
1761476325730945800,6.01694580078125,0.03340893312692642,-0.031549861256778236,-0.0015009426148608325
1761476325740979000,6.02697900390625,0.03982522991001606,-0.032494229434803124,-0.011907861670386046
1761476325751011800,6.03701171875,0.029960838499665257,-0.029604426277428864,-0.021952797279413787
1761476325761046000,6.0470458984375,0.02729600320458412,-0.03226977302916348,-0.029835458554327485
1761476325771079000,6.057078857421875,0.0339022696018219,-0.012644742843881248,-0.028139632688183334
1761476325781112800,6.06711279296875,0.04273965605199337,-0.00197962950989604,-0.02363366303844377
1761476325791145700,6.077145751953125,0.03392740404307842,0.0044694004990160465,-0.01133190667964518
1761476325801179000,6.087178955078125,0.02557984693646431,-0.0006061491996049881,-0.008082275500241667
1761476325811212800,6.097212890625,0.019622399836778638,-0.015862681977078318,-0.01050681749973446
1761476325821246000,6.107245849609375,0.025941665986180303,-0.026870325138419866,-0.004218384880013764
1761476325831279900,6.11727978515625,0.027018355306982992,-0.031462767495214934,-0.003266728444676846
1761476325841312800,6.127312744140625,0.029879005435109136,-0.017123568758368492,-0.0019475538711994885
1761476325851345700,6.137345703125,0.016853519645333288,0.008574351599812508,0.019535908863414077
1761476325861379800,6.1473798828125,0.01054185228049755,0.01468837750069797,0.02765433338927105
1761476325871413000,6.1574130859375,-0.00460018727183342,0.025286197752133012,0.03334644408365711
1761476325881447000,6.167447021484375,0.007328150931000709,0.009372662370651959,0.017843918922170996
1761476325891480000,6.17747998046875,0.0330482831209898,-0.010120265867561101,-0.015186335351783781
1761476325901513000,6.187512939453125,0.06373626685142517,0.0014274024546146393,-0.0033239933235570786
1761476325911547000,6.197546875,0.06047405018508434,-0.02869593313038349,-0.009077953740395606
1761476325921579800,6.207579833984375,0.04479775762557983,-0.024365210449695585,-0.007966905492264777
1761476325931613000,6.217613037109375,0.017287819409370422,-0.015009133887663484,0.0055936735549010335
1761476325941646800,6.227646728515625,-0.012798691296577453,-0.019775690702348945,0.017674937297124414
1761476325951680000,6.237679931640625,-0.01700783342421055,-0.008428001931682229,0.02151999535271898
1761476325961713700,6.247713623046875,-0.016600421667098998,-0.017130144629627465,0.019999690450262276
1761476325971746800,6.257746826171875,0.0005693243205547332,-0.026943901831284162,0.010100647851638495
1761476325981779700,6.26777978515625,0.03525836038589477,-0.016592895947769283,0.012426953641045837
1761476325991814000,6.27781396484375,0.04706511803567409,-0.02182685107849538,0.00921199191622436
1761476326001846800,6.2878466796875,0.037053427109122274,-0.02418802725188434,0.005888272587303072
1761476326011880000,6.2978798828125,0.035569326031208034,-0.024815949891880153,-0.0007610657666809856
1761476326021913900,6.307913818359375,0.015526070433855056,-0.026662892932817338,-0.0005253025157377124
1761476326031947000,6.317947021484375,0.013588964891433715,-0.027388503793627023,-0.0040107882776297624
1761476326041981000,6.32798095703125,0.011648352217674254,-0.022739070552587507,0.007587733448948711
1761476326052013800,6.338013916015625,0.014191606959700584,-0.003915054551884531,0.01722266348497942
1761476326062046700,6.348046630859375,0.015676877081394196,-0.01159830253086984,0.01642572268731892
1761476326072081000,6.358080810546875,0.014001052823662758,-0.015164616710320114,0.015009097355045378
1761476326082114000,6.368114013671875,0.016073767444491384,-0.011340674507990478,0.016414287977851928
1761476326092147700,6.378147705078125,0.021750644037127495,-0.00673434975631535,-0.0016045125871896743
1761476326102180900,6.388180908203125,0.028631635722517965,-0.007006663891673088,-0.0011908537523820995
1761476326112213800,6.3982138671875,0.034918753167986864,-0.000445551810413599,-0.007097739708609879
1761476326122248000,6.408248046875,0.01936228759586811,0.011346446661651135,-0.007243048197124153
1761476326132280800,6.41828076171875,0.01471592309474945,0.006753127522021531,-0.0008069142024032771
1761476326142314000,6.42831396484375,0.016664134553074837,-0.0023385990153998136,-0.0052979054787196216
1761476326152348000,6.438347900390625,0.022058687072992324,-0.01333287123851478,-0.01123874850347638
1761476326162381000,6.448381103515625,0.019686112722754476,-0.018379048712179064,-0.018849808029085396
1761476326172414000,6.4584140625,0.02822831561863422,-0.0254326204854995,-0.019492544645722955
1761476326182447900,6.46844775390625,0.027637363988161086,-0.023027312909439206,-0.019428101107385007
1761476326192480800,6.478480712890625,0.02900748329758644,-0.01830072277896106,-0.02034185495143756
1761476326202515000,6.488514892578125,0.004774374794960022,-0.017373086540028452,-0.006908537279441952
1761476326212547800,6.4985478515625,0.00267652573287487,-0.01906403530165553,0.0005299056256189942
1761476326222581000,6.5085810546875,0.0020779753178358077,-0.018457155449688435,0.005068188376072794
1761476326232614700,6.51861474609375,0.013585457760095596,-0.01653743943348527,0.0046867330441251395
1761476326242647800,6.528647705078125,0.016716741523146627,-0.01965959004200995,-0.000603610182646662
1761476326252680700,6.5386806640625,0.04111994589567184,-0.02263261450342834,-0.008079279825557022
1761476326262715000,6.54871484375,0.03980126451253891,-0.013036153314262628,-0.009979176896438001
1761476326272747800,6.558747802734375,0.0408779538333416,-0.010408289028704165,-0.011264503999240696
1761476326282782000,6.568781982421875,0.027749007669091223,-0.006180223004892468,-0.004449892080947757
1761476326292814800,6.57881494140625,0.014460487028956413,-0.001998188079893589,0.0006260412101633847
1761476326302847700,6.58884765625,0.009555763852596282,-0.002245002447813749,0.007210698563791811
1761476326312882000,6.5988818359375,0.009721768069267273,-0.0016606997538357972,0.01203353387666866
1761476326322914800,6.608914794921875,0.006283025792241096,-0.0050687546316534274,0.022895941614732147
1761476326332948000,6.618947998046875,-0.0020890812337398526,-0.008251330190524458,0.023837515047471967
1761476326342982000,6.62898193359375,0.0029997663378715515,-0.007409691734611988,0.02656588056543842
1761476326353015000,6.63901513671875,-0.014682605347037315,-0.005169292396679521,0.028747699850238857
1761476326363048000,6.6490478515625,-0.01563186889588833,-0.015626535133644936,0.03679826503796503
1761476326373081900,6.659081787109375,0.003310147461295128,-0.025628654514253137,0.01906282972525805
1761476326383114800,6.66911474609375,0.029902970832586286,-0.01873831047862768,-0.006845646377373486
1761476326393148000,6.67914794921875,0.03094458884000778,-0.021429230063036084,-0.013121219515521079
1761476326403181800,6.689181884765625,0.033815175840258595,-0.016718129762634634,-0.02046862313626334
1761476326413215000,6.699215087890625,0.03309095321893692,-0.018213117560744285,-0.028665099600702522
1761476326423248600,6.70924853515625,0.02324175937771797,-0.0049812955439090725,-0.029291323473956434
1761476326433281800,6.71928173828125,0.02179039152562618,-0.008729688291996716,-0.016666289977543054
1761476326443314700,6.729314697265625,0.011054477977752684,-0.014047741509601473,-0.015959657811839133
1761476326453348900,6.739348876953125,0.01676934849321842,-0.014096110695973038,-0.014293459898978471
1761476326463381800,6.7493818359375,0.01934475193917751,-0.02309526357911527,-0.004749623946193606
1761476326473415000,6.759414794921875,0.03329495135843753,-0.020725684903562067,0.0029600371156819163
1761476326483449000,6.769448974609375,0.03242109113335609,-0.011133899889513849,0.005854205920919776
1761476326493478400,6.779478515625,0.014333061257004736,-0.006207768598943948,0.015964845443610102
1761476326503511600,6.789511474609375,-0.003159340813755989,0.00012384557537734508,0.025597857517190275
1761476326513545500,6.79954541015625,0.0026671733826398847,-0.0022257862906903026,0.03257717674421146
1761476326523578400,6.809578369140625,-0.002303016245365143,-0.008515607149899006,0.029289588174596426
1761476326533611300,6.819611328125,0.005445405924320221,-0.0015560703355818985,0.017516787593346086
1761476326543645400,6.8296455078125,0.027125907334685322,-0.0007866933982819318,-0.002229695280827582
1761476326553678600,6.8396787109375,0.041032267612218856,0.003805602828040719,-0.014034060044120996
1761476326563712300,6.849712158203125,0.04344342040717602,-0.002622019066661596,-0.019589904072973875
1761476326573745400,6.859745361328125,0.03883037365376949,-0.007202844050899148,-0.009783873520046471
1761476326583778300,6.8697783203125,0.016101239973306654,-0.01727254877500236,-0.005199614469707012
1761476326593812500,6.8798125,-0.0037912089765071866,-0.021768764215707778,-0.002191317765507847
1761476326603845400,6.889845458984375,-0.00812719235420227,-0.016190671822428702,-0.006260960090905428
1761476326613878500,6.89987841796875,0.007274374917149543,-0.018770897573977707,-0.00036061347331851716
1761476326623912400,6.909912353515625,0.0056219315350055695,-0.019645999908074734,0.0027943434262648224
1761476326633945300,6.9199453125,0.018784779968857763,-0.017381050650775432,0.007241038903128355
1761476326643978200,6.929978271484375,0.020419103172421453,-0.022989465117081997,0.003703512426745146
1761476326654012400,6.940012451171875,0.002586509361863136,-0.0210303669385612,0.01312993254493922
1761476326664045300,6.95004541015625,0.004651625198125839,-0.020010668502002952,0.014807565167266874
1761476326674078500,6.960078369140625,0.01257657297849655,-0.02785721728391945,0.0011220445661805569
1761476326684112400,6.9701123046875,0.027690555480122565,-0.01752659660130739,0.002903301959764212
1761476326694145500,6.9801455078125,0.03831657891273498,-0.00757774177789688,-0.0005301430876366793
1761476326704178400,6.990178466796875,0.033685411980748176,-0.021559797640144825,-0.014700049672182648
1761476326714212400,7.00021240234375,0.021731939336657524,-0.006545768381655216,0.0032181765952147543
1761476326724245200,7.010245361328125,0.007382511466741562,-0.013348434133827686,0.005473956165369599
1761476326734278400,7.0202783203125,0.008290858483314513,-0.010416180074214935,0.005821929352823644
1761476326744312600,7.0303125,-0.006689268505573272,-0.002047434049099684,0.017921970860753207
1761476326754345500,7.040345458984375,-0.01225683950483799,0.005794950014352798,0.024246643837634474
1761476326764379400,7.05037939453125,0.006259644916653633,0.004304492260888219,0.02060445141037926
1761476326774412300,7.060412353515625,0.0042658407509326935,0.009716288176551461,0.012807239929214119
1761476326784445400,7.070445556640625,0.023541034585237503,-0.009665873163565993,-0.0024063304893672463
1761476326794479400,7.080479248046875,0.04360650201439857,-0.020769743240997195,-0.011232501425780356
1761476326804512500,7.090512451171875,0.05143208107352257,-0.02846870024576783,-0.007399900992959737
1761476326814545400,7.10054541015625,0.030651158851385116,-0.016677140165120362,-0.009814560919255018
1761476326824579600,7.11057958984375,0.00431260250210762,-0.010727657176181673,0.010031363741401582
1761476326834612500,7.120612548828125,-0.02072130098938942,-0.009636647069081664,0.01713354216311127
1761476326844645400,7.130645263671875,-0.0321375980168581,-0.011508943746984005,0.016011059205513448
1761476326854679300,7.14067919921875,0.0004471592456102371,-0.02116458777748048,0.011750552216824143
1761476326864712400,7.15071240234375,0.010907178461551665,-0.010745338963344692,0.005030504980497062
1761476326874745300,7.160745361328125,0.038737434673309326,-0.017354893296211957,0.0020556356218643487
1761476326884779500,7.170779541015625,0.05761164649128914,-0.022765154841914773,0.0035247217937372623
1761476326894812400,7.1808125,0.023795886129140853,-0.026346739655733108,0.005664126708917319
1761476326904845600,7.190845458984375,-0.0008984101444482803,-0.024388591325283048,0.005613693429622799
1761476326914879200,7.200879150390625,-0.006015899288654327,-0.025867797032371163,0.01346910137142986
1761476326924912400,7.210912353515625,-0.006646598407626152,-0.007214096097275614,0.012689860627241431
1761476326934945300,7.2209453125,0.013978840991854667,0.0031806027974933385,0.0017943178045563399
1761476326944979500,7.2309794921875,0.022187866410613058,0.008561492118239403,-0.0030246450508013365
1761476326955012400,7.241012451171875,0.04133680351674557,-0.002012947257608175,-0.01246909401603043
1761476326965045500,7.25104541015625,0.04047229564189911,-0.015698577456548807,-0.017006646114122122
1761476326975079400,7.261079345703125,0.028234160837531087,-0.02920212908685207,-0.017492146342433987
1761476326985112300,7.2711123046875,0.03155716778039932,-0.02887888848185539,-0.012141487763170151
1761476326995145200,7.281145263671875,0.008222469422221183,-0.025044132624566555,-0.0005214665908366441
1761476327005179400,7.291179443359375,-0.015736498314142228,-0.0017416560355573891,0.012163937056995927
1761476327015212300,7.30121240234375,-0.03028232553899288,0.005910831478983163,0.025051475680805742
1761476327025245400,7.311245361328125,-0.03122399030327797,0.015190189542993903,0.024008962624240664
1761476327035279600,7.321279541015625,-0.023483751440048217,0.007940291479974985,0.02011277716960758
1761476327045312500,7.3313125,-0.002719195830821991,0.0025982728648930786,0.009331124783866107
1761476327055345400,7.341345458984375,0.02926759553849697,-0.024154782569408416,0.008146335446089505
1761476327065379300,7.35137939453125,0.05961772561669349,-0.028772724693641064,-0.0003459273608401417
1761476327075412500,7.36141259765625,0.04419979173243046,-0.020136925230175254,-0.005011800280027091
1761476327085445400,7.3714453125,0.024897709891200066,-0.021794994635507464,-0.015442008879594503
1761476327095479600,7.3814794921875,0.007544424030184745,-0.030863413362577554,-0.02056954449377954
1761476327105512400,7.391512451171875,0.0050075990289449685,-0.026168825805559754,-0.022660068765934554
1761476327115545600,7.401545654296875,0.014583236625790596,-0.017735563176870344,-0.015933427392039446
1761476327125579300,7.411579345703125,0.019527122768759727,-0.022115751022472978,-0.016735957680270076
1761476327135612400,7.4216123046875,0.02223521268367767,-0.01936484487913549,-0.004743449933733791
1761476327145645300,7.431645263671875,0.026737784799933433,-0.022459815219789743,-0.0017260018086992202
1761476327155679500,7.441679443359375,0.024221418064832686,-0.007864961221441626,0.003514145600795746
1761476327165712400,7.45171240234375,0.0438449869453907,0.0169292152300477,0.01232360286442563
1761476327175745500,7.46174560546875,0.027531565526127812,0.018129457865282892,0.025201314213965088
1761476327185778400,7.4717783203125,-0.013922726890444754,0.0010802695173770189,0.030752409002464263
1761476327195812400,7.481812255859375,-0.025325579914450645,-0.012779109813272953,0.02610345068546012
1761476327205845200,7.49184521484375,-0.0027788170635700223,-0.007302358902618288,0.019431206379923967
1761476327215878400,7.50187841796875,0.032651392757892604,-0.009234934400394558,-0.007094086446799337
1761476327225912300,7.511912353515625,0.04581307214796543,-0.0009013327538967132,-0.015891962870489804
1761476327235945500,7.521945556640625,0.061085460081696505,0.0030317689113318917,-0.021188187848776577
1761476327245978400,7.531978271484375,0.038355157357454296,-0.000562383123114705,-0.018299992126598955
1761476327256012500,7.542012451171875,0.005293430233001709,-0.006814356189966201,-0.00876231191996485
1761476327266045400,7.55204541015625,-0.018204349732398987,-0.033825478038564324,-0.0019095051494427025
1761476327276078300,7.562078369140625,-0.009233692291378975,-0.027914208168163895,0.0078060889073647555
1761476327286112300,7.5721123046875,-0.00506897382736206,-0.017531418906897304,0.009282645999640226
1761476327296145400,7.5821455078125,0.011824877828359602,-0.0074997081056237215,0.014931721269898116
1761476327306178300,7.59217822265625,0.012698738053441046,-0.01360628135241568,0.006058240593038499
1761476327316212500,7.60221240234375,0.008182721933722496,-0.034472909096628424,0.015311934492830186
1761476327326245400,7.612245361328125,0.013398995277285575,-0.04728599424473941,0.008616017050761728
1761476327336278500,7.622278564453125,0.04050152173638344,-0.07081738421879709,-0.006020210137590766
1761476327346312400,7.6323125,0.049828153008222575,-0.0572347029376775,-0.017198953815829008
1761476327356345300,7.642345458984375,0.038646249258518214,-0.002206716264039278,-0.007811057343427091
1761476327366378200,7.652378173828125,0.006316928061842918,0.041929654843360184,0.0010925079444423318
1761476327376412400,7.662412353515625,-0.015842296776175498,0.062340501644089816,0.02420457652788609
1761476327386445600,7.672445556640625,-0.027977555727958677,0.03292531432844698,0.03199866447020322
1761476327396478500,7.682478515625,-0.020501520758867263,-0.019573519193753598,0.025986254046577957
1761476327406511400,7.692511474609375,0.017207155388593673,-0.022786197629943487,0.017044201645534485
1761476327416545300,7.702545166015625,0.051775779944658276,-0.017482830524817108,0.0020775003938004375
1761476327426578400,7.712578369140625,0.06944120049476624,-0.011223112542927264,-0.016582739879935977
1761476327436611300,7.722611328125,0.0522451510220766,0.0022489479705691336,-0.012934062912967056
1761476327446645500,7.7326455078125,0.004047814086079597,-0.0030422172401100393,0.003948956821486354
1761476327456678400,7.742678466796875,-0.03936930283606052,-0.004558320891484618,0.009445088286045938
1761476327466711600,7.752711669921875,-0.040000586476922034,-0.010866261929273605,0.0015673589145764708
1761476327476745500,7.762745361328125,0.009646364745497703,0.0013294950380921362,-0.016117369124200195
1761476327486778600,7.772778564453125,0.06650280895531177,0.01628806778229773,-0.03001052286028862
1761476327496814600,7.782814697265625,0.0822433989226818,0.02688669175133109,-0.010606423682998866
1761476327506848500,7.7928486328125,0.05534662416875362,0.015523001693934202,0.0017343860445544123
1761476327516881400,7.80288134765625,0.0009235445857048034,-0.025877076317369935,0.01187036093790084
1761476327526914600,7.81291455078125,-0.02839256626963615,-0.06779628283195197,0.015730525231081992
1761476327536948500,7.822948486328125,-0.03949906669557094,-0.08920103604085743,0.009758154556900262
1761476327546981600,7.832981689453125,-0.03820961140692234,-0.08487308983914553,-0.0007830766690894961
1761476327557014500,7.8430146484375,-0.005353635987639427,-0.03791033619940281,-0.0010050305903889238
1761476327567047700,7.853047607421875,0.046082536739110946,0.024055998370051384,-0.004855075348354876
1761476327577081300,7.863081298828125,0.07616027961671352,0.05931479714736342,-0.003168583566136658
1761476327587114500,7.873114501953125,0.07290273912549018,0.06029883974865079,-0.00585349353486672
1761476327597147400,7.8831474609375,0.04185118277966976,0.012414733480289578,-0.010525102075096219
1761476327607181600,7.893181640625,0.01905073742866516,-0.04299669955298304,-0.005961027296259999
1761476327617214500,7.90321435546875,0.012991583520174026,-0.05846329488456249,-0.008396291619166732
1761476327627247600,7.91324755859375,0.012134674429893492,-0.06026829847991466,0.011725691770203411
1761476327637281500,7.923281494140625,-0.007458499312400817,-0.050316228786110875,0.02619304693136364
1761476327647314400,7.933314453125,-0.032197803771495816,-0.037374841083213685,0.03919334348095581
1761476327657347300,7.943347412109375,-0.04484101224541664,-0.011549275757372378,0.0425734509059228
1761476327667380500,7.95338037109375,-0.033387305817008016,0.014462678986042737,0.03260426568053663
1761476327677414400,7.963414306640625,-0.006792728880047798,0.027218554054200646,0.013684278492070734
1761476327687447600,7.973447509765625,0.045727731952071186,0.04448080063089728,0.0048694874661974604
1761476327697480400,7.98348046875,0.07688099510669708,0.0402744349822402,0.011356730593647807
1761476327707514600,7.9935146484375,0.06090951899290085,0.0055976008113473655,0.008009557323902844
1761476327717547500,8.003547607421876,0.018731588476896283,-0.04642075571753084,0.011501125766709447
1761476327727580700,8.01358056640625,-0.034999417188763614,-0.08508161802329123,-0.0035199360207654536
1761476327737614300,8.0236142578125,-0.04671148229241371,-0.09284078078269958,-0.02221859034243971
1761476327747647500,8.0336474609375,-0.008133622094988822,-0.06089117961861193,-0.04107700180308893
1761476327757680400,8.043680419921875,0.03269873903095722,-0.019822890844941137,-0.03365916329463944
1761476327767714600,8.053714599609375,0.07013268989026546,0.016627455804497003,-0.01576608973480761
1761476327777747500,8.06374755859375,0.06434592318236827,0.028691768411919474,-0.02114405644610524
1761476327787780600,8.073780517578125,0.049907063463330265,0.02437894671410322,-0.010179887100309133
1761476327797813500,8.0838134765625,0.02170972750484943,0.012527911531180142,-0.00204714178815484
1761476327807847400,8.093847412109374,-0.006079027652740478,-0.003932955534756183,0.008575703306682407
1761476327817880300,8.10388037109375,-0.019395605343580244,0.005049757670238614,0.02273841296546161
1761476327827913500,8.11391357421875,-0.01670797369480133,-0.008209902201592921,0.043202761785406614
1761476327837947600,8.12394775390625,-0.009100421300530433,-0.021328984558954833,0.052058779870811846
1761476327847980500,8.13398046875,0.011208791756629944,-0.03223660141192376,0.028768779170885682
1761476327858013400,8.144013427734375,0.017017185774445533,-0.027015944154188034,-0.0051029308958910405
1761476327868046600,8.154046630859375,0.02463818217217922,-0.009569427051767707,-0.013285324036050587
1761476327878080500,8.16408056640625,0.03765665369927883,0.0021926877386867997,-0.024309132880903778
1761476327888113400,8.174113525390625,0.03394435517787933,0.002105813172832131,-0.02008760619573295
1761476327898146300,8.184146240234375,0.025001754787564275,-0.012501608046144246,-0.004588789094984531
1761476327908180500,8.194180419921874,0.014112696504592894,-0.0028958675719797607,0.008449665774218738
1761476327918213600,8.204213623046876,0.0214759187489748,0.0013386281926184892,0.00810066967345774
1761476327928246500,8.21424658203125,0.00038344635963439937,-0.007361614809185266,0.007513170375395566
1761476327938279400,8.224279541015624,-0.02341302429139614,-0.025469664560258388,0.00011334244767203926
1761476327948313600,8.234313720703126,-0.02612228325009346,-0.03266746710985899,0.006461743360012769
1761476327958346500,8.244346435546875,-0.01656593487560749,-0.041666912253946066,0.003745926796365529
1761476327968379400,8.25437939453125,0.006167874979972839,-0.046637174947187304,0.003648220309242606
1761476327978413600,8.26441357421875,0.025163082829117774,-0.03339278570972383,0.001896627401560545
1761476327988446500,8.274446533203125,0.026335633739829063,-0.022521336148679256,0.0012282083543948827
1761476327998479600,8.284479736328125,0.016153262421488762,-0.0069411243747919795,0.0009143748985603451
1761476328008513500,8.294513427734374,0.0026689269483089447,0.00609780541844666,0.012396083578746765
1761476328018546700,8.304546630859376,0.006707973206043243,0.0169467508867383,0.01246794323856011
1761476328028579600,8.31457958984375,0.02467266896367073,0.012662789957225322,0.011487407768610864
1761476328038612500,8.324612548828124,0.02199263609945774,-0.0003057049483060837,0.012155479755904525
1761476328048646400,8.334646484375,0.028449849414825437,-0.005583645351231098,0.010879176209773867
1761476328058679600,8.344679443359375,0.02096212400794029,-0.01565064666159451,0.01730327270682901
1761476328068712400,8.35471240234375,0.0055360068172216415,-0.020889497163146732,0.014577811532001942
1761476328078746600,8.36474658203125,-0.01004383963048458,-0.014093261151760815,0.014617540754191577
1761476328088779500,8.374779541015625,0.0048895256072282785,-0.010428016642481087,-0.0015354842052794993
1761476328098812700,8.384812744140625,0.009940963777899742,-0.013506328109279275,-0.0034791290863417086
1761476328108845600,8.394845458984374,0.015291677156090736,-0.012986395888403057,0.0005898556519299745
1761476328118879500,8.40487939453125,0.02350245614051819,-0.010098711622878908,-0.006548873654194176
1761476328128912400,8.414912353515625,0.02021802764236927,-0.009221052005514502,-0.011362813274562358
1761476328138945500,8.424945556640624,0.027418168279528615,-0.007101429503038525,-0.022129980477225034
1761476328148979500,8.4349794921875,0.03491992221176624,-0.013294804250448941,-0.027330106403585522
1761476328159012600,8.4450126953125,0.016985621592402456,-0.02246770626530051,-0.025585363361798227
1761476328169045500,8.45504541015625,0.018362170642614365,-0.024368571450561285,-0.017904544801916927
1761476328179078700,8.46507861328125,0.012692892834544181,-0.03769267486073077,-0.011843564262520522
1761476328189112300,8.4751123046875,0.012407646152377128,-0.027090251499414443,0.0011972469605505466
1761476328199145500,8.4851455078125,0.02063888340294361,-0.022543401850014924,0.005076864872872829
1761476328209178400,8.495178466796874,0.008804068702459335,-0.018181114987283944,0.016839564185217024
1761476328219212500,8.505212646484376,-0.001547229442000389,-0.006101604810729622,0.013038838461693375
1761476328229245400,8.515245361328125,0.004417816442251205,-0.0014735066186636685,0.001135452037025243
1761476328239278600,8.525278564453124,0.009357026410102843,0.0020360358722507953,0.005998016572091728
1761476328249311500,8.5353115234375,0.0186176067084074,0.004897855044156313,0.009228340262826531
1761476328259345400,8.545345458984375,0.030144962894916534,-0.0012659282825887202,-0.0004468852509744465
1761476328269378300,8.55537841796875,0.030908933004736898,0.0025417934373021126,-0.0021061054337769745
1761476328279411500,8.565411376953126,0.020911855125427245,0.005153071914240717,0.004178472994733602
1761476328289444400,8.5754443359375,0.010178279665112495,-0.0021837007146328687,0.006118957804329693
1761476328299478500,8.585478515625,-0.015085925450921057,-0.0038857553921639917,0.009066153704747558
1761476328309511400,8.595511474609374,-0.03425298273563385,-0.008927329755946994,0.022878113697096705
1761476328319548700,8.605548583984374,-0.02217559145092964,-0.032262247309833764,0.030864527607429772
1761476328329581600,8.61558154296875,-0.019846856242418286,-0.03425371338799595,0.022287089001387355
1761476328339614500,8.625614501953125,0.0022287819653749466,-0.033921851085126395,0.013237119246460496
1761476328349648400,8.6356484375,0.02328442947566509,-0.014026479525864123,-0.008617898480594157
1761476328359681500,8.645681640625,0.02686170344054699,-0.01120586914718151,-0.020996464668959377
1761476328369714400,8.65571435546875,0.044537645384669304,-0.022952932498976588,-0.035040936509240415
1761476328379747300,8.665747314453125,0.05670096138715744,-0.0311222834944725,-0.03602086919099092
1761476328389781500,8.675781494140624,0.045536008772253986,-0.03943842254951596,-0.03152755809342488
1761476328399814700,8.685814697265625,0.03962123177051544,-0.03219108176976442,-0.022972678379062562
1761476328409847600,8.69584765625,0.018880057036876677,-0.03248465788885951,-0.013131119855027644
1761476328419881500,8.705881591796874,-0.002039396873116493,-0.015730214703828096,0.008260262415651231
1761476328429914400,8.715914306640625,-0.028988778597116467,-0.00380304554477334,0.025633074961043893
1761476328439947500,8.725947509765625,-0.027682372173666953,0.001955956373363733,0.025450393604207783
1761476328449980400,8.73598046875,-0.0070709612995386115,0.00796557205170393,0.027350656001269815
1761476328460014600,8.7460146484375,0.022087328645586966,0.01075929442346096,0.0223211374014616
1761476328470047500,8.756047607421875,0.04407061239480972,0.009182838886976241,0.006710092097893357
1761476328480080600,8.76608056640625,0.051557753279805184,-0.002902954899892211,0.004779452828876674
1761476328490113500,8.776113525390626,0.03780862939059734,0.00044109483100473877,-0.012145159291289747
1761476328500145400,8.7861455078125,0.02061199539601803,0.0017187866166234016,-0.01723340407470241
1761476328510178300,8.79617822265625,0.01881985128223896,-0.0045180619463324545,-0.016498605260439215
1761476328520211500,8.80621142578125,-0.0010784428864717482,0.005309796845912933,-0.005506671124882996
1761476328530245400,8.816245361328125,0.0071522098422050475,-0.00039382162317633625,-0.002627535491995513
1761476328540278500,8.826278564453125,0.00656476534307003,-0.016281199650093912,-0.006769914260040968
1761476328550311400,8.8363115234375,0.027676526954770086,-0.03211977009922266,-0.003496244617924094
1761476328560344600,8.846344482421875,0.020056115078926084,-0.03583082651160657,-0.0003924151173792779
1761476328570378200,8.856378173828125,0.013027823877334595,-0.02728635859340429,0.008658522751927375
1761476328580411400,8.866411376953126,-0.0006038111120462417,-0.021274989349395035,0.0035880510872229932
1761476328590444300,8.8764443359375,-0.01051087262034416,-0.016081658490002156,0.006187547794822603
1761476328600477400,8.8864775390625,-0.006648936495184898,-0.018747370567917823,0.011922145924065262
1761476328610511400,8.896511474609374,0.01158931550681591,-0.029562048440426588,-0.00015546455634757875
1761476328620544500,8.90654443359375,0.027152795341610907,-0.03073664517775178,-0.00027465222291648384
1761476328630577400,8.916577392578125,0.04453296920955181,-0.03243592337630689,-0.013100377656891942
1761476328640611300,8.926611328125,0.04217150077521801,-0.018257687354832887,-0.008002634392771869
1761476328650644200,8.936644287109376,0.01899579237103462,-0.01125204637646675,-0.0007652304851450026
1761476328660677400,8.946677490234375,-0.0032931963264942166,-0.016403949246928094,0.003693045831657946
1761476328670710300,8.956710205078124,-0.013626374292373657,-0.0012179974876344202,0.008755315923597663
1761476328680744400,8.966744384765626,0.00552431637942791,0.00866590234078467,0.00852806477267295
1761476328690777300,8.97677734375,0.01794482201337814,0.007226371056959033,0.010217789691593497
1761476328700810500,8.986810546875,0.0326209976196289,-0.004926642747223377,0.004184829670283943
1761476328710843400,8.996843505859376,0.04235737873613834,-0.007060512970760464,0.006188698572292923
1761476328720877300,9.006877197265625,0.03577040156126022,-0.008886997745558619,-0.0036704686736688014
1761476328730910200,9.01691015625,0.012573650369048117,-0.013663637562841176,0.007443155612796544
1761476328740943400,9.026943359375,-0.003279167801141739,-0.022859262866154313,0.009217343944776803
1761476328750976300,9.036976318359375,0.00898117883503437,-0.012016016486287116,-0.0022080679709091783
1761476328761010400,9.047010498046875,0.010758709901571272,-0.019662877977639437,-0.008753489292692393
1761476328771043300,9.057043212890624,0.01448328338265419,-0.018023951664194463,-0.014145795056596397
1761476328781076500,9.067076416015626,0.010286416214704512,-0.019894567841663956,-0.01899732674099505
1761476328791110400,9.0771103515625,0.01852700581550598,-0.02281549678966403,-0.025582879143767057
1761476328801143300,9.087143310546875,0.030368834778666493,-0.04154978868030011,-0.029407113607041537
1761476328811176200,9.09717626953125,0.02114391031563282,-0.043224955350905654,-0.0291226706424728
1761476328821209300,9.107209228515625,0.02268178740739822,-0.028783976740017533,-0.022187519350741057
1761476328831243500,9.117243408203125,0.019724106645584105,-0.04168364419303834,-0.012613726651109755
1761476328841276400,9.1272763671875,0.01959317374229431,-0.018505378505587578,0.0003179068427532911
1761476328851309300,9.137309326171875,-0.0028320085555315015,-0.008815832205489278,0.013043624234665185
1761476328861342500,9.147342529296875,0.0016664719074964522,-0.005619593447446823,0.015132285343296826
1761476328871376600,9.157376708984375,0.0024216741889715194,-0.0035807080309838055,0.014962098141852766
1761476328881409300,9.1674091796875,0.0021317513316869733,0.0017522504948079584,0.017208379231300204
1761476328891442200,9.177442138671875,0.019342413851618764,-0.004466989346221089,0.020470358435623347
1761476328901475300,9.187475341796874,0.022190789020061493,-0.0011010931096971034,0.020583481687586752
1761476328911509500,9.197509521484376,0.010672200661897658,-0.007664981669932604,0.015757029645517468
1761476328921542400,9.20754248046875,0.007846037325263023,-0.0010082271944731474,0.01716454008957371
1761476328931575300,9.2175751953125,-0.002305938854813576,-0.00006568564735352993,0.024168975491542368
1761476328941608400,9.2276083984375,-0.005741758522391319,0.0013327099084854126,0.0258045956030488
1761476328951642600,9.237642578125,-0.012499416089057922,-0.003480462526902556,0.03578996477825567
1761476328961675500,9.247675537109375,-0.016138649374246597,-0.013442176831886171,0.032839535741135475
1761476328971708400,9.25770849609375,-0.0061813189834356306,-0.021240137231722474,0.028834245622530577
1761476328981741300,9.2677412109375,-0.00730067840218544,-0.011935425530746578,0.023224041057936847
1761476328991775500,9.277775390625,0.020351883155107497,-0.008584215406700969,-0.014366726064588874
1761476329001808400,9.287808349609374,0.03800970492064953,-0.023976284197345373,-0.037049024928640574
1761476329011841300,9.29784130859375,0.05793722518384456,-0.032897476473450656,-0.04631497552180663
1761476329021874400,9.30787451171875,0.05932254206240177,-0.04206621376983821,-0.044113538221083576
1761476329031908600,9.31790869140625,0.03632160570323467,-0.0367241220895201,-0.0453808182105422
1761476329041941500,9.32794140625,0.01945288848876953,-0.02658405554294586,-0.02563426227113232
1761476329051974700,9.337974609375,-0.006997896063327789,-0.011056889130547642,-0.01608054424514994
1761476329062007600,9.348007568359375,-0.016707389172911643,-0.003416968836635351,-0.0035177988626062867
1761476329072041500,9.35804150390625,-0.011477671825885771,-0.0012352408833801746,0.011327285303454846
1761476329082074400,9.368074462890625,0.009163549664616584,0.0005138678062707186,0.013295279174484313
1761476329092107500,9.378107421875,0.03355272551178932,0.0022943945474922654,0.01435529135512188
1761476329102140400,9.388140380859374,0.03191489517688751,0.008329363862797617,0.017540004072152077
1761476329112174600,9.398174560546876,0.03071487173736095,-0.004169394639134407,0.01558658671574667
1761476329122207500,9.40820751953125,0.015298691418766974,-0.014597776607796549,-0.0012468582559376955
1761476329132240600,9.41824072265625,0.022621581652760504,-0.008818097227811813,-0.012968257443513721
1761476329142274300,9.4282744140625,0.021558920857310294,-0.006147855105251073,-0.011482128805294632
1761476329152307500,9.438307373046875,0.013030746486783026,-0.00847958598844707,-0.014606909762322902
1761476329162340400,9.44834033203125,0.017519874599575994,-0.0049373833369463676,-0.015405549326725304
1761476329172373500,9.45837353515625,0.014819967991113661,-0.00920936156772077,-0.008811283894535154
1761476329182406400,9.468406494140625,0.01570668769776821,-0.007412102887406945,0.0031788492318242786
1761476329192440600,9.478440673828125,0.0037158056527376174,-0.016939152102172374,0.00671301470734179
1761476329202473500,9.488473388671874,0.005781506010890006,-0.023678835620731115,0.001268923957273364
1761476329212506600,9.498506591796875,0.011318097350001334,-0.025231471890211105,-0.0013343721426092088
1761476329222539500,9.50853955078125,0.01969780316054821,-0.014239610819891094,-0.0019412885271944105
1761476329232573400,9.518573486328124,0.0262859493792057,-0.02768566010929644,-0.0019282463825307785
1761476329242606300,9.5286064453125,0.009678513449430465,-0.024274244230613112,-0.010292279699910431
1761476329252639500,9.538639404296875,0.009690203887224197,-0.028550825571268795,-0.0025964279676787554
1761476329262672400,9.54867236328125,0.02182312475144863,-0.029531214910745618,0.010141838378552346
1761476329272706600,9.55870654296875,0.019424831438064574,-0.016615253910049796,0.016522661989461628
1761476329282739500,9.568739501953125,-0.002145195335149765,-0.01312426998913288,0.025713958177529275
1761476329292772600,9.578772705078125,-0.005763970354199409,-0.008284574873000383,0.030455727610830215
1761476329302805500,9.588805419921876,0.0031762919485569,-0.0026511720959097144,0.03536141890157014
1761476329312839400,9.59883935546875,0.00928746830523014,0.003358005191013217,0.02856523768911138
1761476329322872300,9.608872314453125,0.01569149012863636,-0.011252630898356437,0.016691186956781894
1761476329332905500,9.618905517578124,0.024064181676506993,-0.013207418227940797,0.003761288762278855
1761476329342938400,9.6289384765625,0.028854338562488556,-0.01080459486991167,0.004431242179404944
1761476329352972500,9.63897265625,0.029903555354475975,-0.015751768948510287,-0.006634195583779364
1761476329363005400,9.64900537109375,0.02795826650559902,-0.004906915133446455,-0.003952902344241738
1761476329373038600,9.65903857421875,0.005801379755139351,-0.014657397840544581,0.004006660091783851
1761476329383071500,9.669071533203125,-0.007709259203076363,-0.00434628557600081,0.010825016603432595
1761476329393105400,9.67910546875,-0.011502806267142295,-0.010053118915483356,0.005391702975705266
1761476329403138300,9.68913818359375,0.014496727386116981,-0.011099632293730973,-0.0008839797602966427
1761476329413171500,9.69917138671875,0.032433950614929194,-0.01675122831463814,-0.013167433277424425
1761476329423204400,9.709204345703125,0.05264905564785003,-0.023688334101438523,-0.018176950268819925
1761476329433238500,9.719238525390624,0.05119184257686138,-0.024295798475295304,-0.029211463170778003
1761476329443271400,9.729271484375,0.043294367325305935,-0.027720950618386267,-0.024294063175935295
1761476329453304600,9.7393046875,0.020865093374252318,-0.01916077367439866,-0.007610876862518489
1761476329463337500,9.74933740234375,-0.015943419063091276,-0.007830255234241485,-0.0036890272436663507
1761476329473371400,9.759371337890625,-0.01866203037202358,0.0021261983737349507,0.0011451149145141244
1761476329483404300,9.769404296875,-0.013608838635683058,-0.005154021762311459,-0.004067779161874205
1761476329493437000,9.77943701171875,0.015235563054680823,0.0035641952876001594,-0.005957501898612827
1761476329503469800,9.7894697265625,0.02960311110317707,-0.011384294454008341,-0.017058632029686122
1761476329513503700,9.799503662109375,0.038597149419784545,-0.022135990092903374,-0.020227854916639625
1761476329523536600,9.80953662109375,0.03234276520013809,-0.014874036265909671,-0.021929763463698328
1761476329533569800,9.81956982421875,0.03311141148507595,-0.015443506716936825,-0.008903857548814266
1761476329543602700,9.829602783203125,0.017711597779393195,-0.010609510689228772,-0.0036296434729360043
1761476329553636900,9.839636962890625,0.009333061012625694,0.011219605411589145,0.0005434957595542072
1761476329563669800,9.849669677734376,-0.0042991584986448285,0.008367430850863456,0.002535473294369876
1761476329573703000,9.859702880859375,-0.003713467565178871,0.007401362297683954,0.012728110278397797
1761476329583735800,9.86973583984375,-0.0062567223072052,-0.006126593121513724,0.01778358530336991
1761476329593769000,9.87976904296875,-0.000436053329706192,-0.016926950207725167,0.019303981537371874
1761476329603802600,9.889802734375,0.02347439908981323,-0.019924597653746604,0.019551216030400245
1761476329613835800,9.899835693359375,0.01925415104627609,-0.028179946432262657,0.010201770138554275
1761476329623868700,9.90986865234375,0.028368600872159002,-0.021528671849519013,0.0017713935866951942
1761476329633901800,9.91990185546875,0.025220950496196746,-0.018754604026302694,-0.011066972133144736
1761476329643935700,9.929935791015625,0.018650339934229848,-0.009136077135801314,-0.015827683728933332
1761476329653969000,9.939968994140624,0.016736615267395973,-0.022490283423289657,-0.018571995734702796
1761476329664001800,9.950001708984376,0.021839491364359854,-0.03393083810918033,-0.013857022976782173
1761476329674035000,9.960034912109375,0.02742109088897705,-0.03125971920378506,-0.012393964686896651
1761476329684068600,9.970068603515625,0.0210053786277771,-0.03369089187346399,-0.011341788752842695
1761476329694101800,9.980101806640626,0.018791209709644315,-0.021984379727765915,-0.00612089403308928
1761476329704134700,9.990134765625,0.021669980016350746,-0.0050884091801941395,-0.0003978036785498261
1761476329714167800,10.000167724609375,0.01704991900026798,0.0038606209509074686,0.015951054380275307
1761476329724201700,10.01020166015625,0.017505846074223518,0.013158610650151966,0.026270185554493217
1761476329734235000,10.02023486328125,0.0000046761751174926755,0.027516514087468386,0.028876623459532857
1761476329744267800,10.030267822265625,-0.008980594313144684,0.026721125926077366,0.03451632811324671
1761476329754301000,10.040301025390624,-0.0015144962161779403,0.013557035383209586,0.030764556097984314
1761476329764333800,10.050333740234375,0.023173954838514327,0.005521832161396741,0.009348002853430806
1761476329774367700,10.06036767578125,0.04562953227460384,0.0028572160620242357,-0.014880904398113489
1761476329784400600,10.070400634765624,0.05329027616083622,0.00234539408236742,-0.02082196661857888
1761476329794433800,10.080433837890626,0.0477881716132164,-0.011770809553563594,-0.022494667337462304
1761476329804466700,10.090466796875,0.0060655836492776866,-0.01736585308164358,-0.020177074577473104
1761476329814500900,10.1005009765625,0.00040974984467029567,-0.028462781961634754,-0.010892364484909921
1761476329824533800,10.11053369140625,-0.003762567403912544,-0.030913828375563022,-0.001889540073648095
1761476329834567000,10.12056689453125,-0.012295417949557304,-0.025299860951304435,0.010160470013786107
1761476329844599800,10.130599853515625,0.0025105215162038804,-0.015242942643538116,0.010148706510756163
1761476329854633700,10.1406337890625,0.005630699363350868,-0.01254910044968128,0.0010513174175284803
1761476329864666600,10.15066650390625,0.011004793617129326,-0.03538593228831887,0.0015777341781184077
1761476329874699800,10.16069970703125,0.0237327577650547,-0.0424313938204199,-0.00241573763852939
1761476329884732700,10.170732666015626,0.023901100069284437,-0.045508243982493875,-0.013788999241869895
1761476329894765800,10.180765869140625,0.039647535255551335,-0.038294294015690684,-0.012739764183573424
1761476329904799700,10.1907998046875,0.03923661636710167,-0.032327786826714874,-0.009550101296789943
1761476329914833000,10.2008330078125,0.02535188339948654,-0.018236206175386904,-0.005406626550201327
1761476329924865800,10.21086572265625,0.01580079572200775,-0.008136398573964834,-0.0001229505262337625
1761476329934899000,10.22089892578125,-0.01201543196439743,-0.004351911599189043,0.010160634410567582
1761476329944932600,10.2309326171875,-0.0000415010541677475,0.0005504004243761301,0.019132479161676017
1761476329954965800,10.2409658203125,0.00684182871878147,-0.0020166005194187163,0.020803992570471018
1761476329964998700,10.25099853515625,0.013279168289899826,0.0007536679115146398,0.018709851569123564
1761476329975031800,10.26103173828125,0.015963292807340622,0.01374386319220066,0.01661602109503001
1761476329985065700,10.271065673828126,0.016994973942637444,0.014418328387662768,0.011228647234570234
1761476329995099000,10.281098876953125,0.0120429044932127,0.004494681070744991,0.0040555407348088915
1761476330005131800,10.2911318359375,0.015914777490496634,0.002448635261133313,0.0005265080921351909
1761476330015165000,10.3011650390625,0.023089783686399457,-0.008151815338805317,-0.02049974892688915
1761476330025197800,10.31119775390625,0.0262467864125967,-0.01002243151627481,-0.03357035250002518
1761476330035231700,10.321231689453125,0.037197219493985176,-0.021625044896081087,-0.03074199720630422
1761476330045264600,10.3312646484375,0.0384334832906723,-0.024481822566688058,-0.024756876648403703
1761476330055297800,10.3412978515625,0.01900631376504898,-0.01851451166011393,-0.01987717831544578
1761476330065330700,10.35133056640625,0.018135376149415967,-0.018025997490808368,-0.005081961173098534
1761476330075364900,10.36136474609375,0.0024257658421993253,-0.00768953158929944,0.010673077444732188
1761476330085397800,10.371397705078126,-0.008518237498402595,-0.013981982797011733,0.013923092216625809
1761476330095431000,10.381430908203125,-0.007634440401196479,-0.012841945916414261,0.012993355352152139
1761476330105463800,10.3914638671875,0.012720949885249137,-0.008937485823780298,0.016571232105232776
1761476330115496700,10.40149658203125,0.03457622334063053,-0.01942797324322164,0.012297116716299206
1761476330125530600,10.411530517578125,0.04177461041212081,-0.016124328587949276,0.004308602180425078
1761476330135563800,10.421563720703125,0.023521745362877846,-0.027370164419338105,0.0007403517722152173
1761476330145596700,10.4315966796875,0.015455927807092667,-0.03024856939986348,-0.0008314458554610609
1761476330155629600,10.441629638671875,0.01532499490380287,-0.020061229645460844,0.0062601381069980555
1761476330165663700,10.451663818359375,0.0103828623265028,-0.00403385862596333,0.017284348810650406
1761476330175697000,10.46169677734375,0.004545242214202881,0.0010167758271098137,0.024408629466313867
1761476330185729800,10.471729736328125,0.007080313649773597,0.008727934726327657,0.024780184458754954
1761476330195762700,10.4817626953125,0.0034767361998558045,0.00970649743489921,0.029142453055176883
1761476330205795800,10.4917958984375,-0.012542086187005043,-0.006745674867928027,0.027135844206809995
1761476330215829800,10.501829833984376,0.00794423700273037,-0.024004195117577908,0.027772059751115737
1761476330225862700,10.511862548828125,0.024832243439555167,-0.03275901785083115,0.015211140999477357
1761476330235895600,10.5218955078125,0.01702420003712177,-0.034170272888243196,0.003606335662584752
1761476330245928700,10.5319287109375,0.0282335763156414,-0.027847791868448254,-0.010724387506861239
1761476330255963000,10.541962890625,0.02808160062432289,-0.01901237817965448,-0.020137272290047258
1761476330265995800,10.551995849609375,0.012385434320569037,-0.014647095642238855,-0.024811328515689818
1761476330276028700,10.562028564453126,0.0207744924813509,-0.006128565882891416,-0.026245599102508274
1761476330286061800,10.572061767578125,0.03785071496665478,-0.008885901767015456,-0.02599118595002219
1761476330296094700,10.5820947265625,0.03996609968543052,-0.02499481359012425,-0.024981497450824827
1761476330306128600,10.592128662109374,0.03342237713038921,-0.01350691263116896,-0.02451086599808186
1761476330316161500,10.60216162109375,0.019082886132597923,-0.0069101447146385905,-0.019452103037480264
1761476330326194700,10.612194580078125,0.006969839012622833,0.001202361527085304,-0.012275854732561856
1761476330336227600,10.6222275390625,0.008165186277031899,0.005518763421475887,-0.006898417744226754
1761476330346261800,10.63226171875,0.02013970170915127,0.017701880102977154,0.0030419615117833016
1761476330356294700,10.642294677734375,0.014161211821436882,0.011869812948629259,0.011350392184406519
1761476330366327800,10.652327880859374,0.01386544374525547,0.009090995885059237,0.006175619895011186
1761476330376360700,10.662360595703126,0.028840310037136076,-0.010098346296697855,0.0043638394990004594
1761476330386393900,10.672393798828125,0.020615502527356146,-0.02653532103039324,-0.003595686404407024
1761476330396427500,10.682427490234375,0.036491701573133466,-0.021351415586471557,-0.018702471980266273
1761476330406460700,10.692460693359376,0.02933890720903873,0.0002916033577173948,-0.011013159586675465
1761476330416493600,10.70249365234375,0.01768178716301918,0.007552607336640357,-0.004626837816741317
1761476330426526700,10.712526611328125,0.0157376673579216,0.014467062900215386,0.01065324023310095
1761476330436560600,10.722560546875,0.013193828094005584,0.004489858765155077,0.01442218257887289
1761476330446593800,10.73259375,0.0018266309052705765,-0.015538637654483317,0.008372691547870636
1761476330456626700,10.742626708984375,0.010060206243395806,-0.02241721818707883,0.011040759979654103
1761476330466659800,10.752659912109374,0.005738251391053199,-0.04691453058384359,0.005165766999032348
1761476330476692700,10.762692626953125,0.0201034613519907,-0.035954599021747705,0.0024802542421035467
1761476330486726700,10.7727265625,0.011571779850125313,-0.03234802589714527,-0.0012234591140411794
1761476330496759800,10.782759765625,-0.0026490532040596006,-0.01751307953260839,-0.0006816621212288737
1761476330506793000,10.79279296875,0.004217909955978393,-0.00655409781858325,0.008753178765438496
1761476330516825900,10.802825927734375,0.018261632877588273,-0.010803645021840929,-0.005945829727128147
1761476330526859000,10.81285888671875,0.023362170886993407,-0.009042772829160094,-0.013837551091331987
1761476330536893000,10.822892822265626,0.03909750015735626,-0.0016279665280133485,0.002519398942403495
1761476330546926000,10.832926025390625,0.04182078764140606,-0.014873159483075141,0.00422517994698137
1761476330556959000,10.842958984375,0.02268061836361885,-0.027808775032311675,0.01333489879881963
1761476330566992100,10.8529921875,-0.01293780750632286,-0.02569265966117382,0.010052443062048404
1761476330577025800,10.86302587890625,-0.011309914043545722,0.0020289485443383453,0.014705566097516566
1761476330587059000,10.873058837890625,0.0007668927192687987,0.018817732390388846,0.017459650578629225
1761476330597091800,10.883091796875,0.00026420389413833614,0.008423983343690633,0.016471059666387736
1761476330607125000,10.893125,0.016238018095493315,0.007007248413562774,-0.00024222952434793112
1761476330617158000,10.903157958984375,0.03793547064065933,-0.0026135434992611405,-0.006845262784883379
1761476330627192000,10.913192138671874,0.05515957716405391,-0.0042716859698295594,-0.019752181962598113
1761476330637225000,10.923224853515626,0.04664835392832756,0.005765796985104679,-0.01847805210724473
1761476330647258000,10.933258056640625,0.023466800305247306,-0.003884805544093251,-0.013966182439681141
1761476330657291000,10.943291015625,-0.012009586745500563,-0.021225304988771676,-0.0018636749800294637
1761476330667324200,10.95332421875,-0.025339023917913435,-0.024471958759799597,0.0014986410599201916
1761476330677357800,10.96335791015625,-0.007684709283709526,-0.01565773398950696,-0.0010411796160042285
1761476330687391000,10.973390869140625,0.02283259405493736,-0.008392419161647558,-0.006198233585618436
1761476330697424000,10.983423828125,0.032526889595389366,-0.016610869995877145,-0.0024053441086784003
1761476330707457000,10.99345703125,0.02639116331934929,-0.007095145892724394,-0.0007832593321800232
1761476330717490000,11.003489990234375,0.010219196197390555,-0.012624357642978428,-0.005401420652121305
1761476330727524000,11.013524169921874,0.024750410374999046,-0.005037628841027617,0.0005585106655955314
1761476330737557000,11.023556884765625,0.0333095644056797,-0.00902377586774528,-0.007336626498401165
1761476330747590100,11.033590087890625,0.03512859652638435,-0.01146678510569036,-0.01605150081375614
1761476330757623000,11.043623046875,0.03350421019494533,-0.015425532668828963,-0.012192761292681098
1761476330767656200,11.05365625,0.005845803418755531,-0.021262495194002983,0.0002050393191166222
1761476330777689900,11.06368994140625,-0.003717559218406677,-0.03316533362939954,0.0013561273166909813
1761476330787723000,11.073722900390624,0.015882628786563872,-0.007089958260953426,0.010454886383097618
1761476330797756000,11.083755859375,0.011529109752178192,-0.0072105889659374945,0.01730332750575617
1761476330807789000,11.0937890625,-0.008693009543418884,-0.018758987940475345,0.0075385605449788265
1761476330817823000,11.103822998046875,0.016298223850131036,-0.014556860075518489,-0.0005961209959350526
1761476330827856100,11.113856201171876,0.02606909175813198,-0.0008200111459940671,-0.010187010960839689
1761476330837889000,11.123888916015625,0.05718728359937667,0.01131502861008048,-0.010969137781858443
1761476330847922200,11.133922119140625,0.16142156505584715,0.01722659074142575,0.012935999141726643
1761476330857955000,11.143955078125,0.12388941451907157,-0.039151056975498796,0.0010622680698055772
1761476330867989000,11.153989013671875,-0.0948661491304636,-0.10194865473732352,-0.004413998783659189
1761476330878022000,11.16402197265625,-0.2188935108155012,-0.11205759549327195,-0.0026806995844934132
1761476330888055000,11.174054931640624,-0.16756605916023254,-0.06329181101955474,-0.0011312873185612261
1761476330898088000,11.184087890625,-0.013214870882034302,0.01321925479620695,-0.006230546686332672
1761476330908121000,11.19412109375,0.18391630545854568,0.07363945590220392,-0.014823036731034517
1761476330918155000,11.204155029296874,0.24419570985436437,0.06905709654800593,-0.036857228683587165
1761476330928188200,11.214188232421876,0.11538228293657302,-0.009805281634256244,-0.05161980393165722
1761476330938221000,11.224220947265625,-0.15095686966478825,-0.09104352210238575,-0.025241865420062095
1761476330948254200,11.234254150390624,-0.24752222392857073,-0.0598385287605226,0.004606964072491973
1761476330958287000,11.244287109375,-0.09114858991205692,0.033223128231242294,0.02435625995825976
