time,seconds_elapsed,z,y,x
1761475969387147800,0.086147705078125,0.05372457592487335,0.06276669116690754,0.508797261540778
1761475969397184800,0.096184814453125,-0.1647439874768257,0.13329977855160832,0.6120407053289935
1761475969407222000,0.106221923828125,-0.18596447016000747,0.22233415278866886,0.7113586097039282
1761475969417259000,0.116259033203125,-0.22165070056915281,0.6147447401233017,0.693425185867399
1761475969427296000,0.1262958984375,-0.3202829242348671,1.7182042866908014,0.18143230662308632
1761475969437333000,0.1363330078125,-0.8203186045080423,0.9785158006899058,0.27834954306446014
1761475969447370000,0.146369873046875,-1.2840548909097909,0.22330942756161093,0.48563233025893565
1761475969457407000,0.156406982421875,-1.6841548637032508,-0.07375511817112565,0.66122628611736
1761475969467444000,0.16644384765625,-1.306504038605094,0.2945939178355038,0.8511905665032565
1761475969477481000,0.17648095703125,-0.6390355701625346,0.9809650935381651,1.1461544136296957
1761475969487518000,0.18651806640625,-0.29094343250393867,1.302066932940483,1.1266340859279036
1761475969497555000,0.196554931640625,0.1733013879418373,1.1087522461481392,0.8854960100784898
1761475969507592000,0.206592041015625,0.4847901803463697,0.7618712378449738,0.6679562519595027
1761475969517629000,0.21662890625,0.7217822424322367,0.3652747431278229,0.5169022785957902
1761475969527666000,0.226666015625,0.9530500816524028,-0.07971168848797679,0.3565066225215792
1761475969537703000,0.236702880859375,0.9429781849712133,-0.4585910324677825,0.1418226191598922
1761475969547740000,0.246739990234375,0.6329945364326238,-0.7405116389520466,0.09359222020450979
1761475969557777000,0.25677685546875,0.35389351741373537,-0.9344749989114701,0.19375000946968793
1761475969567814000,0.26681396484375,0.320702610951662,-0.9991592141374945,0.41773046816065906
1761475969577851100,0.27685107421875,0.020668694019317625,-1.0751783317178487,0.8316637359954416
1761475969587888000,0.28688818359375,0.13856792821288108,-1.1178782402813434,1.1745559669233858
1761475969597924900,0.2969248046875,0.79462302223742,-1.1417632659986614,1.151049857521057
1761475969607961900,0.3069619140625,1.3234294544428586,-1.1430261255413292,0.9502497834093868
1761475969617999000,0.3169990234375,1.414582720530033,-1.0355731742992997,0.9207868844944983
1761475969628036000,0.3270361328125,0.9431734152823686,-1.0332757110118866,1.2504137564621864
1761475969638073000,0.337072998046875,0.593040127184987,-1.294814185333252,1.9498045727357267
1761475969648109800,0.34710986328125,0.6793693341165781,-1.2474939234927296,2.00959064065665
1761475969658146800,0.357146728515625,-0.3147422412425279,-0.6852554695457219,1.1645833658982068
1761475969668184000,0.36718408203125,-0.6257961493611336,-0.2258354389078915,0.24528993483185765
1761475969678221000,0.377220947265625,0.17393559419214724,0.07562354239150881,-0.08553031163886189
1761475969688258000,0.387258056640625,-0.1798936258137226,0.3647780456520617,0.14994067835956812
1761475969698294800,0.397294677734375,-0.6392804848343133,0.1322768652446568,-0.17045264744721353
1761475969708332000,0.40733203125,-0.8362140927761793,-0.09078194855675101,-0.06272833191789687
1761475969718369000,0.417369140625,-0.7093558915793895,0.038325346741080284,0.5387432312648743
1761475969728406000,0.427406005859375,-0.3366249872267246,0.7549940455518662,0.698496936173737
1761475969738443000,0.437443115234375,-0.9771697929084301,0.9149000914782285,0.8178925464048982
1761475969748480000,0.44747998046875,-0.8698737857937813,-0.09119871266409754,0.8142468103136867
1761475969758517000,0.45751708984375,-0.19444354469180106,-0.7416003109715879,0.2908377071071416
1761475969768554000,0.467553955078125,-0.14081833748817443,-0.790899471669644,-0.056580549877882
1761475969778591000,0.477591064453125,-0.2424830607175827,-0.7731551406644285,-0.24514482727274298
1761475969788628000,0.4876279296875,-0.24090894326865672,-0.9173590289376675,-0.3382628175616264
1761475969798665000,0.4976650390625,-0.2437193245142698,-1.0547156816646457,-0.28368936972245573
1761475969808702000,0.507701904296875,-0.1864028615772724,-0.9868730024076998,-0.10748729190304875
1761475969818739000,0.517739013671875,-0.3563537700474262,-0.7380026518058032,0.10503829131573438
1761475969828776000,0.52777587890625,-0.6778109987586737,-0.5995822423048317,0.10058657260388135
1761475969838813200,0.537813232421875,-0.8413105391323566,-0.5696469035726041,-0.17995616965591907
1761475969848850000,0.547849853515625,-0.4643862747430801,-0.5570245186910033,-0.4077732839003205
1761475969858887000,0.557886962890625,-0.16024024631679057,-0.7234676382359116,-0.6104283382289111
1761475969868924000,0.567923828125,0.13030804938971996,-0.7196416502069681,-0.40523470533341166
1761475969878961000,0.5779609375,0.24620529611110686,-0.6303009134344756,-0.11264204431772232
1761475969888998100,0.587998046875,0.055685062342882154,-0.4368494850525632,-0.04154445491805672
1761475969899035000,0.598034912109375,-0.3213672123402357,-0.1621644193124026,-0.17030717456191777
1761475969909072000,0.60807177734375,-0.08133096025288104,0.10059479244295506,0.020280863745510577
1761475969919108900,0.61810888671875,0.22808920918405054,0.3088889851696789,0.43084129414632916
1761475969929146000,0.62814599609375,0.5381295563459396,0.3930529768913984,0.4939649820573628
1761475969939183000,0.63818310546875,0.8724977045565843,0.02436119186170399,0.8704118381932378
1761475969949219800,0.6482197265625,1.157346327316761,-1.2021621320556848,1.4248597843945026
1761475969959256800,0.6582568359375,0.8424737376928328,-2.3648772198639807,1.6502508405357599
1761475969969294000,0.668294189453125,0.5587526576578616,-1.9080954287752507,0.8736445365041494
1761475969979331000,0.6783310546875,0.706807376140356,-0.5448228434395045,0.17744287166073916
1761475969989368000,0.6883681640625,0.5468564681589603,0.06237798411026597,0.04481383197754621
1761475969999404800,0.69840478515625,0.41074820805788037,-0.25676636454872787,0.0688543405175209
1761475970009441800,0.70844189453125,0.1283855568945408,-0.6393840913392603,0.27964360146299005
1761475970019479000,0.71847900390625,-0.5472171181648969,-0.4576606197498739,0.07886807727068662
1761475970029516000,0.72851611328125,-0.6918944691687822,0.21209142958521843,-0.5347649022184312
1761475970039553000,0.738552978515625,0.13240765201747418,0.043665757920965546,-0.26307620528265835
1761475970049591000,0.748591064453125,0.35355975541472434,-0.6568214022219181,0.31517887909412384
1761475970059627000,0.758626953125,0.5539052176266909,-0.8278696774747222,0.4047469218164682
1761475970069664000,0.7686640625,0.8334715160697698,-0.8032794991627336,0.39113589122369885
1761475970079701000,0.778700927734375,0.9152186559081077,-0.641866117413342,0.4509269275806844
1761475970089738000,0.788738037109375,0.9920347690850496,-0.3181964733496308,0.4768415594294667
1761475970099775000,0.79877490234375,1.2686895639955997,-0.06378565895110368,0.2583048992276192
1761475970109812000,0.80881201171875,1.568393226060271,0.09706818921938538,0.03038870852291584
1761475970119848000,0.818847900390625,1.4633295080423354,-0.08815437653213738,0.07515709392353892
1761475970129886200,0.82888623046875,1.4852297896832227,-0.3015380378849804,0.21687048055529592
1761475970139922200,0.838922119140625,1.6451818667083977,-0.36511209991201754,0.36916648986935613
1761475970149959200,0.848959228515625,1.782658492553234,-0.3610916122242808,0.5537678549826145
1761475970159996200,0.85899609375,1.800767565217614,-0.4546655295871198,0.6487164216995239
1761475970170033000,0.869032958984375,1.654799005359411,-0.5636353151328861,0.6526543456703424
1761475970180070100,0.879070068359375,1.567035966232419,-0.44762525568678974,0.5539978643462061
1761475970190107100,0.889107177734375,1.8016957859784364,-0.11472834907248615,0.5630936094716191
1761475970200144100,0.89914404296875,1.9768518618762492,0.350218336032331,0.6207321439698338
1761475970210181000,0.90918115234375,1.7882424301654098,0.9323974619850516,0.3112260498151183
1761475970220218000,0.919218017578125,1.7125222955316304,0.9578868541590869,0.26764059058874845
1761475970230255000,0.929255126953125,1.7664111221075056,0.5056868379026651,0.3208811823889613
1761475970240292000,0.9392919921875,1.3804688540041445,-0.10178732669577002,-0.04484247355014086
1761475970250329000,0.9493291015625,0.7632727752059698,-0.5081780701965093,-0.38206425762623547
1761475970260366000,0.959365966796875,0.3689899642586708,-0.5493937315516173,-0.37605128094702955
1761475970270403000,0.969403076171875,0.33822716172635553,-0.05376403115242719,-0.31396131999790666
1761475970280440000,0.979440185546875,0.5492950934827328,0.5041910463869571,-0.33803777663409706
1761475970290477000,0.98947705078125,0.785710232463479,0.8990998802781105,-0.31109657821655273
1761475970300514000,0.99951416015625,0.6282534793853759,0.7700165503777563,-0.4435726192951202
1761475970310551000,1.009551025390625,0.6880272723466158,0.6774472800128162,-0.6305471432805061
1761475970320588000,1.019588134765625,0.6590051760017871,0.5299579403281212,-0.8325845041021704
1761475970330625000,1.029625,0.5018418529123068,0.38784547137618064,-1.0896081313475965
1761475970340662000,1.039662109375,0.35353462097346783,0.0534143409319222,-1.0922393566340207
1761475970350699300,1.04969921875,0.2478372812271118,-0.03066840224713087,-0.7976870859831571
1761475970360736300,1.059736328125,0.023279168778657912,0.1614332554936409,-0.600761369086802
1761475970370773000,1.06977294921875,-0.3416039446830749,0.5033759306117892,-0.46284576730281113
1761475970380810000,1.07981005859375,-0.409974885597825,0.4805746084779501,-0.5973956920459866
1761475970390847200,1.08984716796875,0.11680150208473204,0.3141225019089877,-0.7874263887315988
1761475970400884200,1.09988427734375,0.07458323955833912,0.261722744847089,-0.9126292239367961
1761475970410921200,1.109921142578125,0.3836363292485475,0.4556327671840787,-0.8913844835951924
1761475970420958000,1.1199580078125,1.068204401051998,0.6356541110306978,-0.7094108366370201
1761475970430995000,1.129994873046875,1.1882283723145723,0.8826227927297353,-0.5368915389835834
1761475970441032200,1.1400322265625,0.9894915143430233,0.5799857075616717,-0.6095128308191895
1761475970451069200,1.150069091796875,0.6675234135001897,0.45716509131789207,-0.6234989783346653
1761475970461106200,1.160106201171875,0.3198042008072138,0.2598236332274973,-0.4659025245249271
1761475970471143000,1.170142822265625,0.21831249605715272,0.3358447966344654,-0.2278518932968378
1761475970481180200,1.18018017578125,0.33757775790691374,0.5894852111823856,0.10749065290391445
1761475970491217200,1.190217041015625,0.33460604861974713,0.5739299146540463,0.21709669052660463
1761475970501254100,1.200254150390625,0.3850555483967066,0.3971002064555883,0.015544775134325027
1761475970511291100,1.210291015625,0.4678127420604229,0.32845132538229227,-0.3027659722447395
1761475970521327900,1.220327880859375,0.4090905039787292,0.2580705059498548,-0.4511404242008924
1761475970531365000,1.230365234375,0.44786651709675784,0.10630210070647299,-0.5729360813111066
1761475970541402000,1.240402099609375,0.40058044978678226,1.3149962648794054,-1.323784843751788
1761475970551439000,1.250439208984375,0.13136544948816298,2.673062440678477,-1.9063930087715386
1761475970561476000,1.26047607421875,-0.8055249400019645,1.490229205405712,-1.4741788188368081
1761475970571513000,1.27051318359375,-1.2167998022824524,0.693386388226971,-1.0025894808471203
1761475970581550000,1.280550048828125,-1.0361422063589096,0.1997067259170115,-0.5398977350622415
1761475970591587000,1.290587158203125,-0.9286170666635036,-0.5215243123732507,0.06160568456351757
1761475970601624000,1.3006240234375,-0.8106371684491633,-1.0022023812256753,0.452743183222413
1761475970611661300,1.310661376953125,-0.6653197659760713,-0.9564537526160478,0.09345628233253955
1761475970621698000,1.320697998046875,-0.6144470723509788,-0.2785314024373889,-0.790620800858736
1761475970631735000,1.330735107421875,-1.206897416949272,0.5325133969645947,-1.1144739847958087
1761475970641772000,1.34077197265625,-1.0642606318622827,0.9028351943489163,-1.1261433798015117
1761475970651809000,1.35080908203125,-0.5844669446289539,0.5801413365148007,-0.9899678996831178
1761475970661846300,1.36084619140625,-0.7966799547672271,0.01526727336719632,-0.5117658655554056
1761475970671883000,1.370883056640625,-0.9081336660832167,-0.4031698086928576,0.03318798385262489
1761475970681920000,1.380919921875,-0.9976660529702901,-0.6018124490423128,0.5364952331423759
1761475970691957000,1.39095703125,-1.0736053833127022,-0.3999005777638405,0.5371241786956786
1761475970701994200,1.400994140625,-1.3223667936474084,-0.031176059508323667,0.3008189298301935
1761475970712030200,1.4110302734375,-1.3841302991211413,0.156300568780303,0.20147768111228942
1761475970722067200,1.421067138671875,-1.1904805351555348,0.3410864601476118,-0.03979775738120079
1761475970732104000,1.43110400390625,-1.1920505609512329,0.3753614720519632,-0.24276713835597036
1761475970742141000,1.441140869140625,-1.385447811460495,0.20477171768900007,-0.1133615907639265
1761475970752178200,1.45117822265625,-1.2864070069938898,-0.12237787744496018,0.11779109764397144
1761475970762215200,1.461215087890625,-1.09408703032732,-0.3112456678310409,0.29829028813540936
1761475970772252200,1.471252197265625,-1.1231804383426904,-0.3027147169815376,0.39191900442540645
1761475970782289200,1.4812890625,-0.9198007230013608,-0.21478731760568914,0.5346645105838775
1761475970792326000,1.491325927734375,-0.6434989793121815,-0.22892701171506194,0.7370867790699005
1761475970802363100,1.501363037109375,-0.791043994706869,-0.1492189399562776,0.7779793459504842
1761475970812400000,1.511400146484375,-0.5652127935826778,-0.024160627788305283,0.8656617210566997
1761475970822437000,1.52143701171875,-0.3315864085376262,0.7801997984789312,0.7389683550328016
1761475970832474000,1.53147412109375,-0.24157062204778193,0.4438713465133682,0.4429325678259134
1761475970842511000,1.541510986328125,-0.02919745291173458,-0.4432416337750852,0.2968050180137157
1761475970852548000,1.551548095703125,-0.011648352217674254,-0.7214651393070817,0.30773207021951676
1761475970862585000,1.561585205078125,-0.01785831277370453,-0.6919725028410554,0.23537936619222163
1761475970872622000,1.5716220703125,-0.12530746462345121,-0.625068857999891,0.28154139790832994
1761475970882659000,1.5816591796875,-0.016484686332941055,-0.5602468782709911,0.5444470689296722
1761475970892696000,1.591696044921875,0.21768471954762936,-0.28506865871902554,0.8502250824719667
1761475970902733000,1.601733154296875,0.30308395215272904,-0.03862431142134592,1.0472767638355494
1761475970912770000,1.61177001953125,0.27855741366147996,-0.11305888149030506,1.0537065046221017
1761475970922807000,1.62180712890625,0.22005787841975688,-0.30014011725317685,0.9064858988761901
1761475970932844300,1.63184423828125,0.3482891215354204,-0.25698543239319693,0.7034364384025334
1761475970942881000,1.641881103515625,0.33169396056532857,-0.11159481855342164,0.5385515811502933
1761475970952918000,1.65191796875,0.25626141070127484,-0.18077227181177585,0.29368367112278937
1761475970962955000,1.661955078125,0.3273778509318828,-0.6827605839900672,0.05885784716010093
1761475970972992300,1.6719921875,-0.13646306488811968,-1.2548976238779723,-0.05600304225087165
1761475970983029200,1.682029296875,-0.6790531077742576,-1.4384581016361713,0.06654840166270733
1761475970993066000,1.69206591796875,-1.049938676521182,-1.188229249097407,0.052855976396799086
1761475971003103000,1.70210302734375,-0.7062211006850003,-0.8753115198682994,-0.09220306740105151
1761475971013140200,1.71214013671875,-0.1614975529015064,-0.7536945803258568,-0.14664543620645998
1761475971023176200,1.72217626953125,-0.13226970485150813,-0.9097514765433966,-0.07840367462933064
1761475971033213200,1.732213134765625,-0.40137481503486633,-1.1059851925875992,-0.020864508852362632
1761475971043250200,1.742250244140625,-0.5788420904844999,-1.2622146688930689,-0.07761690816581249
1761475971053287000,1.752286865234375,-0.649333676815033,-1.280635291724652,-0.13175532558858394
1761475971063324000,1.762323974609375,-0.856632611426711,-1.1738540291991084,-0.10204583150148391
1761475971073361200,1.772361083984375,-1.034839307066798,-0.8720884661685675,-0.21082710873782634
1761475971083398100,1.782398193359375,-1.1574947958767414,-0.5907092730846256,-0.5797475148916245
1761475971093435100,1.79243505859375,-1.373767310538888,-0.45183300957493483,-0.7819453269720077
1761475971103471900,1.802471923828125,-1.4914187074512242,-0.42361989152543245,-0.8810808239847421
1761475971113509000,1.812509033203125,-1.5011311231702564,-0.47656873383745546,-0.965929436969757
1761475971123546400,1.82254638671875,-1.585210505348444,-0.5368212867589667,-1.0907195997208357
1761475971133583400,1.832583251953125,-1.7666788331329821,-0.5800058735668658,-1.1873866607934236
1761475971143620400,1.842620361328125,-1.7682734088480472,-0.6410996630854904,-1.1431745941013096
1761475971153657000,1.852656982421875,-1.7337690816998481,-0.7351642865747213,-0.987451532948017
1761475971163694000,1.862694091796875,-1.6122235999584198,-0.8932610911220311,-0.8229559672743082
1761475971173731300,1.8727314453125,-1.3495336175143717,-1.0067567565944044,-0.5986942074239253
1761475971183768300,1.882768310546875,-0.939429552578926,-1.054578172890097,-0.27777123171985146
1761475971193805300,1.892805419921875,-0.39548984864950176,-1.0883482674796134,0.06572773292958736
1761475971203842000,1.902842041015625,0.03156009038984775,-1.0968411513410508,0.34810967331528664
1761475971213879300,1.91287939453125,0.12988544006347655,-1.078713812367618,0.49524143173396584
1761475971223916300,1.922916259765625,0.0969441244482994,-1.0032859386786819,0.6570289074927568
1761475971233953300,1.932953369140625,0.09004208997488021,-0.8138897405043244,0.7781003419816493
1761475971243990300,1.942990234375,0.08889701159298419,-0.6633919397186487,0.9405167632937431
1761475971254027300,1.95302734375,0.06447276443243026,-0.6190110192656517,0.9311971462845802
1761475971264064300,1.963064208984375,0.1441618026971817,-0.5313810319337994,0.8003659498035908
1761475971274101200,1.973101318359375,0.2930716767042875,-0.3162020846620202,0.6965934406399726
1761475971284138200,1.98313818359375,0.3669160805940628,-0.17420677581634372,0.5161772522568703
1761475971294175200,1.99317529296875,0.3152238872796297,-0.09273363061379641,0.32683366105258466
1761475971304212200,2.003212158203125,0.19195698857307433,0.029271942920051513,0.175092363011837
1761475971314249200,2.013249267578125,0.06698562403619289,0.12498539306223391,0.07341536482274531
1761475971324286200,2.0232861328125,-0.0103740944981575,0.18856467925366013,-0.033760230782628055
1761475971334323200,2.0333232421875,-0.04936053549647331,0.2981141643835232,-0.18199965818226335
1761475971344359200,2.043359130859375,-0.13538754461109637,0.3960299468755722,-0.2756505863040685
1761475971354396400,2.053396484375,-0.13456629135608672,0.3912516630904749,-0.3002665566444397
1761475971364433400,2.063433349609375,-0.006835398977994918,0.3629581367485225,-0.285416778036952
1761475971374470100,2.07347021484375,0.10648936690688132,0.39460320200808346,-0.29169629669785496
1761475971384507100,2.083507080078125,0.05915946045517921,0.4172353415874764,-0.25479893693327904
1761475971394544400,2.09354443359375,-0.030803134542703628,0.3925565716765821,-0.16966683083176612
1761475971404581400,2.103581298828125,-0.031165538114309308,0.3742475559933111,-0.05851005663573742
1761475971414618400,2.113618408203125,-0.05095394216775894,0.4068546346854418,-0.014918752190470695
1761475971424655000,2.123655029296875,-0.17545593562722206,0.5007860237164422,-0.05119827231764793
1761475971434692000,2.133692138671875,-0.23420506171584127,0.5832409830305725,-0.10110182864964008
1761475971444729300,2.143729248046875,-0.18829437441229818,0.6155955117337405,-0.15943652871847153
1761475971454766300,2.153766357421875,-0.09134791187644005,0.6543393761478364,-0.21432138059437272
1761475971464803300,2.16380322265625,-0.1694447125136852,0.7081715041004121,-0.31866029146909713
1761475971474840000,2.173840087890625,-0.3293430135250091,0.729098483729735,-0.4398065447598695
1761475971484877300,2.183877197265625,-0.5201619379788637,0.6793510678075254,-0.4740443299263715
1761475971494914300,2.193914306640625,-0.6146206753522158,0.6117529378961771,-0.4159218113034963
1761475971504951300,2.203951416015625,-0.5670762493669986,0.5522160954959691,-0.32123861752450467
1761475971514988300,2.21398828125,-0.5134960503488779,0.4785934080654755,-0.19973872849047183
1761475971525025300,2.224025390625,-0.4940998604834079,0.42247495927400885,-0.1560918944656849
1761475971535062300,2.234062255859375,-0.4297977764427662,0.3860219092108309,-0.16365326963067053
1761475971545099300,2.244099365234375,-0.3697475046277046,0.28581662754211573,-0.14307926815748215
1761475971555136300,2.25413623046875,-0.3113818248987198,0.18326715736743063,-0.08808803329765796
1761475971565173200,2.26417333984375,-0.2487269235432148,0.17298961857892572,-0.08148644307553768
1761475971575210200,2.274210205078125,-0.27057459821403024,0.20031154167605564,-0.12776713273525236
1761475971585247200,2.284247314453125,-0.34534079312384125,0.19125183597840367,-0.18106033150553702
1761475971595284200,2.2942841796875,-0.4091735060870647,0.1461505653616041,-0.19299451492726802
1761475971605321200,2.3043212890625,-0.45607904964685436,0.10670253473352641,-0.12801613906025885
1761475971615358500,2.3143583984375,-0.3820546130150556,0.11741064695902168,-0.018193828338384628
1761475971625395200,2.324395263671875,-0.31979718654453754,0.13613942242432384,0.017632687324285506
1761475971635432200,2.33443212890625,-0.2971510549724102,0.14661498626926914,-0.03177870157659054
1761475971645469200,2.34446923828125,-0.26974633069634435,0.15336678035072981,-0.1181324584275484
1761475971655506400,2.35450634765625,-0.23544132551252842,0.19618852519560603,-0.2073351749688387
1761475971665543400,2.36454345703125,-0.1689531296044588,0.22003363902764395,-0.20577333247959612
1761475971675580200,2.374580078125,-0.13818214376568794,0.19894772424325347,-0.10569675522446632
1761475971685616000,2.3846162109375,-0.09402560665309428,0.2071846240496263,0.036194764453172684
1761475971695653000,2.394653076171875,-0.07559212433993816,0.24760650467853992,0.15505612167716026
1761475971705690000,2.404690185546875,-0.036598084557056425,0.249842611433845,0.2548603117316961
1761475971715727400,2.414727294921875,-0.004739888003468513,0.2683931625217199,0.33792087225615974
1761475971725764400,2.424764404296875,0.0369043740272522,0.3070356123879552,0.3789490482151508
1761475971735801300,2.43480126953125,0.1619815370261669,0.32540260533615945,0.30383155564963815
1761475971745838000,2.444838134765625,0.20911387507915496,0.34570264870617534,0.23430676852464674
1761475971755875300,2.454875244140625,0.21707798582613466,0.341650414173305,0.17365151655375957
1761475971765912300,2.464912353515625,0.24829203925728796,0.31827048843391237,0.1598036084651947
1761475971775949300,2.47494921875,0.20473697516918182,0.3047173803071491,0.20022095904946327
1761475971785986300,2.484986328125,0.22735621873438358,0.3373004388028756,0.19509879373013972
1761475971796023300,2.495023193359375,0.2014958012908697,0.32223639639019963,0.22106208702623842
1761475971806060300,2.505060302734375,0.1295177757948637,0.2832454253472388,0.2665542566567659
1761475971816097300,2.51509716796875,0.0843482622474432,0.2752537324735895,0.3430255019187927
1761475971826134300,2.52513427734375,0.08889876515865325,0.30902287721503524,0.37810266051888464
1761475971836171300,2.535171142578125,0.10486439605355262,0.307452486093156,0.33909693029820914
1761475971846208300,2.545208251953125,0.1401350313991308,0.2604632645715959,0.3162865480750799
1761475971856245200,2.555245361328125,0.19324176768660545,0.22461309403870253,0.2790472430050373
1761475971866282200,2.5652822265625,0.15937924557328223,0.19247774277785792,0.2061883430212736
1761475971876319200,2.5753193359375,0.12750234431922436,0.15490575342103838,0.17354221096038816
1761475971886356500,2.5853564453125,0.10932137546241283,0.12357795568341388,0.18891630570292473
1761475971896393200,2.595393310546875,0.1289817692220211,0.09977150249448605,0.2123527108699083
1761475971906430200,2.60543017578125,0.10151216301620006,0.1042113755049184,0.2486696403980255
1761475971916467200,2.61546728515625,-0.005724222865700721,0.1417671352461446,0.25694413226842877
1761475971926504400,2.62550439453125,0.03176993374824524,0.19124467558525501,0.24284955594241617
1761475971936541400,2.63554150390625,0.08381693184971808,0.23511737252147866,0.19208149173557756
1761475971946578200,2.645578125,0.12055822426974773,0.2532988711012527,0.10827157414853572
1761475971956615200,2.655615234375,0.14333879587650297,0.29113840708676725,0.01767301933467388
1761475971966652200,2.665652099609375,0.2425041035056114,0.3141214059304446,-0.07372808403372764
1761475971976689400,2.675689453125,0.2507557990223169,0.2809132195400074,-0.07603694549798964
1761475971986726400,2.685726318359375,0.2258990056633949,0.25430981997577473,-0.04282148911654949
1761475971996762400,2.695762451171875,0.18629238694012165,0.2724087365723215,-0.020107553005218503
1761475972006799000,2.705799072265625,0.21779285609722135,0.2772091773902997,-0.024365794971585274
1761475972016836000,2.715836181640625,0.19784604661166666,0.24355293670510872,-0.019400281518697736
1761475972026873300,2.725873291015625,0.27008652243614195,0.2146343920662999,-0.05042962603271007
1761475972036910300,2.735910400390625,0.3181505883812904,0.20088941462924703,-0.1173877775400877
1761475972046947300,2.745947265625,0.3120855892539024,0.18048307960685342,-0.15711246968507767
1761475972056984000,2.755984130859375,0.20565409001410007,0.17807903240611775,-0.1218272212922573
1761475972067021300,2.766021240234375,0.08289572535157202,0.1930953997521661,-0.10775777940750121
1761475972077058300,2.776058349609375,-0.12846154474020002,0.21851861308850345,-0.2070557735055685
1761475972087095300,2.78609521484375,-0.4288911829918623,0.2825865778460167,-0.3741039462715387
1761475972097132300,2.79613232421875,-0.7592401586890221,0.36175635974332687,-0.5681856719136238
1761475972107169000,2.8061689453125,-1.0263321754842996,0.4807538375023752,-0.8161158921211957
1761475972117209600,2.816209716796875,-1.2783657393574714,0.6224811065290123,-1.073413660132885
1761475972127246600,2.82624658203125,-1.4102461526304482,0.7545718746170401,-1.2393033105134963
1761475972137283800,2.836283935546875,-1.4398989480942488,0.7962381292838603,-1.2771060946851969
1761475972147320800,2.84632080078125,-1.411667709866166,0.7651165033765137,-1.1555723033815621
1761475972157357600,2.856357666015625,-1.1478829179227352,0.6128375913277267,-0.7998124075740576
1761475972167394600,2.86639453125,-0.7521621831268072,0.37819764532595873,-0.32092882092297076
1761475972177431800,2.876431884765625,-0.46224166392982,0.1094636334773153,0.17945464987456797
1761475972187468800,2.88646875,-0.3047334729254246,-0.05250296170804649,0.6225374398261309
1761475972197505800,2.896505859375,-0.196741300240159,-0.11465261695515364,0.8771277024447918
1761475972207542800,2.906542724609375,-0.16318331403136252,-0.21810784033052621,0.9708739076346159
1761475972217578800,2.916578857421875,-0.038756139373779294,-0.33372659890409556,0.886312294897437
1761475972227615500,2.926615478515625,0.07349310623407364,-0.32263836478721347,0.6035118368387222
1761475972237652700,2.93665283203125,0.09622750061154366,-0.3973005513332784,0.4238999505758285
1761475972247689700,2.946689697265625,0.09557868131399154,-0.499893166529946,0.30200609378814697
1761475972257726700,2.956726806640625,-0.003233575093746185,-0.5200005003394559,0.2120043358236551
1761475972267763700,2.966763671875,-0.07374211255908011,-0.5179017379619181,0.20323533843457697
1761475972277800700,2.97680078125,0.011585223853588103,-0.49696116819866,0.18207506150603292
1761475972287837700,2.986837646484375,0.15685060387849806,-0.4178397372214123,0.115792617303133
1761475972297874700,2.996874755859375,0.18167466401159763,-0.24810813405774532,0.012308277431130409
1761475972307911700,3.00691162109375,0.03032499563694,-0.20379001317527143,-0.008996376404166222
1761475972317949000,3.016948974609375,-0.022391864550113678,-0.14877583583127707,-0.020457097095251082
1761475972327985700,3.026985595703125,0.10420856249332427,-0.047869018297083676,-0.10795593232810496
1761475972338022700,3.037022705078125,0.206933608430624,0.08137684522122145,-0.21408990992605684
1761475972348059600,3.0470595703125,0.1979191118478775,0.11137308382783084,-0.30357845767140385
1761475972358096600,3.0570966796875,0.19635610031485556,0.04229600393772125,-0.23789573292732238
1761475972368134000,3.0671337890625,0.2904536031603813,-0.1035443994961679,0.005499766460061073
1761475972378170600,3.077170654296875,0.3087877167522907,-0.2672694922540337,0.19349778827428818
1761475972388207600,3.08720751953125,0.3207961344540119,-0.2990644873782992,0.3737029642552137
1761475972398244600,3.09724462890625,0.23265257157683372,-0.2408852701321244,0.46146483433842655
1761475972408281900,3.10728173828125,0.10542612158954143,-0.2252529263122007,0.4739157351106405
1761475972418317800,3.11731787109375,0.06590484306216239,-0.2502499683920294,0.4617161787509918
1761475972428354800,3.127354736328125,0.16817630001306533,-0.20307386426255106,0.4259434391021728
1761475972438391800,3.137391845703125,0.2608808871954679,-0.12915643166918306,0.3624930034548044
1761475972448428500,3.147428466796875,0.13535656495094298,-0.11755443934388458,0.23237141654789448
1761475972458465800,3.1574658203125,0.07264554949402809,-0.09551800063531846,0.15865911460518836
1761475972468502800,3.167502685546875,0.0826788677304983,-0.014749313907697795,0.09489069904983043
1761475972478539800,3.177539794921875,0.08571896607875823,0.08559307467676698,-0.0006897358298301697
1761475972488576800,3.18757666015625,0.09425473923385143,0.21023736268375068,-0.09741758717894554
1761475972498613500,3.197613525390625,0.08708908538818359,0.3209675820307806,-0.19556933385133743
1761475972508650800,3.207650634765625,0.060548868986964224,0.38523170868121087,-0.3129097651183605
1761475972518687700,3.217687744140625,0.05727379283905029,0.4316078946046531,-0.3954232131540775
1761475972528724700,3.227724853515625,0.0851975725531578,0.47241048164684324,-0.4143061928004026
1761475972538761700,3.23776171875,0.16479425635933875,0.4856217357996851,-0.42610885879695415
1761475972548798700,3.247798828125,0.3630301790714264,0.49366172479446974,-0.4248690878689289
1761475972558835700,3.257835693359375,0.5544558372467756,0.49646859890874473,-0.40974341492950916
1761475972568872700,3.267872802734375,0.6314654271692037,0.45612022190745916,-0.3085527389526367
1761475972578909700,3.27790966796875,0.6536597233206033,0.3678423651261255,-0.17465806324779987
1761475972588945700,3.287945556640625,0.7136877833038568,0.29406194811696185,-0.06376490842401981
1761475972598983000,3.29798291015625,0.8390192133247851,0.24160266115386037,0.03853928175270557
1761475972609019600,3.30801953125,0.879212107503414,0.2101673661874607,0.10468903948664665
1761475972619056600,3.318056640625,0.9044424103498458,0.1571890055200085,0.14160978012681005
1761475972629093600,3.32809375,0.813463331785798,0.13421619014362804,0.1329728846848011
1761475972639131000,3.338130859375,0.6682014588922262,0.13357379145370796,0.07215338206291198
1761475972649168000,3.34816796875,0.6150409465909004,0.14734846990928052,-0.028925650233030318
1761475972659204600,3.35820458984375,0.6284224062114954,0.16206046574758365,-0.13317980543375013
1761475972669241600,3.36824169921875,0.5263210451304913,0.15861132994070648,-0.166875154286623
1761475972679278600,3.378278564453125,0.3372182769447565,0.09105724923363887,-0.17217092260718345
1761475972689315800,3.38831591796875,0.2419289339661598,-0.016505053267534823,-0.18525076893270015
1761475972699352800,3.398352783203125,0.18785715203881262,-0.15382610495816915,-0.29482056619822977
1761475972709389600,3.4083896484375,0.048722237592935556,-0.25427496785810216,-0.3520025891005993
1761475972719426600,3.418426513671875,-0.0289525382399559,-0.31297015353608876,-0.2975350858539343
1761475972729463800,3.4284638671875,-0.0365817179441452,-0.3499748826652765,-0.26205636071562766
1761475972739499800,3.438499755859375,0.025250176590681076,-0.3559387229731306,-0.2418418402045965
1761475972749536800,3.448536865234375,0.18042320264577866,-0.3431658237049356,-0.2526782915174961
1761475972759573800,3.45857373046875,0.3318108649432659,-0.29716632560677825,-0.2839718399256468
1761475972769610800,3.46861083984375,0.4015139312446117,-0.2231849974643439,-0.3020160306602716
1761475972779647700,3.478647705078125,0.40391748525500293,-0.15023681176193057,-0.29599428615272044
1761475972789684700,3.488684814453125,0.44961073041558264,-0.1304790220424533,-0.3022352263689041
1761475972799721700,3.4987216796875,0.5414192455410957,-0.1002034550378099,-0.33140286866426466
1761475972809758700,3.5087587890625,0.6369353830128908,-0.06118647277075797,-0.3623796062082052
1761475972819795700,3.518795654296875,0.7425941443145274,-0.038714419123902916,-0.3110340343743562
1761475972829832700,3.528832763671875,0.8201531848132609,-0.05378419715762138,-0.2108195099532604
1761475972839869700,3.53886962890625,0.8262941717863083,-0.1075902773534879,-0.06892915931940079
1761475972849906700,3.54890673828125,0.8769172745645045,-0.156002170355618,0.03632511283457279
1761475972859943700,3.558943603515625,1.0681517940819263,-0.1498035349112004,0.12567279080450533
1761475972869979600,3.568979736328125,1.1659358764857053,-0.13229816376101225,0.12283318346440791
1761475972880017000,3.579016845703125,1.1993565000504254,-0.09846380829624832,0.07659399485886097
1761475972890053600,3.5890537109375,1.2005085926949977,-0.07884484252557158,0.03652794193029404
1761475972900090600,3.599090576171875,1.1667840177476405,-0.05484137806035578,0.03428337787389755
1761475972910127600,3.609127685546875,1.1683844386816025,-0.05725136181153357,0.09884323606789111
1761475972920164900,3.619164794921875,1.147547402358055,-0.08852795908488333,0.21674247026145457
1761475972930201900,3.629201904296875,1.1821066745638846,-0.10045344774350523,0.32462825996279715
1761475972940238600,3.639238525390625,1.2750199360609054,-0.12471771856937557,0.3232826905727386
1761475972950275600,3.649275634765625,1.2828490222513675,-0.11715510129537433,0.20540333012342452
1761475972960312600,3.6593125,1.2080039168864487,-0.08179528982900082,0.1294739366531372
1761475972970349800,3.669349853515625,1.1133218921512364,-0.07276961426511407,0.12123393157422542
1761475972980385800,3.6793857421875,1.031771736189723,-0.11092124840710312,0.1307803430765867
1761475972990422800,3.6894228515625,0.9389420613229275,-0.1743411062531173,0.17568156107664107
1761475973000459800,3.699459716796875,0.8686720087885856,-0.16293489222824573,0.19786825844347475
1761475973010496500,3.70949658203125,0.7895002723962068,-0.11761278193499893,0.11768705274760723
1761475973020533800,3.71953369140625,0.7708522705495358,-0.16421364345978945,0.03922843306064606
1761475973030570800,3.72957080078125,0.6903174291104078,-0.1523399215210229,-0.010011106404662132
1761475973040607700,3.739607666015625,0.6979413481175899,-0.13678327328581363,-0.025315058520436286
1761475973050644700,3.749644775390625,0.6502618975758552,-0.052481261332891875,-0.08750292688608169
1761475973060681700,3.759681640625,0.45346623679995535,0.09049465604797005,-0.1608095706373453
1761475973070718700,3.76971875,0.039514264264702795,0.3122443965448066,-0.2780857044965029
1761475973080755700,3.779755615234375,-0.46016544217765326,0.6142115830946714,-0.5137801279872656
1761475973090791700,3.789791748046875,-0.9740753340244293,0.9273419321611523,-0.903901143079996
1761475973100828700,3.79982861328125,-1.2418582556933164,1.1812442125156521,-1.3209458209335803
1761475973110866000,3.809865966796875,-1.3086182542800902,1.2823700065627692,-1.741091387411952
1761475973120899300,3.8198994140625,0.1297486619412899,1.2375962143346666,-1.904745241564512
1761475973130936000,3.82993603515625,0.1801332797884941,1.2195768657803534,-1.7385563159763813
1761475973140973300,3.839973388671875,-1.991893363663554,0.9093754828378557,-1.4662071093052624
1761475973151010300,3.85001025390625,-2.296725036266446,0.48466965923923994,-1.0834189213186503
1761475973161047300,3.86004736328125,-0.9803530991196632,0.06507898669727147,-0.5037444716632365
1761475973171084300,3.870084228515625,0.7636258264273404,-0.0124898080104962,0.1573977163672447
1761475973181121300,3.880121337890625,0.934593802985549,0.03792776225823909,0.6586945026174187
1761475973191158300,3.890158203125,0.5826257006764411,-0.00007916618343442678,0.9820914672195911
1761475973201194200,3.9001943359375,0.5262818821638823,-0.051670858265459536,1.0526061421647668
1761475973211231200,3.910231201171875,0.8027695038139819,-0.028286475546658037,0.9536962706014513
1761475973221268200,3.920268310546875,0.9409791201084852,0.05113609380163252,0.7796998861327767
1761475973231305500,3.930305419921875,0.8511287533134222,0.12350859850794076,0.5493211047068238
1761475973241342200,3.94034228515625,0.7990694802522659,0.11911018088590353,0.3169865130379796
1761475973251379200,3.950379150390625,0.5230073905378579,0.15104958944953978,0.01652355703860521
1761475973261411000,3.9604111328125,0.4421282657057047,0.28842388743106273,-0.20769874758422374
1761475973271448000,3.970447998046875,0.6016776071488857,0.4315026441318914,-0.317409122364223
1761475973281485300,3.9804853515625,1.0670458786666392,0.5624969952853396,-0.3128215023130178
1761475973291522300,3.990522216796875,0.40358138516843317,0.5262942301888018,-0.34615532437711954
1761475973301559300,4.000559326171875,0.11003098503649233,0.5001483468674123,-0.38801439820230005
1761475973311596000,4.010595947265625,1.2438655038625002,0.5028013090616091,-0.6010837329089641
1761475973321632300,4.02063232421875,1.0833972940087317,0.46358200915548947,-0.7233806175395846
1761475973331669200,4.030669189453125,0.15180501092672347,0.37990956381037827,-0.8072285290494561
1761475973341706200,4.040706298828125,-1.0103647910237312,0.29820458261333405,-0.9648711600884795
1761475973351743200,4.0507431640625,-1.896274934861064,0.3069859280273318,-0.9593743162378668
1761475973361780200,4.0607802734375,-1.4231062187254429,0.47667255953811105,-0.8389905717521905
1761475973371817500,4.0708173828125,-0.6360059932082891,0.5907607840761542,-0.7774599982514977
1761475973381854200,4.080854248046875,-0.5439128159224986,0.505970988606289,-0.6992638288930058
1761475973391891200,4.09089111328125,-1.045154949375987,0.2808398620428517,-0.5732756885290146
1761475973401928200,4.10092822265625,-1.3471306480258702,0.05392689356394112,-0.42710079244375226
1761475973411964200,4.110964111328125,-1.153138938754797,-0.11218388875406235,-0.32078298271149397
1761475973422001400,4.12100146484375,-0.6289841317474841,-0.20317663051728158,-0.23876783958673475
1761475973432038400,4.131038330078125,0.03034720746874809,-0.11884067976213991,-0.20956892537027597
1761475973442075100,4.1410751953125,0.3256669553607702,-0.016938348384574056,-0.26640987975001335
1761475973452112100,4.151112060546875,-0.1623486167728901,0.010271182112954556,-0.4200368454068899
1761475973462149000,4.161149169921875,-0.37625966300070285,0.126701987721771,-0.5331880082905293
1761475973472186400,4.171186279296875,-0.2450315761566162,0.3051225453082472,-0.5767144308060407
1761475973482223400,4.181223388671875,-0.4714467146486044,0.3676979516867548,-0.636625294150412
1761475973492260000,4.191260009765625,-0.8829793510824442,0.3386936832595616,-0.6850201994851232
1761475973502296300,4.20129638671875,-1.1320610794126986,0.29946243718732146,-0.6285939633861184
1761475973512333000,4.2113330078125,-1.1293845536798237,0.27450881412411104,-0.5877493273004889
1761475973522370300,4.221370361328125,-0.97066114166677,0.3224851835194975,-0.6155626323774457
1761475973532407300,4.2314072265625,-0.9502449611037969,0.3921848157547414,-0.611112082709372
1761475973542444300,4.2414443359375,-1.1391600977629421,0.41136637648884206,-0.709746644462645
1761475973552481300,4.251481201171875,-1.149583876621723,0.3985436832621693,-0.8568085525155067
1761475973562518300,4.261518310546875,-1.0292132838785648,0.44033973832111806,-0.9066177085623145
1761475973572555300,4.27155517578125,-1.076479477444291,0.43237445853035894,-0.8572218094915152
1761475973582592300,4.28159228515625,-0.8653881648123264,0.36476427285503593,-0.7703294157192111
1761475973592628200,4.291628173828125,-0.7767892593830823,0.3676846172811463,-0.6810854903846979
1761475973602665200,4.301665283203125,-0.7689087352663279,0.4287602135559544,-0.5125134690523148
1761475973612702500,4.311702392578125,-0.41711949665546416,0.49892760943341996,-0.2596323484390974
1761475973622739200,4.3217392578125,-0.6428577587991953,0.4435791586337611,-0.1383142457127571
1761475973632776200,4.331776123046875,-0.42863516240417954,0.2569764088365249,-0.0400672219723463
1761475973642813200,4.341813232421875,0.10887480073869228,0.13071277599940076,0.05961188039779663
1761475973652850200,4.35185009765625,0.539637622821331,0.131369961266499,0.19056699551939962
1761475973662887400,4.361887451171875,0.0159597856760025,0.19584911890709772,0.0729912941917777
1761475973672924200,4.371924072265625,-0.21520050151646136,0.26272236860999837,-0.09604454526007175
1761475973682960400,4.38196044921875,0.3838812439203262,0.23638903642510994,-0.15341507647186517
1761475973692997000,4.3919970703125,1.2162334005713462,0.16526225746357812,-0.24278671983927486
1761475973703034000,4.4020341796875,1.4784791463792324,0.12334940762454644,-0.3122480863392353
1761475973713071400,4.4120712890625,0.44198155071139333,0.25426300342567265,-0.5584972215920686
1761475973723108400,4.4221083984375,-0.08465630528330803,0.3729461180059239,-0.6361135452359914
1761475973733145300,4.432145263671875,-0.10974866096377373,0.5689564370904118,-0.6914233445256948
1761475973743182000,4.44218212890625,0.07723521537184715,0.7499241949416696,-0.7491320216506719
1761475973753218000,4.452218017578125,0.014002806389331816,0.9793626998428254,-0.928935338832438
1761475973763255300,4.46225537109375,-0.06072656364142894,1.24135702817291,-1.0755658697307109
1761475973773292300,4.472292236328125,-0.15769757609665394,1.5221464386701582,-1.1155819460377097
1761475973783329300,4.482329345703125,-0.4069523229062557,1.8061977735728025,-1.0750544130772353
1761475973793366300,4.4923662109375,-0.3369686860978603,1.9138653904788194,-0.9295528862088918
1761475973803403300,4.5024033203125,0.10194821634590626,1.6782418402671813,-0.6810457428961992
1761475973813440300,4.512440185546875,0.2365612694531679,1.3480816651403904,-0.46739802377969025
1761475973823477200,4.522477294921875,0.19417466462254523,1.1009493173122404,-0.26527444597929717
1761475973833513200,4.53251318359375,0.35085283454358573,1.0470066416572779,-0.12141834823042154
1761475973843554300,4.54255419921875,0.5369534983038902,1.1319117340698837,-0.09122487001866102
1761475973853590300,4.55259033203125,0.5078700271606446,1.2472251895539461,-0.08793079690933227
1761475973863627300,4.562627197265625,0.47476212280690666,1.2888773426301776,-0.09523965861797332
1761475973873664300,4.572664306640625,0.5135580096691846,1.2919682943828403,-0.13751608107239008
1761475973883701200,4.582701171875,0.5188777433872223,1.3093237722009419,-0.1950210523188114
1761475973893738200,4.59273828125,0.506994413369894,1.3143689267612992,-0.26356998014897104
1761475973903775200,4.602775146484375,0.466348514726758,1.3054242805443703,-0.3822475052386522
1761475973913812200,4.612812255859375,0.42385435786843295,1.3149440963007508,-0.48950113451629873
1761475973923849500,4.622849365234375,0.35693244671821595,1.315600222121924,-0.5714746304564178
1761475973933885400,4.632885498046875,0.20464462071061132,1.3360907830953597,-0.6795962747402489
1761475973943922200,4.642922119140625,-0.0012853636354207992,1.3773371318496763,-0.8009887578770518
1761475973953959200,4.652959228515625,-0.13739829991161823,1.4260546932674945,-0.8841289595089852
1761475973963996200,4.66299609375,-0.1632055258631706,1.4852825427837668,-0.9636211600273847
1761475973974033400,4.673033447265625,-0.2222790616005659,1.5372652434773741,-1.0359650962263345
1761475973984070400,4.6830703125,-0.25089900688529015,1.5521657293587923,-1.0442020325653254
1761475973994107100,4.693107177734375,-0.24736148040890693,1.5450658342257142,-1.0067800644047558
1761475974004143400,4.703143310546875,-0.24734336023032663,1.5122352855086325,-0.8867145920880138
1761475974014180000,4.71318017578125,-0.1781950052022934,1.4230669096283615,-0.6823384130552411
1761475974024217300,4.72321728515625,-0.1727659658908844,1.2809732915073633,-0.4166090629152953
1761475974034254300,4.73325439453125,-0.29614275471270085,1.1634843916803597,-0.1615555666990578
1761475974044291300,4.743291259765625,-0.2205231578439474,1.1070287833563983,-0.01331964643076062
1761475974054328300,4.753328369140625,-0.0038169279396533962,1.0880372287690638,0.026699937007576224
1761475974064365000,4.763364990234375,0.06481412521600723,1.0353849582508206,0.054226680228114124
1761475974074402300,4.77340234375,0.12260931158065795,0.9245367385473102,0.11371858750805258
1761475974084438300,4.783438232421875,0.15343874960839748,0.7410546597875655,0.1476174961090088
1761475974094475300,4.793475341796875,0.16674714399278162,0.5405593407761305,0.14774565253332256
1761475974104512300,4.80351220703125,0.20414719258248804,0.35843240295238793,0.16862331312820314
1761475974114549200,4.81354931640625,0.26387013213932514,0.1888506931208074,0.13655717291235922
1761475974124590300,4.82359033203125,0.18750643890500068,0.019587730382196605,0.1252418520413339
1761475974134627300,4.83362744140625,-0.011074936243891715,-0.15398619089070706,0.19893501089215276
1761475974144664300,4.843664306640625,-0.10039864881634712,-0.3340738414391875,0.31443332142382857
1761475974154700300,4.8537001953125,0.07907295219302177,-0.6078849373564124,0.423814171988517
1761475974164737500,4.863737548828125,-0.00530512067079544,-0.8479018271561711,0.04826777182370424
1761475974174774500,4.8737744140625,-0.36144378666281696,-0.9180142779760062,-0.25239655196666716
1761475974184811300,4.883811279296875,-0.5400993951141834,-0.8467658819288015,-0.3137326258085668
1761475974194848300,4.89384814453125,-0.5078378784567117,-0.7982118405096232,-0.23141645391061902
1761475974204885500,4.903885498046875,-0.41754093693792815,-0.8815119088783859,-0.1604046430982649
1761475974214922500,4.913922607421875,-0.3039081280171871,-1.092458479277417,-0.13911767105013131
1761475974224959500,4.92395947265625,-0.2271323468506336,-1.372049400705099,-0.10839724635481834
1761475974234995500,4.933995361328125,-0.24466566545367238,-1.6582228423282503,-0.03330912601426243
1761475974245032200,4.9440322265625,-0.005917699611186981,-1.6996878022693096,0.05214198290854692
1761475974255069400,4.9540693359375,1.166968142142892,-1.372823307687044,0.3974330916717648
1761475974265106400,4.9641064453125,0.06777005241215228,-1.5267399039402603,0.1661819113254547
1761475974275143400,4.974143310546875,-0.3390630280286073,-1.746958818140626,-0.130397481238842
1761475974285180400,4.984180419921875,-0.13806056321263313,-1.7950819207966326,-0.1436913356412202
1761475974295217200,4.994217041015625,0.2517138303995132,-1.8361892994716762,0.01336655431240797
1761475974305253400,5.00425341796875,0.13591595239937304,-1.2816579127706587,-0.29125454427972436
1761475974315290400,5.014290283203125,-0.5721738647669553,-0.6031438072439282,-0.7303443190723657
1761475974325327400,5.024327392578125,-1.0157874005943537,-0.15290109906774013,-0.8189915936879814
1761475974335364400,5.0343642578125,-0.2204091760754585,-0.35212413312103596,-0.6497554093584418
1761475974345401300,5.0444013671875,0.3696165717244148,-0.7779312690250575,-0.4601318321689963
1761475974355438600,5.0544384765625,0.2932850271940231,-0.9367432361043989,-0.3055823448397219
1761475974365475300,5.064475341796875,0.24315935254395007,-0.8158964772168547,-0.22576573467254638
1761475974375512300,5.07451220703125,0.29334464842677116,-0.6371287866931409,-0.17303733017817138
1761475974385548300,5.08454833984375,0.38411855980753895,-0.5570172487000004,-0.12836524475887418
1761475974395585300,5.094585205078125,0.37342297827005383,-0.5299844630088657,-0.09755392690971493
1761475974405622500,5.10462255859375,0.5090829100817441,-0.5679977846587076,0.09668167411983013
1761475974415659500,5.114659423828125,0.7897095312327146,-0.6349228741466999,0.3888732069887221
1761475974425696300,5.1246962890625,1.3185323300510645,-0.8628294933054595,0.5757254197686911
1761475974435733200,5.134733154296875,1.3739508504122495,-0.8959455079004168,0.5032732008896768
1761475974445770200,5.144770263671875,1.3590513874441383,-0.675329338010773,0.1898546094663441
1761475974455807500,5.154807373046875,0.6703600982308388,-0.2751682096146047,-0.0798906983166933
1761475974465843500,5.164843505859375,0.440161934068799,0.10980085694189183,-0.03345657166093588
1761475974475880400,5.17488037109375,0.5680465557038784,0.3174719584673643,0.1241650165900588
1761475974485917400,5.18491748046875,0.8548071495652199,0.26672407853202895,0.28647096326500177
1761475974495954200,5.1949541015625,1.0367442639052866,-0.005491911947168409,0.4812066227711737
1761475974505991400,5.204991455078125,1.099721236822009,-0.21239793825112283,0.6731126118093729
1761475974516028400,5.2150283203125,1.3858382720828055,-0.4777720452126115,0.8366748421557247
1761475974526065400,5.2250654296875,1.6326123079925774,-0.886737169246003,0.9828789643354713
1761475974536101400,5.235101318359375,1.5713058986365793,-1.3273290922299026,1.1422652241714297
1761475974546138400,5.245138427734375,1.135878007352352,-1.2082215051598846,1.060876103990525
1761475974556175400,5.25517529296875,0.6878314575135708,-0.8492601829625666,1.0354437027007342
1761475974566212400,5.26521240234375,0.42325171580016613,-0.4620307976581156,1.0878929979927838
1761475974576249300,5.275249267578125,0.6218196469455957,-0.31460546312034127,1.068997012734413
1761475974586286300,5.285286376953125,0.8488812666475772,-0.306910086312145,1.1355440992228687
1761475974596323600,5.295323486328125,0.9969248792141675,-0.48892592844422905,1.2550544218748807
1761475974606360300,5.3053603515625,0.8543067988276482,-0.6885140329502523,1.1443969755031167
1761475974616397300,5.315397216796875,0.7996247760474682,-0.8225655066519976,1.0631477021843194
1761475974626433300,5.325433349609375,0.8110720527350902,-0.9105540981631726,1.025508876402676
1761475974636470300,5.33547021484375,0.7053402261972427,-0.9051271046783774,0.9972890363514423
1761475974646507300,5.34550732421875,0.3825736684530973,-0.6189296245925128,1.0053609913870691
1761475974656544500,5.35554443359375,0.16979542564749717,-0.28812139735314996,0.9187306095518172
1761475974666581500,5.36558154296875,-0.02862929763495922,0.03695791257908568,0.786158706883341
1761475974676618200,5.3756181640625,-0.3023421938747167,0.32802944670841094,0.6778747116446495
1761475974686655200,5.3856552734375,-0.1833306145250797,0.34095399287436157,0.5175337814323604
1761475974696691200,5.395691162109375,0.059663902845978736,0.2089859378505498,0.39375118828862904
1761475974706728400,5.405728515625,0.020615502527356146,0.01515210428861901,0.35423823919817804
1761475974716765400,5.415765380859375,-0.2486959438830614,-0.18116967363152653,0.35420462918952106
1761475974726802400,5.425802490234375,-0.6145692374259233,-0.2519651565457694,0.38606954774484037
1761475974736839200,5.435839111328125,-0.7337023973286152,-0.25589948205370455,0.3761765147618949
1761475974746876400,5.44587646484375,-0.5177753351032733,-0.2773169851463288,0.33205782544165846
1761475974756913400,5.455913330078125,-0.3528291030526161,-0.40801129390727725,0.35083237627744673
1761475974766950400,5.465950439453125,-0.2541869425147772,-0.7200538112044333,0.357814490249753
1761475974776986400,5.475986328125,-0.1753232491582632,-0.8616934019476175,0.36414603135883805
1761475974787023400,5.4860234375,-0.28205519264936446,-0.6978449020057916,0.3996028369262814
1761475974797060600,5.496060546875,-0.2190373032003641,-0.4581793829269707,0.39579540746733544
1761475974807097300,5.506097412109375,-0.12881108883023262,-0.23106981416372582,0.3614147066988051
1761475974817134300,5.51613427734375,-0.08197451885342598,-0.0795250616083853,0.31525282111316916
1761475974827171300,5.52617138671875,0.10370938079953193,0.04870798987187445,0.24465945490859448
1761475974837208300,5.536208251953125,0.40129532005786894,0.21199185993457212,0.15862645444460213
1761475974847245600,5.54624560546875,0.76129533765316,0.2576775793758221,0.08703099852539599
1761475974857281500,5.556281494140625,1.304676238656044,0.2935014646899886,0.0020512334413826465
1761475974867318300,5.566318359375,1.427969440847635,0.246231343867816,-0.05916720537021756
1761475974877355300,5.576355224609375,1.0130027383118867,0.08668178322892636,-0.25625848809182644
1761475974887392300,5.586392333984375,1.003320717731118,-0.11335099630467593,-0.41988202017135917
1761475974897429500,5.596429443359375,1.1188614060997961,-0.16335205819439141,-0.4099239591281861
1761475974907466500,5.606466552734375,0.8220674940019845,-0.043687147768866265,-0.4187419102255255
1761475974917503200,5.616503173828125,0.38368250647783275,-0.026825714245135895,-0.4048036204397678
1761475974927540200,5.626540283203125,0.554544684574008,-0.28747809448093176,-0.17242592028155923
1761475974937576200,5.636576171875,1.095819553208351,-0.46674007132761175,0.01037489821575582
1761475974947613400,5.646613525390625,1.7115759545922278,-0.4061299006074667,-0.0037702392537146807
1761475974957650400,5.656650390625,1.9125936169773339,-0.16961080806190146,-0.08898337470218538
1761475974967687400,5.6666875,1.7043372355103492,0.05494653720157221,-0.15440993272811174
1761475974977724400,5.676724365234375,1.4807237104356288,0.20230832325015216,-0.26456008716486396
1761475974987761400,5.686761474609375,1.4746785850524902,0.11288542461954057,-0.255141357162781
1761475974997798400,5.69679833984375,1.3159376373827456,0.041599326910451054,-0.11262030740994959
1761475975007835400,5.70683544921875,0.9871329685181379,-0.058674161156266925,-0.054319582675956185
1761475975017871400,5.716871337890625,1.122671904298663,-0.12228300223574042,-0.1701027380309999
1761475975027908400,5.726908447265625,1.7580746709167956,0.10282499918043612,-0.37486039066202936
1761475975037945300,5.7369453125,2.146642026826739,0.5817978715501725,-0.7360424576487392
1761475975047982300,5.746982421875,2.021951817318797,0.4620687915809452,-0.6726362264692783
1761475975058019300,5.757019287109375,1.6225322280049324,0.3887964884907007,-0.3759401121901348
1761475975068056300,5.767056396484375,1.3872376174867151,0.502622043504566,-0.19401666104923931
1761475975078093300,5.77709326171875,1.4290209957271813,0.4255998863615095,0.12451129101077094
1761475975088130600,5.787130615234375,1.2766571818739174,0.23814663894847035,0.1470937644958496
1761475975098166500,5.79716650390625,0.7324690561413765,0.26995909666419027,-0.0814027194479946
1761475975108203500,5.80720361328125,0.3475181371629238,0.8345869299657642,-0.0979287698377855
1761475975118236000,5.81723583984375,0.3194803756803274,1.4010114374257623,-0.1099091852877289
1761475975128273000,5.82727294921875,0.04739245029389858,1.405597157780826,-0.2832290222017094
1761475975138310000,5.837309814453125,-0.5156348159432411,0.9036138505712151,-0.4189869710277766
1761475975148347000,5.847346923828125,-1.0620534772068262,0.25859423756301403,-0.34390487856920804
1761475975158383900,5.8573837890625,-0.854616595429182,-0.1539060748592019,-0.18455493215564636
1761475975168419800,5.867419921875,-0.3673556410551071,-0.3711576636865735,-0.20628796747084704
1761475975178456800,5.877456787109375,-0.06950666694641112,-0.534631046705693,-0.30175836610477413
1761475975188494000,5.887494140625,-0.12249532981216907,0.05017170574888587,-0.2914309968251735
1761475975198530800,5.89753076171875,-0.2474889061808586,0.9368765070952475,-0.3931169089730829
1761475975208567800,5.90756787109375,-0.14535773448348044,1.1265725649990141,-0.5042467586295679
1761475975218604800,5.917604736328125,-0.12031038698852062,0.9281200769267975,-0.35481764652132985
1761475975228642000,5.92764208984375,-0.37211072662770744,0.5758135364435613,0.038876222089491784
1761475975238679000,5.937678955078125,-0.8642986160099506,0.4859794631961733,0.19691539643174036
1761475975248715000,5.947715087890625,-1.2290367680430412,0.1850175446987152,0.3758172164628282
1761475975258751700,5.957751708984375,-1.506240429008007,-0.3900003843877464,0.6412262851398438
1761475975268788700,5.967788818359375,-1.2963386184215544,-0.23308365647047757,0.5644167113015428
1761475975278826000,5.977825927734375,-1.038073466682434,0.14870203994270415,0.4479734115373343
1761475975288863000,5.987863037109375,-0.952557329699397,0.4162472438655793,0.36187063377276063
1761475975298900000,5.99789990234375,-1.2305167774677277,0.37153278060927986,0.25908428610228
1761475975308937000,6.00793701171875,-1.4585527951598167,0.220453015217185,0.3907528101902455
1761475975318973700,6.0179736328125,-1.3443500773966313,0.15353172512147575,0.5777331793945283
1761475975329009700,6.028009765625,-1.1467670656353235,0.15613193421512842,0.6108436410315334
1761475975339047000,6.038046875,-1.0005676196306943,0.20598010709807277,0.573418604131043
1761475975349084000,6.048083984375,-0.8928168544858693,0.2882001982104033,0.5093374328320845
1761475975359121000,6.058120849609375,-0.8010925105124711,0.3829403098084032,0.3798034730874002
1761475975369158000,6.068157958984375,-0.7594856578826904,0.46556240585036573,0.2187857943910174
1761475975379195000,6.07819482421875,-0.7847446023017167,0.5232957059599459,0.11707868419145233
1761475975389231900,6.08823193359375,-0.9235504309237003,0.3970366397000849,-0.022948977843066674
1761475975399268900,6.098268798828125,-0.9773889886170625,0.3183805246796459,-0.023785698095266705
1761475975409304800,6.108304931640625,-0.8871832325130701,0.4167436490803957,0.10366930451747029
1761475975419341800,6.118341796875,-0.706415746474266,0.5152770154815167,0.10884951103380881
1761475975429379000,6.128379150390625,-0.6718558897465468,0.5617863262653351,0.0313836150115123
1761475975439415800,6.138415771484375,-0.6161217275649309,0.5867497218038886,-0.058959791430924086
1761475975449452800,6.148452880859375,-0.5107739319086074,0.6404900067545474,-0.1597406079652719
1761475975459489800,6.15848974609375,-0.37831542648673055,0.7521345644675195,-0.23534073294857516
1761475975469526800,6.16852685546875,-0.3030734307587147,0.8601105897355824,-0.3397216380678117
1761475975479563000,6.17856298828125,-0.19274550860226153,0.9213008253660052,-0.39287783952020106
1761475975489600000,6.18860009765625,-0.014459902507066726,0.9008503772072494,-0.35957499711625274
1761475975499637000,6.198636962890625,0.1266331602692604,0.8291393320843576,-0.2997732932347804
1761475975509673700,6.208673828125,0.12127192549705505,0.7613103160265833,-0.26991414327761154
1761475975519710700,6.218710693359375,0.12829437147974967,0.727929513015598,-0.3243281445050612
1761475975529748000,6.228748046875,0.30145839677751063,0.7715572039484977,-0.4281999127920717
1761475975539785000,6.238784912109375,0.45722997324764725,0.9298150442764163,-0.48326063269153235
1761475975549822000,6.248822021484375,0.5368558831483126,1.0154847643859684,-0.4461259570397436
1761475975559858000,6.25885791015625,0.6414952382743359,0.9651200202830136,-0.3403505470884964
1761475975569895000,6.26889501953125,0.7367547706365585,0.8479181207038462,-0.25835535077322275
1761475975579932000,6.278931884765625,0.7463216404050588,0.7933705379582942,-0.26425788934789596
1761475975589969000,6.288968994140625,0.7159896305054426,0.7916796622619032,-0.28136194968819617
1761475975600006000,6.299005859375,0.6003384674996137,0.7868537034101784,-0.344606998956576
1761475975610043000,6.30904296875,0.37496786962449546,0.7532658335197716,-0.3844091037193313
1761475975620079900,6.319079833984375,0.30290859558582306,0.7992419142097235,-0.4215126535804942
1761475975630116900,6.329116943359375,0.09064707013070583,0.8697481866527348,-0.5080925108049065
1761475975640152800,6.33915283203125,-0.22709552197158336,0.9299117826491594,-0.553013529483974
1761475975650189800,6.34918994140625,-0.39310266125202176,1.00663247262761,-0.5684867006868124
1761475975660226800,6.359226806640625,-0.4278261841088533,1.0735944965925066,-0.5130783363934606
1761475975670263800,6.369263916015625,-0.46304421248435973,0.9944627268843352,-0.43181532681025564
1761475975680301000,6.379301025390625,-0.4182727583438158,0.8219361227072775,-0.34956396377682686
1761475975690337800,6.389337890625,-0.39843993062675,0.6472933300938457,-0.281293962485902
1761475975700374800,6.399374755859375,-0.38772213725745674,0.5050913562275469,-0.21515253418888897
1761475975710411800,6.409411865234375,-0.2699094123035669,0.4278941347785294,-0.13475631576916203
1761475975720447700,6.41944775390625,-0.17019874575138091,0.4165795445598662,-0.10825375536405481
1761475975730485000,6.429485107421875,-0.19637538953721523,0.4246279725894332,-0.08751617909329942
1761475975740522000,6.43952197265625,-0.18445581916272638,0.42420317130610347,0.010177475947514177
1761475975750559000,6.44955908203125,-0.1391851833283901,0.38880467179715633,0.09394486956708133
1761475975760595700,6.459595703125,-0.16200199529230594,0.3187302879653871,0.1138498035391327
1761475975770633000,6.469633056640625,-0.13319675656855107,0.25638014171011747,0.09997934569204225
1761475975780670000,6.479669921875,-0.11043898131549358,0.1732271536618471,0.1277140873737633
1761475975790707000,6.48970703125,-0.11661328603625297,0.07084536820426583,0.17091761634415015
1761475975800743000,6.499742919921875,-0.06834756003916263,-0.020306728839129207,0.2090898000838235
1761475975810780000,6.50977978515625,-0.05118307474851608,-0.09687142453826963,0.26716984953815115
1761475975820817000,6.51981689453125,-0.0936544352531433,-0.15418123853877186,0.3713190647933632
1761475975830854000,6.52985400390625,-0.1609621308505535,-0.2068587165635079,0.4564632997240871
1761475975840891000,6.539890869140625,-0.2990162643224001,-0.2509044137127697,0.4791693082572892
1761475975850927900,6.549927978515625,-0.4398252494603395,-0.3022271161276847,0.40880233468711374
1761475975860964900,6.55996484375,-0.49875148568153377,-0.32116248354837296,0.37284024647865444
1761475975871000800,6.570000732421875,-0.5922229655832052,-0.3382048402966931,0.35766510837432
1761475975881037800,6.580037841796875,-0.6311223128199577,-0.37610980620123446,0.3480063956039026
1761475975891074800,6.59007470703125,-0.5785930841594934,-0.4027662328606471,0.30265199047625063
1761475975901111800,6.60011181640625,-0.5793371805250644,-0.42034711693245913,0.30294458021465687
1761475975911148800,6.610148681640625,-0.6353039824187755,-0.49035672843232747,0.3566177547458559
1761475975921186000,6.62018603515625,-0.6530231789827347,-0.5524139926882461,0.3502083991602063
1761475975931223000,6.63022314453125,-0.6512959167987108,-0.5667267052769661,0.31817670920323576
1761475975941259800,6.640259765625,-0.644338937267661,-0.5536658924454823,0.28157997635304927
1761475975951295700,6.650295654296875,-0.5914841299146414,-0.5887002348171547,0.20752010308168828
1761475975961332700,6.660332763671875,-0.5990747311741114,-0.6398821770545094,0.09898673619180917
1761475975971370000,6.670369873046875,-0.5694529153704643,-0.6284376037806272,-0.03884513283148408
1761475975981407000,6.680406982421875,-0.48710664059519765,-0.5031203484155238,-0.22162432401888071
1761475975991444000,6.69044384765625,-0.4999269592016935,-0.3766353644452989,-0.3103135746126994
1761475976001480700,6.700480712890625,-0.46507250344157214,-0.305482903053239,-0.29803843226619064
1761475976011517700,6.710517578125,-0.2854740611821413,-0.35366109689734876,-0.25215002985969187
1761475976021554000,6.720553955078125,-0.12958558033406734,-0.42527869158312676,-0.2058081115320325
1761475976031591000,6.7305908203125,0.017948913666605948,-0.4969827224433422,-0.17165643374640494
1761475976041628000,6.7406279296875,0.14528759185671805,-0.5436159518677741,-0.1559886167543009
1761475976051665000,6.750664794921875,0.18260288477241993,-0.571974469737336,-0.15323606664314865
1761475976061702000,6.760701904296875,0.21742226921916008,-0.5783863095410168,-0.19882387866787612
1761475976071739000,6.77073876953125,0.2264870346844196,-0.5356948765449225,-0.26591986774336546
1761475976081775900,6.78077587890625,0.1495557706952095,-0.4836855070400983,-0.28676932515706866
1761475976091811800,6.790811767578125,0.06455576654076575,-0.4812938626632094,-0.2551928316216916
1761475976101848800,6.800848876953125,0.07198503975868224,-0.4853552668832242,-0.21169629278779029
1761475976111885800,6.8108857421875,0.0517225884526968,-0.4391643013335764,-0.18035207363832742
1761475976121923300,6.82092333984375,0.05009001881480217,-0.38326596156619486,-0.19326924021542072
1761475976131960300,6.830960205078125,0.1263853229880333,-0.3424009402796626,-0.17874763411637395
1761475976141997300,6.840997314453125,0.21005612436532972,-0.33500374270044264,-0.1268215224482119
1761475976152034300,6.851034423828125,0.2457633975625038,-0.4055671521581709,-0.05054247529003769
1761475976162071600,6.861071533203125,0.2930067947745323,-0.49490664682164787,0.0454415719544515
1761475976172107500,6.871107421875,0.39629181268215175,-0.5232661876045167,0.06302234642840922
1761475976182144500,6.88114453125,0.41200843725204467,-0.4745410274021327,0.051492798284813755
1761475976192181200,6.89118115234375,0.37931846604943276,-0.44407874218635257,0.05253346644416451
1761475976202218200,6.90121826171875,0.3886386675804853,-0.4406934836622327,0.09693886375129222
1761475976212255500,6.91125537109375,0.3333294528126716,-0.4426429372295737,0.16439310994623227
1761475976222292500,6.92129248046875,0.21203414644002913,-0.4231796734772622,0.21318249449124557
1761475976232329500,6.93132958984375,0.12501520367860794,-0.41336942340694366,0.279940264588315
1761475976242365400,6.941365478515625,0.11880875025391578,-0.3953118617340922,0.3390591921037063
1761475976252402400,6.95140234375,0.0757774177789688,-0.3645229018472135,0.36773316913060844
1761475976262439400,6.961439453125,-0.013219547057151794,-0.35239816428944465,0.38232356614954766
1761475976272476400,6.971476318359375,-0.06305471432805061,-0.36583171942345794,0.38334779463075097
1761475976282513400,6.981513427734375,-0.040672786650061604,-0.37039106322824955,0.3998354401057586
1761475976292550400,6.99155029296875,-0.10180383943915366,-0.3864372120134532,0.4364217976924032
1761475976302587400,7.00158740234375,-0.16664193005263805,-0.42283948173746466,0.4826750878885388
1761475976312623400,7.011623291015625,-0.19764730916917322,-0.47258887042105197,0.5010152658950537
1761475976322660400,7.021660400390625,-0.28137188656032086,-0.4892245095320046,0.49110276102665806
1761475976332697300,7.031697265625,-0.3903934022933244,-0.4689841239273548,0.4854998629856854
1761475976342734300,7.041734375,-0.46944823430776594,-0.45936508558019995,0.48150567878298456
1761475976352771300,7.051771240234375,-0.5564332747995853,-0.4688640777442604,0.4863520593682304
1761475976362808600,7.06180859375,-0.632528087964654,-0.5135047816446051,0.5083237622775137
1761475976372844500,7.071844482421875,-0.6544423981308937,-0.5726044016713276,0.5131954964997246
1761475976382881300,7.08188134765625,-0.6403244409292936,-0.6165906602509319,0.48852830742876974
1761475976392918300,7.091918212890625,-0.6294476576060056,-0.6315668417170643,0.49699532619658854
1761475976402955300,7.101955322265625,-0.5077630596548318,-0.6217831143274903,0.512452569177933
1761475976412992500,7.111992431640625,-0.3437316043615341,-0.6247104730162769,0.522986932271719
1761475976423029500,7.122029541015625,-0.24421616812050342,-0.6598692454852163,0.5473905385030433
1761475976433066500,7.13206640625,-0.13447042976617812,-0.7238285074375569,0.5757145695811137
1761475976443102500,7.1421025390625,-0.09044248746931552,-0.7925102678671478,0.607492503972724
1761475976453139200,7.15213916015625,-0.0654471624225378,-0.8311750756956636,0.6175798174187541
1761475976463176400,7.162176513671875,-0.023436405166983604,-0.8470283322572708,0.6474348574563861
1761475976473213400,7.17221337890625,-0.04423661661148071,-0.8573987734936177,0.6943414239294826
1761475976483250400,7.18225048828125,-0.06394260307848453,-0.8860339163474739,0.7039191804181784
1761475976493287400,7.192287353515625,-0.022954759129881857,-0.8952003886215388,0.6888357391852885
1761475976503323400,7.202323486328125,-0.06515197886824607,-0.8799144105538725,0.6731916683949529
1761475976513360400,7.2123603515625,-0.09120704210102558,-0.8454774495534598,0.6469225240200758
1761475976523397400,7.2223974609375,-0.13416004864275455,-0.8359729774966835,0.6670902097146958
1761475976533434400,7.232434326171875,-0.23020225581526754,-0.8941467879153787,0.7130553306192159
1761475976543471400,7.242471435546875,-0.25338147135078903,-0.9511514084242284,0.7149969662062823
1761475976553508400,7.25250830078125,-0.2604360660374164,-0.9515448647212237,0.6773240920245647
1761475976563545300,7.26254541015625,-0.2839338460028171,-0.9322066886533051,0.6294960267923772
1761475976573581600,7.27258154296875,-0.2802396676599979,-0.9161598092157394,0.5893918338105082
1761475976583618300,7.282618408203125,-0.29145547367930413,-0.9042309595562517,0.5684954685151576
1761475976593655300,7.2926552734375,-0.2877180407166481,-0.8910786325164138,0.5625755769468843
1761475976603692300,7.3026923828125,-0.2210194169282913,-0.8780129608467221,0.5381055178832262
1761475976613729500,7.3127294921875,-0.11397066257297991,-0.8472415366165339,0.490060595029965
1761475976623766500,7.3227666015625,-0.062006666579842565,-0.7987702781099826,0.4484788037762046
1761475976633802500,7.332802490234375,-0.026424481067061422,-0.7501732743319124,0.4176529459450394
1761475976643839200,7.342839111328125,0.012185527834296226,-0.7317605425458401,0.3858957255478948
1761475976653876200,7.352876220703125,0.07801262948513031,-0.7141805352568626,0.3929255511194467
1761475976663913500,7.36291357421875,0.12019056000113487,-0.7132995877038687,0.37155601535439486
1761475976673950500,7.372950439453125,0.1349076521396637,-0.7070877274516969,0.4106206361554563
1761475976683987500,7.382987548828125,-0.08536649937927722,-0.4983024267397821,0.17932737023308873
1761475976694023400,7.3930234375,-0.4668839367777109,-0.24525128332190213,0.4003463487699628
1761475976704060400,7.403060302734375,0.6658861676871776,-0.6280790726665407,0.5617291892506182
1761475976714097200,7.41309716796875,0.4627174647480249,-0.721465577698499,0.19535349914357064
1761475976724134400,7.423134521484375,-0.13894319126605986,-0.14846114385891704,-0.017493863375484944
1761475976734171400,7.43317138671875,-0.25866730279922484,0.3582848842404783,-0.0522410593688488
1761475976744208400,7.44320849609375,-0.13890870447456835,0.4255128656651824,-0.0709983668088913
1761475976754244400,7.453244384765625,-0.2517623457163572,0.2304286849822849,-0.11595321469232439
1761475976764281300,7.46328125,-0.6376034915328025,0.08017879454307257,-0.11725085328742861
1761475976774318300,7.473318359375,-0.9116121558487414,-0.022691505083814262,0.011490385176986456
1761475976784355300,7.483355224609375,-1.0806985564440488,-0.20571075210478157,0.17927666295915842
1761475976794392300,7.493392333984375,-1.2507763061642645,-0.49423159710429604,0.3478166817180812
1761475976804429300,7.50342919921875,-1.238959027120471,-0.7114199845023452,0.45251785003393885
1761475976814466600,7.513466552734375,-1.0366945795446634,-0.716132911433652,0.44412586926370856
1761475976824502500,7.52350244140625,-0.6655278557687997,-0.5889589588185772,0.39279870986938475
1761475976834539500,7.53353955078125,-0.2516939566552639,-0.4701703380372375,0.3442727255009115
1761475976844576300,7.543576171875,0.09275427154302597,-0.43246549781467764,0.32189065169245
1761475976854613200,7.55361328125,0.26792145335674283,-0.4800535802785307,0.3002612959474325
1761475976864650500,7.563650390625,0.2578396198034286,-0.5798201052037999,0.3627237434707582
1761475976874687500,7.5736875,0.26478140176534654,-0.7004704282037914,0.5307610734045505
1761475976884723500,7.583723388671875,0.28829905547499657,-0.7941231829565017,0.6609951807752251
1761475976894760400,7.593760498046875,0.2683288651138544,-0.8542900668885558,0.5643642139293253
1761475976904797400,7.60379736328125,0.17271920413970945,-0.8140305372145027,0.37717721623703837
1761475976914834200,7.613834228515625,0.17171265744566916,-0.6557859947595744,0.13178089842125773
1761475976924871400,7.623871337890625,0.2826759548962116,-0.48864247186034915,-0.10133008444756268
1761475976934908400,7.633908447265625,0.26939795565009117,-0.3100825788684189,-0.24035905430093407
1761475976944944400,7.6439443359375,0.12987491866946219,-0.17714050944698972,-0.27945801576301454
1761475976954981400,7.6539814453125,0.07403963420093058,-0.12430047953799367,-0.2457296414233744
1761475976965018400,7.664018310546875,0.03264028684198856,-0.1397194546018727,-0.18876871392577885
1761475976975055400,7.674055419921875,0.06756722331643104,-0.1378610037862323,-0.18572583909854293
1761475976985092400,7.68409228515625,0.13586802160441874,-0.10144651390146464,-0.20628990369960665
1761475976995129300,7.69412939453125,0.21276655236780642,-0.0631555991529487,-0.23600801948457956
1761475977005165300,7.704165283203125,0.2613233702659607,-0.06522835943954997,-0.257003461240232
1761475977015202300,7.714202392578125,0.2463864978969097,-0.08198682121257297,-0.28580329313650726
1761475977025239600,7.724239501953125,0.2324392210870981,-0.08909252503192983,-0.3101885234609246
1761475977035276300,7.7342763671875,0.1448597218334675,-0.031636763222096485,-0.33935207410305734
1761475977045313300,7.744313232421875,0.07233575289249419,0.09348677793550304,-0.346790407410264
1761475977055350300,7.754350341796875,-0.017446809363365172,0.2061353524587117,-0.33792627908363937
1761475977065386200,7.76438623046875,-0.13944412652552127,0.2858113485787995,-0.36077845462188124
1761475977075423500,7.774423583984375,-0.16773440146446228,0.34204708534069356,-0.40326398978233335
1761475977085460500,7.78446044921875,-0.2068845085918903,0.398627087229304,-0.4501971520014107
1761475977095497500,7.79449755859375,-0.26319442483484745,0.47546530264019965,-0.5303457706019282
1761475977105534200,7.8045341796875,-0.2289455337524414,0.5354275308456271,-0.6320574017129839
1761475977115571200,7.8145712890625,-0.19913900903165338,0.6073222619723528,-0.6788710292056203
1761475977125607700,7.824607666015625,-0.17110358563661573,0.6765457280632108,-0.6971968133606016
1761475977135645000,7.83464501953125,-0.05865267997682094,0.7334405315220356,-0.6910770153060555
1761475977145682000,7.844681884765625,0.04999941792190075,0.7687593899235129,-0.6565476998470723
1761475977155719000,7.854718994140625,0.15981939055621622,0.8344949408333748,-0.6456802688740193
1761475977165755600,7.864755615234375,0.2569523155748844,0.8718945510316639,-0.6416574430987239
1761475977175793000,7.87479296875,0.3712415425777435,0.8796229533266275,-0.6740459471367299
1761475977185828900,7.884828857421875,0.5356120205670595,0.8629710937332361,-0.733168290451914
1761475977195865900,7.894865966796875,0.6471183388531208,0.8295197097040712,-0.7504222075916827
1761475977205902800,7.90490283203125,0.7601087582170963,0.7602522583410143,-0.7306019470952451
1761475977215939800,7.91493994140625,0.8548971659362316,0.6677689126938581,-0.6797614021740853
1761475977225976800,7.924976806640625,0.9117226304858922,0.5744527329517528,-0.6488995231814683
1761475977236013800,7.935013916015625,0.8666706058382988,0.4709312028745189,-0.6104327221430838
1761475977246050800,7.94505078125,0.9168968182533979,0.41046632237657904,-0.5477339816458523
1761475977256083700,7.955083740234375,1.0532347954571246,0.3567940976934507,-0.5138583077900112
1761475977266121000,7.965120849609375,1.0248217709213494,0.33507669833879916,-0.5173091788962483
1761475977276158000,7.975157958984375,0.8797580509483813,0.38672614849004894,-0.5351761133678257
1761475977286194700,7.985194580078125,1.1138427011549472,0.3165660956688225,-0.4586357483923435
1761475977296231000,7.99523095703125,1.2064607790976762,0.24016302027218042,-0.41211964254155753
1761475977306267600,8.005267578125,0.9545072947233915,0.29019465996325017,-0.3843411165170371
1761475977316305000,8.015304931640625,0.8094178557872772,0.32606614727880806,-0.38578254749700425
1761475977326342000,8.025341796875,0.7913421008706092,0.3348173532828688,-0.4058114823080599
1761475977336379000,8.03537890625,0.6445838519394398,0.31886713915280995,-0.38822804095298047
1761475977346415900,8.045415771484375,0.5083212780594826,0.301907674914971,-0.3512058857649564
1761475977356452900,8.055452880859375,0.3882429462611675,0.2969743101660162,-0.31465573200285435
1761475977366488800,8.06548876953125,0.344688466694951,0.29146906381323934,-0.314105258513242
1761475977376525800,8.07552587890625,0.30143443138003345,0.28685769756026563,-0.3438981931000948
1761475977386562800,8.085562744140624,0.2263660386532545,0.2883595534905791,-0.39905879317745563
1761475977396599800,8.095599853515624,0.18284253874719142,0.27792101545408365,-0.4085338930092752
1761475977406637000,8.105636962890625,0.15252923354804515,0.2328078352037817,-0.3903118614897132
1761475977416673800,8.115673828125,0.12671323976814747,0.18944529801309107,-0.3678209204792976
1761475977426710000,8.1257099609375,0.10592705684900283,0.12739654585719107,-0.3367993208803236
1761475977436746800,8.135746826171875,0.16028876163363456,0.06604110972769558,-0.3226186737060547
1761475977446783700,8.14578369140625,0.2220440838009119,0.025143574411049485,-0.3080027038544416
1761475977456820700,8.15582080078125,0.24211715001463888,-0.020938962328061462,-0.26644509719386694
1761475977466858000,8.16585791015625,0.25549334893822667,-0.0993859646424651,-0.20042349588423966
1761475977476895000,8.17589501953125,0.2563461663752794,-0.17394962271749972,-0.1199349778048694
1761475977486931000,8.185930908203124,0.2723801863312721,-0.24244813553467393,-0.08802066714987158
1761475977496967700,8.1959677734375,0.3157061178386211,-0.2741119054947048,-0.0941438262052834
1761475977507004700,8.206004638671875,0.29697102223038674,-0.2982152501378208,-0.12885638927668333
1761475977517042000,8.2160419921875,0.3225830178707838,-0.34573132681138813,-0.10354060010388492
1761475977527079000,8.226078857421875,0.38751346294283867,-0.4117939907837659,-0.024589082333445547
1761475977537116000,8.236115966796875,0.510679823884368,-0.4604032695215195,0.038230508064478634
1761475977547152600,8.246152587890625,0.5970329962134361,-0.5218905153371394,0.0702463793978095
1761475977557188900,8.25618896484375,0.6350087988644838,-0.5699549466084689,0.10475041428506374
1761475977567225900,8.266225830078126,0.7001584396451711,-0.6165498898491263,0.13814458823427558
1761475977577262800,8.276262939453124,0.8253244499713182,-0.6366543741144239,0.1803248568378389
1761475977587299800,8.2862998046875,0.832283183068037,-0.6423292779456824,0.2242677511997521
1761475977597336800,8.2963369140625,0.7851426617085934,-0.6417281702473759,0.282905525868386
1761475977607374000,8.3063740234375,0.7710293806821107,-0.6565431698024272,0.2997102379359305
1761475977617410000,8.31641015625,0.8340840950101613,-0.700684144019708,0.2993100596372038
1761475977627446800,8.32644677734375,0.8201432479411364,-0.7259112319957465,0.33299327966086567
1761475977637483800,8.33648388671875,0.5320850154846907,-0.6048568947721272,0.28264716719314453
1761475977647520800,8.346520751953125,0.7170815173953771,-0.6877884220894426,0.598176978616789
1761475977657557800,8.356557861328126,1.0257973379552363,-1.0001275477129965,0.5419403468057513
1761475977667595000,8.366594970703124,0.6677946316570044,-1.0356763424128292,0.4643905125267803
1761475977677631700,8.3766318359375,0.4657756832748651,-0.8704383608739823,0.49341472776345907
1761475977687668000,8.38666796875,0.5154600438982248,-0.7698154748477041,0.4825190936092287
1761475977697704700,8.39670458984375,0.5222638786941767,-0.8141433499392121,0.4795743453942239
1761475977707741700,8.40674169921875,0.40448447148799893,-0.9004407734930515,0.4203697306230664
1761475977717779000,8.416779052734375,0.35458676037490366,-0.9527272063735872,0.3896281900744885
1761475977727816000,8.42681591796875,0.28422610694766043,-0.9919937794875353,0.4106437247700989
1761475977737853000,8.43685302734375,0.19456044906973838,-1.0147766161166132,0.43668826660886406
1761475977747889000,8.446888916015626,0.24008067575097083,-1.0101485909897834,0.440053797519207
1761475977757925600,8.456925537109376,0.20443711543977258,-0.9744061003487556,0.4397852827761322
1761475977767963000,8.466962890625,0.08724573725461959,-0.9184170866232365,0.39918833784125746
1761475977778000000,8.476999755859374,0.027418752801418304,-0.8651694805603474,0.38657793565839527
1761475977788036900,8.487036865234375,-0.003226560831069946,-0.8126863560639321,0.34061186490580436
1761475977798073900,8.497073974609375,-0.09329203168153763,-0.7333641783501953,0.27285313760526475
1761475977808110800,8.50711083984375,-0.27222587255239483,-0.6096660486195236,0.16342099524475634
1761475977818147000,8.51714697265625,-0.31338556593656536,-0.4596647991791367,0.01921783762387931
1761475977828183800,8.527183837890625,-0.259493232229352,-0.2615273684054613,-0.1153720538035035
1761475977838220800,8.537220703125,-0.24253800577521323,-0.05855082703754305,-0.19303280111104248
1761475977848260900,8.5472607421875,-0.35288171002268787,-0.004587546985968947,-0.22119462736472487
1761475977858297900,8.5572978515625,-0.5868792664676904,-0.07578034038841724,-0.1861309127680957
1761475977868334800,8.5673349609375,-0.8260738070338964,-0.1585677099946886,-0.14810666786544024
1761475977878371800,8.577371826171875,-1.0174795914649963,-0.1794716740746051,-0.08673764160200953
1761475977888408800,8.587408935546875,-1.1751321593761443,-0.12446801812462507,-0.05534947371296584
1761475977898444800,8.59744482421875,-1.2871195391774177,-0.021551833529397844,-0.0805974583465606
1761475977908481800,8.607481689453126,-1.3221966977775097,0.06793569130264222,-0.060778439959138626
1761475977918518800,8.617518798828126,-1.332265087327361,0.08845927776284515,-0.0032185967203229664
1761475977928555800,8.6275556640625,-1.3792086248099804,0.010487491744756699,0.07518748906180261
1761475977938593000,8.637593017578125,-1.3581003703296184,-0.09401230878010391,0.1529413214802742
1761475977948629800,8.647629638671875,-1.1956249123066662,-0.15819390824623406,0.2123985227730125
1761475977958666800,8.657666748046875,-1.0110744005978107,-0.13677899896949527,0.2123890973575413
1761475977968702700,8.66770263671875,-0.8041770325243472,-0.05311886511668563,0.19385398130081594
1761475977978739700,8.67773974609375,-0.47146600387096405,0.03848769769594073,0.17230470505468545
1761475977988777000,8.68777685546875,-0.1352168642193079,0.0949937210328877,0.16258001437596975
1761475977998814000,8.69781396484375,0.0963385597705841,0.14128317852094768,0.17944515139386058
1761475978008850700,8.7078505859375,0.23245091152489183,0.18060528121441602,0.20308387419991195
1761475978018887700,8.7178876953125,0.4329249685525894,0.17082820276133714,0.2156126625139266
1761475978028923600,8.727923583984374,0.5496043055623769,0.18468663224391638,0.21536453297175465
1761475978038961000,8.7379609375,0.5902864445626735,0.24219701031781732,0.20124781787917018
1761475978048998000,8.747997802734375,0.6609703385949135,0.3352807330109179,0.16322262312844393
1761475978059035000,8.758034912109375,0.826628518307209,0.4566793536275625,0.06160955702103674
1761475978069072000,8.76807177734375,0.9442898520916699,0.5158868179429322,-0.05329926318489015
1761475978079108900,8.77810888671875,0.8122136239856481,0.5299404777366667,-0.16872801561169326
1761475978089145900,8.788145751953126,0.6272679754793643,0.5204670584052801,-0.24953020275011656
1761475978099181800,8.798181884765626,0.5419897389054298,0.507673335544765,-0.27648426064923404
1761475978109218800,8.80821875,0.38476854814887046,0.5500400666311382,-0.29629268457740543
1761475978119255800,8.818255859375,0.2400508651345968,0.5895090304493904,-0.2999334522325545
1761475978129291500,8.82829150390625,0.16899053900539873,0.6186218738175928,-0.2990144376914948
1761475978139328800,8.838328857421875,0.07160685409605502,0.6275709039486944,-0.3243173673827201
1761475978149365800,8.84836572265625,-0.09632745385468006,0.6468558154594153,-0.33578561379313465
1761475978159402500,8.858402587890625,-0.1905816085666418,0.6780280025102198,-0.36789603154212236
1761475978169438700,8.868438720703125,-0.11413549774587153,0.7060578729473054,-0.39520474809780715
1761475978179475500,8.878475341796875,-0.044269934359192846,0.6868814633123577,-0.3834747089460492
1761475978189512700,8.8885126953125,-0.09310615372061729,0.6883312237292528,-0.34482721757851537
1761475978199549700,8.8985498046875,-0.16768471710383892,0.7215208150170743,-0.2925451686121523
1761475978209586700,8.908586669921876,-0.1892348701328039,0.7604137325130402,-0.26904073971025644
1761475978219623700,8.918623779296874,-0.10882219376862048,0.8034308172669261,-0.27597667645327745
1761475978229660400,8.928660400390624,-0.06239654268026352,0.8697909298159181,-0.23596147692911326
1761475978239696600,8.938696533203125,-0.05859247422218322,0.8791643228389322,-0.18627828534953295
1761475978249733600,8.948733642578125,0.008439911565184593,0.8275331389967352,-0.11440854253359138
1761475978259770600,8.9587705078125,0.018609423401951788,0.7567550638750195,-0.01972629860267043
1761475978269807600,8.9688076171875,-0.04268295742869377,0.7241124389454722,0.0961900912106037
1761475978279844600,8.9788447265625,-0.07163900279998779,0.7203291210144758,0.2521576286442578
1761475978289881600,8.988881591796876,0.05127659825086593,0.7386354698166251,0.35262503184787924
1761475978299918600,8.998918701171876,0.2804793216347694,0.8156173680145293,0.4132259232830256
1761475978309954600,9.00895458984375,0.32168636129200456,0.8629293734833597,0.4387990482177585
1761475978319991600,9.018991455078124,0.26423428927659987,0.8177609559144824,0.47712804822064936
1761475978330028500,9.029028564453125,0.24770108762681484,0.7192565233469009,0.5140797685209662
1761475978340065800,9.039065673828125,0.30419337469935415,0.6707137339740992,0.5016179810285568
1761475978350102800,9.049102783203125,0.32623160350620745,0.7055485351856797,0.4476892608337104
1761475978360139500,9.059139404296875,0.41197862663567064,0.7584604064881801,0.4186364770896733
1761475978370176500,9.069176513671875,0.45611470548212524,0.7951534758523107,0.42363618507310746
1761475978380212500,9.07921240234375,0.3708230249047279,0.7915578625131398,0.44870070289857683
1761475978390249700,9.089249755859376,0.24162556710541247,0.7734232900813222,0.48064942727982995
1761475978400286700,9.09928662109375,0.13007657872140407,0.7652268318831921,0.5202862950108945
1761475978410323700,9.10932373046875,0.004674421551823616,0.7399821351852267,0.5571217685203999
1761475978420360400,9.1193603515625,-0.14683482129871844,0.6788641610734164,0.6032234483513981
1761475978430397400,9.1293974609375,-0.226723181527853,0.6201026138946414,0.6145139270421117
1761475978440434700,9.1394345703125,-0.33818273806273935,0.6003923531113192,0.5844612455405295
1761475978450470700,9.149470703125,-0.4912310270488262,0.5761155150648206,0.5087862652227282
1761475978460507600,9.159507568359375,-0.66118193551898,0.537654559245333,0.432295803803578
1761475978470544600,9.169544677734375,-0.6643336775481701,0.5065025016671046,0.3653580374971032
1761475978480581600,9.17958154296875,-0.5089525617003441,0.49127482965793456,0.2847685432612896
1761475978490618600,9.18961865234375,-0.4188701397150755,0.5129311099424958,0.17959164719246326
1761475978500655600,9.199655517578124,-0.4489806158185005,0.5631883020177483,0.11814276062585413
1761475978510692600,9.209692626953125,-0.6301321327388286,0.5509563777584582,0.1477283360723406
1761475978520728600,9.219728515625,-0.7197130349427461,0.4468973798036575,0.20485534085184334
1761475978530765600,9.229765625,-0.575921234601736,0.3333569984067231,0.22771168110854922
1761475978540802800,9.239802734375,-0.47159576773047446,0.302701674836874,0.20776531001441179
1761475978550839600,9.249839599609375,-0.36065585115551946,0.3202546845210716,0.14786182625889777
1761475978560876500,9.25987646484375,-0.14447685999572277,0.312014387181215,0.0847114695366472
1761475978570913500,9.26991357421875,0.007872340810298918,0.270384592067264,0.07663184265121817
1761475978580950800,9.27995068359375,0.06459609855115413,0.23952044805232434,0.053708428507670755
1761475978590986800,9.28998681640625,0.08297755841612815,0.19269165952317416,0.0704834030240774
1761475978601023700,9.300023681640624,0.11502046388685702,0.16768018705919385,0.09221877642683685
1761475978611060700,9.310060791015625,0.1796761836707592,0.17257848049476743,0.07790544278360903
1761475978621097500,9.320097412109375,0.2416623919844627,0.17872951393779365,0.07754450051672757
1761475978631134700,9.330134765625,0.18693711458444595,0.16143248830866067,0.08347980884984135
1761475978641171700,9.340171630859375,0.14316694644093514,0.15629918054081499,0.06250738264359533
1761475978651208700,9.350208740234375,0.10843757836520672,0.13956727798115462,0.022227686964347956
1761475978661245700,9.36024560546875,0.11492927847206592,0.11234496106728911,-0.06151566819250583
1761475978671281700,9.37028173828125,0.14162030152082442,0.08402553309909999,-0.17002580033726988
1761475978681318400,9.380318359375,0.12598960166871548,0.04779942365959287,-0.21526914630588143
1761475978691355600,9.390355712890624,0.012941899159550666,0.07986417563594878,-0.18817524154465645
1761475978701392600,9.400392578125,-0.05429682285487652,0.027941096175089476,-0.12377470209822058
1761475978711429600,9.4104296875,-0.08772329163849353,-0.05623246709257364,-0.07751026945356279
1761475978721466600,9.420466552734375,-0.10414835673868655,-0.11091419761180878,-0.10461791047919541
1761475978731503600,9.430503662109375,-0.16127894171476362,-0.11662731456160545,-0.16557601785417644
1761475978741539800,9.440539794921875,-0.22211071929633616,-0.15806370599530636,-0.2144114700306207
1761475978751576600,9.45057666015625,-0.28082185146212574,-0.20653138430528342,-0.25563206328917293
1761475978761613600,9.460613525390626,-0.3151508220434189,-0.23305450344122944,-0.2861529833570123
1761475978771650600,9.470650634765626,-0.34593992806077,-0.20091062181405722,-0.308152195327729
1761475978781687800,9.480687744140624,-0.347327583026886,-0.14358816752769052,-0.35846243276447054
1761475978791724800,9.490724853515625,-0.330885566791892,-0.1268998483814299,-0.40722178749740123
1761475978801761500,9.500761474609375,-0.41233927664160724,-0.13960202050097287,-0.39810901817195116
1761475978811797500,9.510797607421875,-0.4457996476948261,-0.16848507370129226,-0.3757328626476228
1761475978821834500,9.52083447265625,-0.4612637588083744,-0.19982005009837447,-0.34464280092231925
1761475978831871700,9.530871826171875,-0.40012686080038545,-0.23577837544716893,-0.3329452758006751
1761475978841908700,9.54090869140625,-0.37221535604596134,-0.25165223640538753,-0.3367106196835637
1761475978851945700,9.55094580078125,-0.4348544753104448,-0.25860819302313026,-0.33572124332003295
1761475978861982500,9.560982421875,-0.4717845683008432,-0.2701193287272006,-0.3155365334253758
1761475978872019500,9.57101953125,-0.3812012110561132,-0.29110286084935066,-0.2979895516231656
1761475978882055400,9.581055419921874,-0.3746721015483141,-0.3083054861932993,-0.3308319369085133
1761475978892092700,9.5910927734375,-0.33983751953244207,-0.313809636567533,-0.371235112836957
1761475978902129700,9.601129638671875,-0.2312064644217491,-0.3390526527650654,-0.36290582203939553
1761475978912166700,9.611166748046875,-0.1752577827066183,-0.3578052840299904,-0.2694407353458926
1761475978922203600,9.62120361328125,-0.10081658196747302,-0.4034581241149455,-0.15181297503747046
1761475978932240600,9.63124072265625,0.03987257618308067,-0.45094621680304403,-0.0454935578700155
1761475978942277600,9.641277587890626,0.11264788953661918,-0.513295778536424,0.06949406319316476
1761475978952314600,9.651314697265626,0.1521487097978592,-0.6140702018626034,0.13785093904994428
1761475978962350600,9.6613505859375,0.18697627755105495,-0.6788150612346827,0.1632818059697747
1761475978972387600,9.6713876953125,0.33232232159674163,-0.5461194591213018,0.2797944081105292
1761475978982424800,9.6814248046875,0.28713644143640993,-0.4642369294002652,0.34462796867936846
1761475978992461600,9.691461669921875,0.2600882755130529,-0.4927992262136191,0.37904253518488257
1761475979002498600,9.70149853515625,0.3028291006088257,-0.5451912383604794,0.3593610621046275
1761475979012535600,9.71153564453125,0.3611772446811199,-0.5543403941735625,0.3654507572818547
1761475979022572500,9.721572509765625,0.4044166669487953,-0.5179008611790835,0.43823019882123915
1761475979032608800,9.73160888671875,0.36193244696259497,-0.5099321473222226,0.5442812108434737
1761475979042645800,9.741645751953126,0.3919172508597374,-0.5322208437588065,0.598721789550595
1761475979052682800,9.751682861328124,0.4662649280965328,-0.5544641666837036,0.5840529204679653
1761475979062719500,9.761719482421874,0.4952870244413614,-0.5414797435566783,0.5111921938532963
1761475979072756500,9.771756591796875,0.4684264900445938,-0.48013702077828346,0.4171839767264202
1761475979082793700,9.781793701171875,0.43881402659118174,-0.4288743779875338,0.34983204012848435
1761475979092830700,9.791830810546875,0.33503333412110803,-0.39458252454623577,0.2868941205805167
1761475979102867700,9.80186767578125,0.22955226747393606,-0.391342154385522,0.20371563276480883
1761475979112903700,9.811903564453125,0.16659283021390436,-0.4050871135562658,0.09336568143963814
1761475979122940700,9.821940673828125,0.11043956583738326,-0.40819903503172095,0.010841346683725715
1761475979132977700,9.831977783203126,0.0005886135429143905,-0.40844599553011357,-0.02235427248608321
1761475979143015000,9.842014892578124,-0.190695005813241,-0.42653029907941814,-0.005951930674351752
1761475979153052000,9.852052001953124,-0.27534546587765213,-0.4651080131463706,0.08091755714640021
1761475979163089000,9.8620888671875,-0.3419143258064985,-0.5085319982007146,0.185868316309154
1761475979173125600,9.872125732421875,-0.5117518370300531,-0.4907223468743264,0.20332966565452515
1761475979183163000,9.882162841796875,-0.6206202080279588,-0.45495779053196306,0.13014167984686792
1761475979193198800,9.89219873046875,-0.6010965923905373,-0.3945922422226518,0.024866657165810463
1761475979203235800,9.90223583984375,-0.49636137567460537,-0.33592012689299877,-0.10974661513715982
1761475979213272800,9.91227294921875,-0.46505789039433,-0.3041105917867273,-0.18472469923198223
1761475979223309800,9.922309814453126,-0.29202772060930726,-0.25615853484869,-0.16878069564700127
1761475979233346800,9.932346923828124,0.0032277298748493192,-0.20739106987453995,-0.15438801315724848
1761475979243383800,9.9423837890625,0.00609247165620327,-0.11999920214749872,-0.20154417047724127
1761475979253420800,9.9524208984375,0.09622808513343334,-0.10426796453036367,-0.1757774957317859
1761475979263456800,9.962456787109375,0.600250204694271,-0.1792070317890495,-0.14314016803186386
1761475979273493800,9.97249365234375,0.7806815906465053,-0.10428908038362861,-0.1637037211762741
1761475979283531000,9.982531005859375,0.6951590239226818,0.007575111429393291,-0.17141623178236184
1761475979293568000,9.992568115234375,0.7031921082526444,0.07875745650306344,-0.2660198940517381
1761475979303604700,10.002604736328125,0.6800941412597894,0.1198863894227892,-0.47003841875325886
1761475979313641700,10.012641845703126,0.6784639097094536,0.15019487231634557,-0.6321570626951754
1761475979323678700,10.0226787109375,0.6400339335501194,0.20932116115428506,-0.6308922303911298
1761475979333716000,10.032716064453124,0.5335141715049744,0.2605011671628803,-0.610262297479622
1761475979343752000,10.042751953125,0.4388596192985773,0.23556327139176428,-0.5222100661477074
1761475979353789000,10.052788818359375,0.45620998255014417,0.19240195586159825,-0.3473751484956592
1761475979363826000,10.062825927734375,0.4198907149344682,0.245983543119207,-0.26376670829746873
1761475979373862700,10.072862548828125,0.3777425950348377,0.30465587764456864,-0.27923670116253196
1761475979383900000,10.08289990234375,0.34175182872116566,0.3193560917135328,-0.3167347667666152
1761475979393937000,10.09293701171875,0.335766324570775,0.34754107964709396,-0.3912478271655738
1761475979403974000,10.102973876953126,0.3273199832648039,0.42081345580257473,-0.4710892064478248
1761475979414009900,10.113009765625,0.13381576524972916,0.45399369474016127,-0.5372867488462477
1761475979424046800,10.123046875,-0.03824702080786228,0.4326936440147459,-0.5799427452027798
1761475979434083800,10.133083740234374,-0.16366846719980238,0.46934112067148087,-0.5571255313800647
1761475979444120800,10.143120849609375,-0.2830237454205751,0.518360222319141,-0.5458921166388317
1761475979454157800,10.15315771484375,-0.3345002501577139,0.5886623504921794,-0.5614004687529057
1761475979464194800,10.16319482421875,-0.31667525513172146,0.6316257322974502,-0.5737716918850317
1761475979474231800,10.173231689453125,-0.24026304658055303,0.6497778403859585,-0.5515744000589474
1761475979484268800,10.183268798828125,-0.030099370187520978,0.6328275823678821,-0.5267883338486775
1761475979494304800,10.1933046875,0.10803893443644046,0.6256274417307227,-0.5288666744926944
1761475979504341800,10.203341796875,0.1632856053620577,0.6101737058807164,-0.5431839901912957
1761475979514378800,10.213378662109376,0.1967342859774828,0.6038826429124922,-0.5323674856878817
1761475979524415700,10.223415771484374,0.22141163111627102,0.6131472417987883,-0.5323254366444423
1761475979534453000,10.233452880859375,0.24729075326025485,0.5733453196991235,-0.501605925264582
1761475979544490000,10.243489990234375,0.20601240193247794,0.5424290071055293,-0.45917412958536297
1761475979554526700,10.253526611328125,0.11776537868082523,0.5303766041316091,-0.43165286625754085
1761475979564562700,10.263562744140625,0.14174188207387922,0.5371875993207097,-0.4060241021454334
1761475979574599700,10.273599609375,0.16539689842760563,0.5273830483388156,-0.418827688812837
1761475979584637000,10.283636962890625,0.27692776663303376,0.5160769336875528,-0.4133213099488988
1761475979594674000,10.293673828125,0.4241927960425615,0.537793163998425,-0.40829117029458284
1761475979604711000,10.3037109375,0.4965940153867006,0.547268775286898,-0.36052933869902043
1761475979614747600,10.31374755859375,0.4657189846515655,0.5167873469792306,-0.2456627136670053
1761475979624785000,10.323784912109375,0.384784330239892,0.4746213260967284,-0.16314679967956616
1761475979634822000,10.33382177734375,0.36341128734350203,0.41581703575477,-0.1760755470965989
1761475979644857900,10.34385791015625,0.37764907153248783,0.35178507389239966,-0.1934228416082449
1761475979654894800,10.353894775390625,0.3784884449660778,0.3200198893845081,-0.24628055330440402
1761475979664931800,10.363931884765625,0.3463280505955219,0.3166857034604996,-0.3014361484130844
1761475979674968800,10.37396875,0.35616029330193993,0.28390936914868653,-0.2952501897871494
1761475979685005800,10.384005859375,0.4064811982631683,0.2697428966302424,-0.24290862918589262
1761475979695042800,10.394042724609376,0.40482057157456874,0.254300558957085,-0.18886505043972282
1761475979705079800,10.404079833984374,0.3382517116457224,0.23625381093919276,-0.1669599647595547
1761475979715115800,10.41411572265625,0.3282452814161777,0.22172332741394638,-0.17969165523452682
1761475979725152800,10.42415283203125,0.3290279562264681,0.21069982909634707,-0.2137935025290586
1761475979735190000,10.43418994140625,0.351104178956151,0.22488142611868678,-0.22698049902347847
1761475979745226800,10.444226806640625,0.320857509252429,0.25149010464623567,-0.24468285405049098
1761475979755263700,10.454263671875,0.29700141736865043,0.27201529854163525,-0.24450957984281702
1761475979765300700,10.46430078125,0.23604630566835402,0.21097762312442064,-0.19824551252434028
1761475979775338000,10.474337890625,0.19325813429951666,0.20983700172193348,-0.18032370606036854
1761475979785375000,10.484375,0.16824994977116584,0.23418190003596245,-0.19102971766032278
1761475979795411000,10.494410888671876,0.14941314735412597,0.24888116425685583,-0.16603061148757114
1761475979805448000,10.504447998046874,0.06386719975471496,0.2803766649778932,-0.16927213242575526
1761475979815484700,10.514484619140624,-0.12671323976814747,0.3051009179983288,-0.1882523071025498
1761475979825522000,10.52452197265625,-0.22469138343930242,0.295896744062379,-0.2226503791309893
1761475979835559000,10.534558837890625,-0.26172084515094757,0.3265436651300639,-0.2928231818359345
1761475979845596000,10.544595947265625,-0.39384734213948247,0.3412969976257533,-0.3550597116488963
1761475979855633000,10.5546328125,-0.5271937363117933,0.3582818155005574,-0.4109956800129264
1761475979865668900,10.5646689453125,-0.6059697513848543,0.3719657651990652,-0.43744120386801655
1761475979875705600,10.57470556640625,-0.6963362510085106,0.3762303638409823,-0.4347102445341646
1761475979885742800,10.584742919921876,-0.7205769582957029,0.4028462027616799,-0.4410297298792749
1761475979895779800,10.59477978515625,-0.6154658940047025,0.433350427423045,-0.5048416923154145
1761475979905816800,10.60481689453125,-0.5154378320664167,0.44310427113100886,-0.5356857433903962
1761475979915853800,10.614853759765625,-0.4515221169948578,0.43019196339212357,-0.5088455941945315
1761475979925890800,10.624890869140625,-0.37275486975014205,0.359822176810354,-0.48850196741111573
1761475979935927000,10.634927001953125,-0.29049101256132126,0.316167013348639,-0.4634774893350899
1761475979945963800,10.6449638671875,-0.19644787025153634,0.32418935708887875,-0.48620684221126137
1761475979956000800,10.655000732421875,-0.1029915879189968,0.3256431360937655,-0.4857102543333545
1761475979966037800,10.665037841796876,-0.061226329857110975,0.3313515768684447,-0.42828970996737475
1761475979976075000,10.675074951171876,-0.07435469149947166,0.3164757139716297,-0.38640791285373266
1761475979986112000,10.685112060546874,-0.02332709957361221,0.3011066607303917,-0.38329876785725353
1761475979996148700,10.695148681640624,0.13679507332146168,0.28618790853992104,-0.44159941952601073
1761475980006185700,10.705185791015625,0.11062485927641391,0.2461556117504835,-0.4867777374343946
1761475980016221700,10.7152216796875,0.08826163629889487,0.20386209203079342,-0.4811164602696895
1761475980026259000,10.725259033203125,0.12328034271001816,0.172448716635257,-0.50026331501659
1761475980036296000,10.7352958984375,0.1812526392072439,0.16744053308442233,-0.5812481287129223
1761475980046333000,10.7453330078125,0.23803952531218528,0.15406440722607076,-0.598400887033157
1761475980056369700,10.75536962890625,0.2377116085320711,0.13254508772678672,-0.5551648622989654
1761475980066406700,10.76540673828125,0.27406828554868695,0.11560988114736974,-0.5692964826997369
1761475980076444000,10.77544384765625,0.38139994849860664,0.1094001397870481,-0.5864995099024847
1761475980086480000,10.78547998046875,0.43273032276332374,0.13977350461035967,-0.5587478353522718
1761475980096516900,10.795516845703125,0.38154432540535926,0.12667005821354688,-0.4801588307512924
1761475980106553900,10.805553955078125,0.32425650404095646,0.11549619163982569,-0.4134130798855796
1761475980116590800,10.8155908203125,0.2929962733805179,0.147489339684695,-0.4097837834725156
1761475980126628600,10.825628662109375,0.23369068245291708,0.17270510254912078,-0.44719482838027175
1761475980136665900,10.835665771484376,0.29131694199144836,0.1671486374657601,-0.45580198627114293
1761475980146702800,10.845702880859376,0.3638981940776109,0.17181779832057653,-0.4515528043940663
1761475980156738800,10.85573876953125,0.3994534915834665,0.24627478115074336,-0.45005752433501184
1761475980166775800,10.86577587890625,0.4298217418402433,0.3525415182828903,-0.38851197246089575
1761475980176812500,10.8758125,-0.4179898497492075,0.23521562699787318,-0.13956431883908807
1761475980186849500,10.885849609375,-0.3786141171723604,0.15056260965019463,-0.14768763873577118
1761475980196886800,10.89588671875,-0.14500760587155817,0.24529709522500634,-0.3654588675230741
1761475980206923800,10.905923828125,-0.19060791205167768,0.3989054292466491,-0.3787039143476635
1761475980216960800,10.915960693359375,-0.23810148463249206,0.4666307657342404,-0.27678930801041424
1761475980226997500,10.92599755859375,-0.17010054607391356,0.4210455840580165,-0.18447920003831386
1761475980237033700,10.93603369140625,-0.16385200707316397,0.32311763620413836,-0.1500702230233699
