time,seconds_elapsed,z,y,x
1761475999522876400,0.11487646484375,0.3614797592163086,0.2137458473443985,-0.1861349195241928
1761475999532913400,0.124913330078125,0.38749244809150696,0.12752759456634521,-0.21226905286312103
1761475999542949400,0.134949462890625,0.39811190962791443,0.08498048037290573,-0.19849559664726257
1761475999552986400,0.144986328125,0.4019652307033539,0.057691071182489395,-0.15875723958015442
1761475999563022600,0.155022705078125,0.40131253004074097,0.011641012504696846,-0.11238882690668106
1761475999573059600,0.1650595703125,0.39125990867614746,-0.04206296429038048,-0.05662010237574577
1761475999583095600,0.175095458984375,0.38573741912841797,-0.06182582676410675,-0.003317698836326599
1761475999593132500,0.185132568359375,0.38923442363739014,-0.04676831141114235,0.042985353618860245
1761475999603168500,0.19516845703125,0.40110868215560913,-0.04525655880570412,0.06492781639099121
1761475999613205500,0.20520556640625,0.41463327407836914,-0.05651720240712166,0.06289263069629669
1761475999623241500,0.215241455078125,0.4342629611492157,-0.06471388787031174,0.03663478419184685
1761475999633278700,0.22527880859375,0.4567781388759613,-0.06328350305557251,-0.003844733349978924
1761475999643315500,0.2353154296875,0.47128137946128845,-0.04757368937134743,-0.05379457026720047
1761475999653351400,0.245351318359375,0.48934322595596313,-0.03911415860056877,-0.09808666259050369
1761475999663388400,0.255388427734375,0.5063498616218567,-0.05099700391292572,-0.12449777126312256
1761475999673424400,0.26542431640625,0.5260889530181885,-0.07483415305614471,-0.11211273074150085
1761475999683461400,0.27546142578125,0.5442838072776794,-0.0718861073255539,-0.06799819320440292
1761475999693497300,0.285497314453125,0.5599187016487122,-0.030475547537207603,-0.005935888271778822
1761475999703534600,0.29553466796875,0.559891402721405,0.03055882267653942,0.048548925668001175
1761475999713570600,0.305570556640625,0.5505700707435608,0.08408303558826447,0.07581276446580887
1761475999723607600,0.315607666015625,0.5222217440605164,0.10920081287622452,0.08174176514148712
1761475999733643500,0.3256435546875,0.4864629805088043,0.12457311153411865,0.07520902901887894
1761475999743680500,0.335680419921875,0.456821084022522,0.13503479957580566,0.059721529483795166
1761475999753716500,0.345716552734375,0.4439969062805176,0.12462876737117767,0.03677040711045265
1761475999763753500,0.35575341796875,0.4379822611808777,0.09934937953948975,0.022064432501792908
1761475999773789400,0.36578955078125,0.4496663510799408,0.079753577709198,0.009824546985328197
1761475999783826700,0.37582666015625,0.47403398156166077,0.07256783545017242,-0.0070729441940784454
1761475999793862700,0.385862548828125,0.5146713852882385,0.0429135300219059,-0.036251068115234375
1761475999803899600,0.395899658203125,0.5586373805999756,0.003395715495571494,-0.07429596036672592
1761475999813936400,0.405936279296875,0.5973280668258667,-0.020574864000082016,-0.08684664219617844
1761475999823972400,0.415972412109375,0.6028041839599609,-0.05549117177724838,-0.07056966423988342
1761475999834009300,0.42600927734375,0.5666499137878418,-0.10429546236991882,-0.013177481479942799
1761475999844045300,0.43604541015625,0.529130220413208,-0.14463834464550018,0.05948500335216522
1761475999854082600,0.44608251953125,0.5032919645309448,-0.1499585509300232,0.14001047611236572
1761475999864118500,0.456118408203125,0.5020747184753418,-0.14312295615673065,0.20405010879039764
1761475999874155500,0.466155517578125,0.5120970010757446,-0.13117149472236633,0.2560366094112396
1761475999884191500,0.47619140625,0.5294458866119385,-0.11449995636940002,0.2756176292896271
1761475999894228500,0.486228515625,0.5417800545692444,-0.08553595095872879,0.2790461778640747
1761475999904264400,0.496264404296875,0.5620456337928772,-0.053913697600364685,0.266120582818985
1761475999914301400,0.506301513671875,0.5829351544380188,-0.028507407754659653,0.21449095010757446
1761475999924337400,0.51633740234375,0.5954133868217468,-0.013783404603600502,0.1575085073709488
1761475999934374700,0.526374755859375,0.599815845489502,-0.0176809411495924,0.09441981464624405
1761475999944410600,0.53641064453125,0.5834266543388367,-0.0418429970741272,0.030146442353725433
1761475999954447600,0.546447509765625,0.5507422089576721,-0.07116600126028061,-0.018697263672947884
1761475999964484400,0.556484375,0.5045384168624878,-0.0894947201013565,-0.048632144927978516
1761475999974520300,0.566520263671875,0.4510597586631775,-0.0995582714676857,-0.06269016861915588
1761475999984557300,0.576557373046875,0.3949965238571167,-0.10913653671741486,-0.06608136743307114
1761475999994593500,0.586593505859375,0.3444904685020447,-0.10688216984272003,-0.06003199517726898
1761476000004630500,0.596630615234375,0.31063443422317505,-0.08639400452375412,-0.048014022409915924
1761476000014666500,0.60666650390625,0.280972957611084,-0.06635105609893799,-0.03035220503807068
1761476000024703500,0.616703369140625,0.2497563362121582,-0.060104720294475555,-0.017780832946300507
1761476000034739500,0.626739501953125,0.22250661253929138,-0.04646241292357445,0.001618698239326477
1761476000044776400,0.6367763671875,0.19734883308410645,-0.051778070628643036,0.006420418620109558
1761476000054812400,0.6468125,0.17269302904605865,-0.0648597851395607,0.01287245936691761
1761476000064849700,0.656849609375,0.14636245369911194,-0.10320693254470825,0.013267598114907742
1761476000074885600,0.6668857421875,0.11160074174404144,-0.14989960193634033,0.012855340726673603
1761476000084922600,0.676922607421875,0.06158154830336571,-0.1974855661392212,0.019033795222640038
1761476000094958600,0.68695849609375,0.002692129462957382,-0.2356766313314438,0.030912822112441063
1761476000104995600,0.69699560546875,-0.05406024307012558,-0.22744271159172058,0.05152755230665207
1761476000115032300,0.7070322265625,-0.1144128069281578,-0.1754884272813797,0.07732373476028442
1761476000125068500,0.717068603515625,-0.17379619181156158,-0.12938541173934937,0.09686562418937683
1761476000135105500,0.72710546875,-0.23254099488258362,-0.11023329943418503,0.10702265799045563
1761476000145141500,0.7371416015625,-0.2729438841342926,-0.12095475196838379,0.1004515290260315
1761476000155177700,0.747177734375,-0.2933913767337799,-0.1464739590883255,0.08202086389064789
1761476000165213700,0.757213623046875,-0.29776710271835327,-0.18728011846542358,0.06326794624328613
1761476000175251000,0.7672509765625,-0.29460379481315613,-0.21783989667892456,0.0450199730694294
1761476000185287000,0.777286865234375,-0.30316269397735596,-0.2256121039390564,0.03688092902302742
1761476000195324000,0.787323974609375,-0.33361566066741943,-0.22240673005580902,0.04002798721194267
1761476000205359900,0.79735986328125,-0.37817615270614624,-0.20824959874153137,0.04910453408956528
1761476000215396900,0.80739697265625,-0.426371693611145,-0.2025861293077469,0.05582289397716522
1761476000225432800,0.817432861328125,-0.4698519706726074,-0.20529049634933472,0.05695720762014389
1761476000235469800,0.8274697265625,-0.5014733076095581,-0.212722048163414,0.05736546963453293
1761476000245507000,0.837507080078125,-0.5228647589683533,-0.24094849824905396,0.06025446951389313
1761476000255543000,0.84754296875,-0.5336441397666931,-0.2896222770214081,0.06632168591022491
1761476000265580000,0.857580078125,-0.5398778915405273,-0.3505963087081909,0.07469233870506287
1761476000275616000,0.867615966796875,-0.5326991081237793,-0.4006269872188568,0.08408690243959427
1761476000285653000,0.877653076171875,-0.5278152823448181,-0.43768933415412903,0.0896483063697815
1761476000295689000,0.88768896484375,-0.5244061946868896,-0.46774739027023315,0.10288181900978088
1761476000305725700,0.8977255859375,-0.5457804203033447,-0.5181517004966736,0.116769939661026
1761476000315762000,0.907761962890625,-0.5862962007522583,-0.5860761404037476,0.14661730825901031
1761476000325799000,0.917798828125,-0.6473174691200256,-0.6347386837005615,0.16987721621990204
1761476000335835000,0.9278349609375,-0.7121220231056213,-0.6565617322921753,0.17223118245601654
1761476000345872000,0.937871826171875,-0.7733665704727173,-0.6587308049201965,0.14313942193984985
1761476000355907800,0.947907958984375,-0.8182080984115601,-0.670644223690033,0.08272294700145721
1761476000365944800,0.95794482421875,-0.8479824662208557,-0.7117983102798462,0.004820503294467926
1761476000375980800,0.967980712890625,-0.8684080839157104,-0.7696831822395325,-0.07315178960561752
1761476000386017800,0.978017822265625,-0.8911605477333069,-0.8164404630661011,-0.13051916658878326
1761476000396054000,0.988053955078125,-0.9195426106452942,-0.8441136479377747,-0.16215644776821136
1761476000406091000,0.998091064453125,-0.9526510834693909,-0.8559055328369141,-0.16112124919891357
1761476000416128000,1.0081279296875,-1.0009499788284302,-0.8486020565032959,-0.13200491666793823
1761476000426164000,1.0181640625,-1.0588654279708862,-0.8110355734825134,-0.07866929471492767
1761476000436201000,1.028200927734375,-1.1162620782852173,-0.750844419002533,-0.020349526777863503
1761476000446237000,1.03823681640625,-1.1875755786895752,-0.6783062219619751,0.03185364231467247
1761476000456274000,1.04827392578125,-1.2735509872436523,-0.5772629380226135,0.046394769102334976
1761476000466310100,1.05831005859375,-1.3690379858016968,-0.4886372685432434,0.009720948524773121
1761476000476347000,1.068346923828125,-1.4449061155319214,-0.4808536469936371,-0.07095951586961746
1761476000486382800,1.0783828125,-1.4988071918487549,-0.5889256596565247,-0.19382350146770477
1761476000496419800,1.088419921875,-1.5475504398345947,-0.745726466178894,-0.31651854515075684
1761476000506455800,1.098455810546875,-1.6025241613388062,-0.8769420981407166,-0.4288288652896881
1761476000516492800,1.108492919921875,-1.6775087118148804,-0.9374430179595947,-0.5306220650672913
1761476000526528800,1.11852880859375,-1.7606027126312256,-0.9339892864227295,-0.6095914840698242
1761476000536566000,1.12856591796875,-1.8388687372207642,-0.8517774939537048,-0.6675551533699036
1761476000546602000,1.13860205078125,-1.8932523727416992,-0.6772633790969849,-0.7021087408065796
1761476000556639000,1.148638916015625,-1.913149118423462,-0.4424232244491577,-0.7175045013427734
1761476000566675000,1.158675048828125,-1.8968725204467773,-0.1852075606584549,-0.7186228632926941
1761476000576712000,1.1687119140625,-1.8622043132781982,0.054074257612228394,-0.7166750431060791
1761476000586748000,1.178747802734375,-1.800046443939209,0.2442575991153717,-0.7140548825263977
1761476000596785000,1.188784912109375,-1.7106486558914185,0.36998143792152405,-0.70320063829422
1761476000606820900,1.19882080078125,-1.603325605392456,0.4501667022705078,-0.6679714322090149
1761476000616858000,1.208858154296875,-1.492276668548584,0.4922481179237366,-0.5996946096420288
1761476000626894800,1.218894775390625,-1.3837274312973022,0.49523472785949707,-0.4857126772403717
1761476000636930800,1.228930908203125,-1.2942970991134644,0.45681676268577576,-0.33681562542915344
1761476000646967800,1.2389677734375,-1.2310467958450317,0.3680148124694824,-0.1726452112197876
1761476000657003800,1.249003662109375,-1.1949548721313477,0.2457067370414734,-0.004868990741670132
1761476000667040800,1.259040771484375,-1.175518274307251,0.1243608370423317,0.14018277823925018
1761476000677076700,1.26907666015625,-1.1689112186431885,0.01145213283598423,0.2548760771751404
1761476000687114000,1.279114013671875,-1.1818301677703857,-0.11672130227088928,0.32047194242477417
1761476000697150000,1.28914990234375,-1.2080833911895752,-0.24933525919914246,0.3332577645778656
1761476000707187000,1.29918701171875,-1.249375581741333,-0.3845793604850769,0.2950464189052582
1761476000717223000,1.309222900390625,-1.3036681413650513,-0.5147940516471863,0.22589479386806488
1761476000727260000,1.319260009765625,-1.3805537223815918,-0.6159080266952515,0.1452224999666214
1761476000737296000,1.3292958984375,-1.4708151817321777,-0.634330153465271,0.06286132335662842
1761476000747332900,1.339332763671875,-1.5735106468200684,-0.5605236291885376,-0.0041304174810647964
1761476000757368800,1.349368896484375,-1.6635158061981201,-0.43325358629226685,-0.06698128581047058
1761476000767406000,1.359406005859375,-1.737104058265686,-0.2930402457714081,-0.12906140089035034
1761476000777442000,1.369442138671875,-1.774969220161438,-0.20418067276477814,-0.19526731967926025
1761476000787479000,1.37947900390625,-1.7891802787780762,-0.17822207510471344,-0.261115163564682
1761476000797515000,1.389514892578125,-1.7833540439605713,-0.1546967774629593,-0.28811243176460266
1761476000807551700,1.3995517578125,-1.7753520011901855,-0.16129159927368164,-0.2813718020915985
1761476000817588000,1.409587890625,-1.7699527740478516,-0.1976565420627594,-0.2528136670589447
1761476000827625000,1.419625,-1.7648776769638062,-0.2193402498960495,-0.19607219099998474
1761476000837661000,1.429660888671875,-1.7563121318817139,-0.2043628990650177,-0.12557432055473328
1761476000847698000,1.439697998046875,-1.750244379043579,-0.1684996634721756,-0.04658588767051697
1761476000857734000,1.44973388671875,-1.7597262859344482,-0.12676526606082916,0.027622299268841743
1761476000867771000,1.45977099609375,-1.783868670463562,-0.09867990016937256,0.08401834219694138
1761476000877807900,1.469807861328125,-1.8255692720413208,-0.09341110289096832,0.11498957872390747
1761476000887843800,1.47984375,-1.86761474609375,-0.08238643407821655,0.13125677406787872
1761476000897881000,1.489881103515625,-1.9112149477005005,-0.07833071053028107,0.12258099019527435
1761476000907917000,1.4999169921875,-1.9451031684875488,-0.11107145249843597,0.09734004735946655
1761476000917954000,1.5099541015625,-1.9651224613189697,-0.1665126085281372,0.043495725840330124
1761476000927990000,1.519989990234375,-1.9744760990142822,-0.230047345161438,-0.021298369392752647
1761476000938027000,1.530027099609375,-1.975334644317627,-0.27801835536956787,-0.08029244095087051
1761476000948063000,1.54006298828125,-1.9763580560684204,-0.2773747444152832,-0.12918172776699066
1761476000958100000,1.550099853515625,-1.9853230714797974,-0.2460905909538269,-0.152207151055336
1761476000968136000,1.560135986328125,-2.007021188735962,-0.22089943289756775,-0.15390141308307648
1761476000978173000,1.5701728515625,-2.0443406105041504,-0.21395151317119598,-0.13182568550109863
1761476000988209000,1.580208984375,-2.0937321186065674,-0.2144506722688675,-0.10623734444379807
1761476000998246000,1.590245849609375,-2.141545057296753,-0.22009684145450592,-0.08777710795402527
1761476001008281900,1.60028173828125,-2.1729233264923096,-0.22031043469905853,-0.09334152191877365
1761476001018318800,1.61031884765625,-2.173583507537842,-0.2169087678194046,-0.11280017346143723
1761476001028354800,1.620354736328125,-2.155858039855957,-0.21714265644550323,-0.137801855802536
1761476001038391800,1.630391845703125,-2.1318604946136475,-0.21207812428474426,-0.15216907858848572
1761476001048427800,1.640427734375,-2.097972869873047,-0.19119110703468323,-0.15582938492298126
1761476001058465000,1.650465087890625,-2.0616085529327393,-0.16275787353515625,-0.15229271352291107
1761476001068501000,1.6605009765625,-2.0216195583343506,-0.1501961052417755,-0.1512419879436493
1761476001078538000,1.6705380859375,-1.990342378616333,-0.1568521410226822,-0.1473628133535385
1761476001088574000,1.680573974609375,-1.9649028778076172,-0.17427939176559448,-0.14669924974441528
1761476001098611000,1.69061083984375,-1.939055323600769,-0.21203263103961945,-0.14032204449176788
1761476001108647000,1.70064697265625,-1.9178539514541626,-0.2618096172809601,-0.12845160067081451
1761476001118684000,1.710683837890625,-1.890341877937317,-0.32765495777130127,-0.11986290663480759
1761476001128720000,1.720719970703125,-1.8591123819351196,-0.382535457611084,-0.10622818022966385
1761476001138756900,1.7307568359375,-1.8241932392120361,-0.42037710547447205,-0.09505382180213928
1761476001148796000,1.7407958984375,-1.7985727787017822,-0.4576387107372284,-0.09009332954883575
1761476001158833000,1.7508330078125,-1.7836030721664429,-0.49270427227020264,-0.09808921068906784
1761476001168868900,1.760868896484375,-1.790732979774475,-0.5439149737358093,-0.11613520979881287
1761476001178905600,1.770905517578125,-1.8084291219711304,-0.6210068464279175,-0.12800997495651245
1761476001188941800,1.78094189453125,-1.8347493410110474,-0.7105463147163391,-0.1378142535686493
1761476001198978600,1.790978515625,-1.8576691150665283,-0.8055766820907593,-0.1331515908241272
1761476001209014500,1.8010146484375,-1.880245327949524,-0.921858549118042,-0.1267247349023819
1761476001219051800,1.8110517578125,-1.8944764137268066,-1.0514429807662964,-0.11402305215597153
1761476001229087700,1.821087646484375,-1.9025218486785889,-1.173194408416748,-0.10755636543035507
1761476001239124700,1.831124755859375,-1.905555248260498,-1.2402863502502441,-0.09014888107776642
1761476001249160700,1.84116064453125,-1.9208087921142578,-1.2465633153915405,-0.06770338118076324
1761476001259197700,1.85119775390625,-1.9454840421676636,-1.2076654434204102,-0.038820866495370865
1761476001269233700,1.861233642578125,-1.9842647314071655,-1.1248265504837036,-0.02347930520772934
1761476001279270700,1.871270751953125,-2.0323421955108643,-1.0083519220352173,-0.024909157305955887
1761476001289306600,1.881306640625,-2.085176467895508,-0.8940677642822266,-0.04676282778382301
1761476001299344000,1.89134375,-2.1397626399993896,-0.8199767470359802,-0.09415564686059952
1761476001309379800,1.9013798828125,-2.180304765701294,-0.7949836254119873,-0.15563581883907318
1761476001319416800,1.911416748046875,-2.202287435531616,-0.8059332370758057,-0.23375965654850006
1761476001329452800,1.921452880859375,-2.1990864276885986,-0.8280273675918579,-0.30324816703796387
1761476001339489800,1.93148974609375,-2.1739912033081055,-0.8586785197257996,-0.3669605851173401
1761476001349526500,1.941526611328125,-2.1308491230010986,-0.8971448540687561,-0.4107787609100342
1761476001359562800,1.951562744140625,-2.065962314605713,-0.9265578985214233,-0.4274490773677826
1761476001369599700,1.961599853515625,-1.9892722368240356,-0.9296095371246338,-0.4216510057449341
1761476001379635700,1.9716357421875,-1.910337209701538,-0.9017320871353149,-0.39700424671173096
1761476001389672700,1.981672607421875,-1.84251070022583,-0.8465680480003357,-0.3709292709827423
1761476001399708700,1.991708740234375,-1.7840572595596313,-0.7664106488227844,-0.36018019914627075
1761476001409745700,2.00174560546875,-1.7294400930404663,-0.6761107444763184,-0.36872705817222595
1761476001419781600,2.01178173828125,-1.6741682291030884,-0.5999273061752319,-0.39489343762397766
1761476001429819000,2.02181884765625,-1.6200426816940308,-0.5436954498291016,-0.4238213300704956
1761476001439854800,2.031854736328125,-1.5648534297943115,-0.5053584575653076,-0.4570072293281555
1761476001449891800,2.041891845703125,-1.5004749298095703,-0.485004186630249,-0.4782744348049164
1761476001459927800,2.051927734375,-1.4361125230789185,-0.48174580931663513,-0.48154693841934204
1761476001469964800,2.06196484375,-1.364446997642517,-0.5025820136070251,-0.46036872267723083
1761476001480000800,2.072000732421875,-1.2968133687973022,-0.5315265655517578,-0.4165267050266266
1761476001490037800,2.082037841796875,-1.2274229526519775,-0.5637676119804382,-0.3580215871334076
1761476001500073700,2.09207373046875,-1.1661601066589355,-0.5824121236801147,-0.29252222180366516
1761476001510111000,2.102111083984375,-1.1260019540786743,-0.5807063579559326,-0.23539510369300842
1761476001520147000,2.11214697265625,-1.0985066890716553,-0.5501516461372375,-0.1875346302986145
1761476001530183700,2.12218359375,-1.0743415355682373,-0.5117649435997009,-0.15288925170898438
1761476001540220000,2.132219970703125,-1.0541400909423828,-0.4598807096481323,-0.13032855093479156
1761476001550256600,2.142256591796875,-1.027089238166809,-0.3931886553764343,-0.11259449273347855
1761476001560292600,2.152292724609375,-1.0031780004501343,-0.3315231502056122,-0.11350715905427933
1761476001570329600,2.16232958984375,-0.9760730266571045,-0.2737339437007904,-0.12017472833395004
1761476001580365600,2.172365478515625,-0.9528923034667969,-0.21765393018722534,-0.13220982253551483
1761476001590402800,2.18240283203125,-0.9368811249732971,-0.16525611281394958,-0.13519488275051117
1761476001600438800,2.192438720703125,-0.9293619990348816,-0.09706267714500427,-0.12363035976886749
1761476001610475800,2.202475830078125,-0.9296050667762756,-0.024938995018601418,-0.10713794082403183
1761476001620511700,2.21251171875,-0.9293986558914185,0.04498309642076492,-0.08449148386716843
1761476001630548700,2.222548828125,-0.9226100444793701,0.10111522674560547,-0.06436417996883392
1761476001640584700,2.232584716796875,-0.8990565538406372,0.15689300000667572,-0.04811304062604904
1761476001650621700,2.24262158203125,-0.8684103488922119,0.17824697494506836,-0.03985343873500824
1761476001660657700,2.25265771484375,-0.8360156416893005,0.1791556477546692,-0.04419652372598648
1761476001670695000,2.26269482421875,-0.8003411293029785,0.17833282053470612,-0.05804747715592384
1761476001680731000,2.27273095703125,-0.7658715844154358,0.16950178146362305,-0.0796145498752594
1761476001690768000,2.282767822265625,-0.7335360050201416,0.18274274468421936,-0.106589175760746
1761476001700803800,2.292803955078125,-0.7198215126991272,0.2236667424440384,-0.11480289697647095
1761476001710840600,2.302840576171875,-0.723788321018219,0.27524301409721375,-0.11060568690299988
1761476001720876800,2.312876708984375,-0.7200524210929871,0.2871715724468231,-0.1164233610033989
1761476001730913500,2.32291357421875,-0.7223554253578186,0.18206048011779785,-0.09400283545255661
1761476001740949800,2.33294970703125,-0.7010650634765625,-0.07762409746646881,-0.05695267766714096
1761476001750986800,2.34298681640625,-0.6417787671089172,-0.47801876068115234,-0.0006865635514259338
1761476001761022700,2.353022705078125,-0.5639798641204834,-0.9323800802230835,0.05680255964398384
1761476001771059700,2.363059814453125,-0.49949243664741516,-1.2799370288848877,0.1257830411195755
1761476001781095700,2.373095703125,-0.34224793314933777,-1.543804407119751,0.15295712649822235
1761476001791132700,2.383132568359375,-0.12147721648216248,-1.3620870113372803,-0.03392414003610611
1761476001801168600,2.393168701171875,0.1029023602604866,-0.838791012763977,-0.2519907057285309
1761476001811206000,2.403205810546875,0.13154511153697968,-0.440470814704895,-0.34574663639068604
1761476001821241900,2.413241943359375,0.03491682931780815,-0.2173525094985962,-0.3385968506336212
1761476001831278800,2.42327880859375,-0.11168945580720901,0.046017084270715714,-0.27750006318092346
1761476001841314800,2.433314697265625,-0.2613963782787323,0.3281102776527405,-0.20597873628139496
1761476001851351800,2.443351806640625,-0.3802790939807892,0.45615410804748535,-0.1760600507259369
1761476001861387800,2.4533876953125,-0.457438588142395,0.4151132106781006,-0.1999182403087616
1761476001871424800,2.4634248046875,-0.5080878138542175,0.31792300939559937,-0.2292640060186386
1761476001881460700,2.473460693359375,-0.546011745929718,0.27245032787323,-0.24759027361869812
1761476001891497700,2.483497802734375,-0.5870967507362366,0.28018924593925476,-0.2631875276565552
1761476001901534000,2.493533935546875,-0.6302873492240906,0.26476073265075684,-0.29258403182029724
1761476001911570700,2.50357080078125,-0.678974449634552,0.22492064535617828,-0.33258092403411865
1761476001921606700,2.513606689453125,-0.7232007384300232,0.18402567505836487,-0.3822307586669922
1761476001931643600,2.5236435546875,-0.7691996097564697,0.1055770292878151,-0.4176481366157532
1761476001941679600,2.5336796875,-0.8202926516532898,0.04818164184689522,-0.44246000051498413
1761476001951716600,2.543716552734375,-0.874746561050415,0.0018019471317529678,-0.4627973437309265
1761476001961752600,2.553752685546875,-0.914126455783844,-0.06439331918954849,-0.4979225695133209
1761476001971789800,2.563789794921875,-0.9227283596992493,-0.1547565907239914,-0.5485939979553223
1761476001981825800,2.57382568359375,-0.8990517854690552,-0.24189920723438263,-0.5898826122283936
1761476001991862800,2.58386279296875,-0.8449050784111023,-0.2754502594470978,-0.6188004016876221
1761476002001898800,2.593898681640625,-0.763846755027771,-0.28786590695381165,-0.6276189088821411
1761476002011935700,2.603935791015625,-0.6719874143600464,-0.28884369134902954,-0.6172293424606323
1761476002021971700,2.6139716796875,-0.6024997234344482,-0.29098087549209595,-0.6008623838424683
1761476002032008700,2.6240087890625,-0.5713921785354614,-0.3265335261821747,-0.5859290361404419
1761476002042044700,2.634044677734375,-0.5681461095809937,-0.4058709740638733,-0.5698422193527222
1761476002052082000,2.64408203125,-0.5855461955070496,-0.5101612210273743,-0.5463210344314575
1761476002062118000,2.654117919921875,-0.6297304034233093,-0.5956806540489197,-0.500929594039917
1761476002072155000,2.66415478515625,-0.6919624209403992,-0.5939705967903137,-0.4455009698867798
1761476002082191600,2.674191650390625,-0.7459838390350342,-0.5356844067573547,-0.4042552411556244
1761476002092227600,2.6842275390625,-0.7650416493415833,-0.4568551480770111,-0.3924826681613922
1761476002102264600,2.6942646484375,-0.7287787199020386,-0.4014637768268585,-0.409313827753067
1761476002112300500,2.704300537109375,-0.6532816886901855,-0.3819730877876282,-0.4395906925201416
1761476002122337800,2.714337890625,-0.569477379322052,-0.35234782099723816,-0.45604345202445984
1761476002132373800,2.724373779296875,-0.5076578855514526,-0.31414052844047546,-0.46733784675598145
1761476002142410800,2.73441064453125,-0.48187264800071716,-0.2947324812412262,-0.48122838139533997
1761476002152444200,2.744444091796875,-0.4913783371448517,-0.2680519223213196,-0.4990772306919098
1761476002162481200,2.754481201171875,-0.5207151770591736,-0.22641924023628235,-0.5271994471549988
1761476002172517000,2.76451708984375,-0.5568106174468994,-0.22698459029197693,-0.5635221004486084
1761476002182554400,2.774554443359375,-0.5858627557754517,-0.26667606830596924,-0.568016767501831
1761476002192590300,2.78459033203125,-0.607842743396759,-0.256892591714859,-0.522415041923523
1761476002202627000,2.794626953125,-0.6197835206985474,-0.2227599173784256,-0.4417971670627594
1761476002212663300,2.804663330078125,-0.6145873665809631,-0.2119566649198532,-0.36512190103530884
1761476002222700000,2.814699951171875,-0.5984113216400146,-0.21681053936481476,-0.3009229302406311
1761476002232736000,2.824736083984375,-0.58169025182724,-0.20057348906993866,-0.2542712092399597
1761476002242773000,2.83477294921875,-0.5620201230049133,-0.15323953330516815,-0.22342939674854279
1761476002252809000,2.84480908203125,-0.5425727367401123,-0.08242642879486084,-0.21927125751972198
1761476002262846200,2.85484619140625,-0.5183573961257935,-0.018662093207240105,-0.23137985169887543
1761476002272882200,2.864882080078125,-0.4945850074291229,0.04988685995340347,-0.2347131073474884
1761476002282919200,2.874919189453125,-0.4775221347808838,0.11560595035552979,-0.23758292198181152
1761476002292955100,2.884955078125,-0.47193166613578796,0.15912564098834991,-0.21687071025371552
1761476002302992100,2.8949921875,-0.4727034568786621,0.18764063715934753,-0.18159449100494385
1761476002313028000,2.905028076171875,-0.48440295457839966,0.19373244047164917,-0.12886495888233185
1761476002323065000,2.915065185546875,-0.49717360734939575,0.20996494591236115,-0.07320356369018555
1761476002333101000,2.92510107421875,-0.5106595158576965,0.2309451699256897,-0.018282754346728325
1761476002343138300,2.93513818359375,-0.5010859966278076,0.24869433045387268,0.02928556129336357
1761476002353174300,2.94517431640625,-0.48582330346107483,0.25314244627952576,0.05927130579948425
1761476002363211300,2.955211181640625,-0.45014306902885437,0.2442227154970169,0.08380594104528427
1761476002373247200,2.965247314453125,-0.400039404630661,0.24490171670913696,0.10435017198324203
1761476002383284000,2.975283935546875,-0.35100236535072327,0.23209483921527863,0.11934590339660645
1761476002393320200,2.9853203125,-0.3056442439556122,0.1877453476190567,0.12057080119848251
1761476002403357000,2.99535693359375,-0.2827855348587036,0.1301736682653427,0.11644423753023148
1761476002413394200,3.005394287109375,-0.28188371658325195,0.06837975978851318,0.10972123593091965
1761476002423430100,3.01543017578125,-0.3096490204334259,0.0338984839618206,0.10857021808624268
1761476002433467100,3.025467041015625,-0.35497021675109863,0.016471989452838898,0.1028451919555664
1761476002443503000,3.035503173828125,-0.41516703367233276,0.006077404599636793,0.08677887171506882
1761476002453540000,3.0455400390625,-0.4695185124874115,0.0034204127732664347,0.06081651523709297
1761476002463576000,3.055576171875,-0.5194706320762634,0.017089886590838432,0.018724452704191208
1761476002473613000,3.065613037109375,-0.5598824620246887,0.03524026647210121,-0.01609010249376297
1761476002483649000,3.07564892578125,-0.5927775502204895,0.049102820456027985,-0.04803605005145073
1761476002493686300,3.085686279296875,-0.6092721223831177,0.07295453548431396,-0.06379930675029755
1761476002503722200,3.09572216796875,-0.6125797629356384,0.10752768814563751,-0.073107048869133
1761476002513759200,3.10575927734375,-0.6018983721733093,0.13683705031871796,-0.07292253524065018
1761476002523795200,3.115795166015625,-0.5862642526626587,0.14228321611881256,-0.07205354422330856
1761476002533832200,3.125832275390625,-0.5664550065994263,0.12834900617599487,-0.06595578044652939
1761476002543868200,3.1358681640625,-0.5545514822006226,0.10239569842815399,-0.0611298643052578
1761476002553905000,3.14590478515625,-0.545299768447876,0.08116194605827332,-0.054039083421230316
1761476002563941000,3.155941162109375,-0.5428643226623535,0.0568893700838089,-0.04901183396577835
1761476002573978000,3.16597802734375,-0.5468944311141968,0.03127852827310562,-0.05206134170293808
1761476002584014000,3.17601416015625,-0.5457897782325745,0.015244701877236366,-0.053411297500133514
1761476002594051000,3.186051025390625,-0.5334507822990417,-0.0006538750603795052,-0.05250833183526993
1761476002604087000,3.196087158203125,-0.5117979645729065,-0.012369653210043907,-0.054594386368989944
1761476002614124000,3.2061240234375,-0.49092012643814087,-0.029761942103505135,-0.05228150635957718
1761476002624160000,3.216159912109375,-0.46331512928009033,-0.050512757152318954,-0.05104340612888336
1761476002634197200,3.226197265625,-0.4364926517009735,-0.057066865265369415,-0.05141712725162506
1761476002644233200,3.236233154296875,-0.40692996978759766,-0.05317465588450432,-0.05015958100557327
1761476002654270200,3.246270263671875,-0.37367331981658936,-0.0501631423830986,-0.04794591665267944
1761476002664306200,3.25630615234375,-0.33854755759239197,-0.061255477368831635,-0.03155921772122383
1761476002674343200,3.26634326171875,-0.3010871708393097,-0.07882082462310791,-0.008637732826173306
1761476002684379100,3.276379150390625,-0.2624068856239319,-0.09143541753292084,0.026633169502019882
1761476002694416100,3.286416015625,-0.22980743646621704,-0.11229772865772247,0.07219718396663666
1761476002704452000,3.2964521484375,-0.21028274297714233,-0.10797116160392761,0.12028162181377411
1761476002714489300,3.3064892578125,-0.2261669635772705,-0.10785234719514847,0.14840418100357056
1761476002724526000,3.316526123046875,-0.22905728220939636,-0.11066704243421555,0.14431729912757874
1761476002734562000,3.32656201171875,-0.20336759090423584,-0.12138591706752777,0.13302204012870789
1761476002744599000,3.33659912109375,-0.1693268120288849,-0.14352530241012573,0.11767316609621048
1761476002754635000,3.346635009765625,-0.13712915778160095,-0.18026985228061676,0.11341093480587006
1761476002764672000,3.356672119140625,-0.1182154044508934,-0.2560144364833832,0.10780924558639526
1761476002774708000,3.3667080078125,-0.11989125609397888,-0.3640685975551605,0.09914415329694748
1761476002784745200,3.3767451171875,-0.1357029676437378,-0.46888744831085205,0.08729282021522522
1761476002794781200,3.38678125,-0.1662394404411316,-0.5615344047546387,0.053086765110492706
1761476002804818200,3.396818115234375,-0.20293407142162323,-0.6311728358268738,-0.0007732715457677841
1761476002814854100,3.406854248046875,-0.2373104840517044,-0.6662594676017761,-0.06337391585111618
1761476002824891100,3.41689111328125,-0.26583054661750793,-0.6426659822463989,-0.12402500957250595
1761476002834927000,3.426927001953125,-0.2935487926006317,-0.5530134439468384,-0.1893835961818695
1761476002844964000,3.436964111328125,-0.3226163983345032,-0.4588448107242584,-0.2454889416694641
1761476002855000000,3.447,-0.35743075609207153,-0.4032122492790222,-0.29507508873939514
1761476002865037300,3.457037353515625,-0.418108195066452,-0.4234221875667572,-0.3564726710319519
1761476002875073300,3.4670732421875,-0.4766647517681122,-0.5030996799468994,-0.42891639471054077
1761476002885110000,3.477110107421875,-0.506971538066864,-0.6230993270874023,-0.5105385184288025
1761476002895146200,3.487146240234375,-0.4982306659221649,-0.7453390955924988,-0.5868033170700073
1761476002905183000,3.497182861328125,-0.4673294723033905,-0.8584182858467102,-0.6465457081794739
1761476002915219000,3.507218994140625,-0.4545372724533081,-0.9606611728668213,-0.6946045160293579
1761476002925256000,3.517255859375,-0.47721967101097107,-1.0118767023086548,-0.7375460863113403
1761476002935292200,3.527292236328125,-0.5228171944618225,-0.990854799747467,-0.7607852816581726
1761476002945329200,3.5373291015625,-0.5384235382080078,-0.8664505481719971,-0.7663419842720032
1761476002955365000,3.547365234375,-0.517716109752655,-0.6577147245407104,-0.7421316504478455
1761476002965402000,3.557402099609375,-0.4560268521308899,-0.4178009033203125,-0.6875890493392944
1761476002975438000,3.56743798828125,-0.46625781059265137,-0.21229414641857147,-0.6311124563217163
1761476002985475000,3.57747509765625,-0.47080594301223755,0.022430486977100372,-0.5507981777191162
1761476002995511000,3.587510986328125,-0.4292915463447571,0.26114121079444885,-0.4382009506225586
1761476003005548300,3.59754833984375,-0.35615023970603943,0.42164352536201477,-0.31775203347206116
1761476003015584300,3.607584228515625,-0.25882163643836975,0.4884287118911743,-0.1937791258096695
1761476003025621200,3.617621337890625,-0.14338186383247375,0.45613041520118713,-0.05607079714536667
1761476003035657200,3.6276572265625,-0.05555850267410278,0.344627320766449,0.07363428175449371
1761476003045694200,3.637694091796875,-0.008861573413014412,0.18507519364356995,0.18959763646125793
1761476003055730200,3.647730224609375,0.008054152131080627,0.02018910087645054,0.2740591764450073
1761476003065767200,3.65776708984375,0.018766185268759727,-0.10621810704469681,0.33091235160827637
1761476003075803100,3.66780322265625,0.04342983290553093,-0.18507914245128632,0.36599791049957275
1761476003085840100,3.677840087890625,0.06940391659736633,-0.19145794212818146,0.36344045400619507
1761476003095876000,3.6878759765625,0.09378477931022644,-0.17730358242988586,0.33548781275749207
1761476003105913000,3.6979130859375,0.11587357521057129,-0.17461565136909485,0.2674400508403778
1761476003115949000,3.707948974609375,0.1416969746351242,-0.210303395986557,0.19055846333503723
1761476003125986000,3.717986083984375,0.15402927994728088,-0.2594882547855377,0.13127756118774414
1761476003136022000,3.72802197265625,0.1514551192522049,-0.2861478328704834,0.11410188674926758
1761476003146059000,3.73805908203125,0.11258255690336227,-0.259164959192276,0.1426195502281189
1761476003156095200,3.74809521484375,0.04167279601097107,-0.20608966052532196,0.185391366481781
1761476003166132200,3.75813232421875,-0.047959618270397186,-0.12327786535024643,0.22911380231380463
1761476003176168200,3.768168212890625,-0.13625063002109528,-0.034348513931035995,0.26183703541755676
1761476003186205400,3.778205322265625,-0.21621577441692352,0.03709184750914574,0.2692243754863739
1761476003196241400,3.788241455078125,-0.2887408137321472,0.07190613448619843,0.256673127412796
1761476003206278400,3.7982783203125,-0.35278239846229553,0.05892055481672287,0.2253338247537613
1761476003216314400,3.808314453125,-0.4097818434238434,0.019979199394583702,0.18177106976509094
1761476003226351400,3.818351318359375,-0.4511548578739166,-0.025302795693278313,0.1403578519821167
1761476003236387300,3.82838720703125,-0.4882010519504547,-0.06751643121242523,0.1168382465839386
1761476003246424300,3.83842431640625,-0.5186238884925842,-0.07218335568904877,0.1199626624584198
1761476003256460300,3.848460205078125,-0.5487537980079651,-0.04828432947397232,0.12109425663948059
1761476003266497300,3.858497314453125,-0.5704873204231262,-0.005292385816574097,0.11911579966545105
1761476003276533200,3.868533203125,-0.5854806900024414,0.03644799068570137,0.10215115547180176
1761476003286570200,3.8785703125,-0.5912922024726868,0.056082144379615784,0.08377214521169662
1761476003296606200,3.888606201171875,-0.592514157295227,0.08371075987815857,0.06738880276679993
1761476003306643200,3.898643310546875,-0.6063732504844666,0.14511872828006744,0.054905764758586884
1761476003316679200,3.90867919921875,-0.6306329369544983,0.21510881185531616,0.046057261526584625
1761476003326716200,3.918716064453125,-0.6602388024330139,0.2646065950393677,0.025097647681832314
1761476003336752000,3.928752197265625,-0.6713787317276001,0.28335750102996826,-0.005309833213686943
1761476003346789400,3.938789306640625,-0.6600360870361328,0.27014023065567017,-0.046538230031728745
1761476003356825300,3.948825439453125,-0.6254806518554688,0.25338834524154663,-0.08614852279424667
1761476003366862300,3.9588623046875,-0.5813403725624084,0.2416507452726364,-0.1231589987874031
1761476003376898300,3.968898193359375,-0.5285081267356873,0.2136164754629135,-0.13475272059440613
1761476003386935300,3.978935302734375,-0.4870736002922058,0.2121163159608841,-0.11768931895494461
1761476003396971300,3.98897119140625,-0.45601335167884827,0.22059018909931183,-0.07934068143367767
1761476003407008500,3.999008544921875,-0.4362577497959137,0.20294035971164703,-0.022376999258995056
1761476003417044500,4.00904443359375,-0.4259227216243744,0.1993335634469986,0.0405343696475029
1761476003427079200,4.0190791015625,-0.42059773206710815,0.21805612742900848,0.10000355541706085
1761476003437115100,4.029115234375,-0.4233865439891815,0.22923152148723602,0.1398082971572876
1761476003447152400,4.03915234375,-0.42208507657051086,0.2266503870487213,0.14590853452682495
1761476003457188400,4.049188232421875,-0.416716992855072,0.21966256201267242,0.12658129632472992
1761476003467225300,4.059225341796875,-0.40444862842559814,0.19783556461334229,0.09522470086812973
1761476003477261300,4.06926123046875,-0.3942423462867737,0.15104253590106964,0.04800885543227196
1761476003487298300,4.07929833984375,-0.38171616196632385,0.09530657529830933,-0.0071792989037930965
1761476003497334300,4.089334228515625,-0.37307462096214294,0.028459947556257248,-0.055866241455078125
1761476003507371300,4.099371337890625,-0.366345077753067,-0.028595086187124252,-0.06982254236936569
1761476003517407200,4.1094072265625,-0.36603280901908875,-0.032763153314590454,-0.05165178328752518
1761476003527444500,4.119444580078125,-0.3825598657131195,0.02010006085038185,-0.011036980897188187
1761476003537480400,4.12948046875,-0.3997819721698761,0.06683759391307831,0.02837829664349556
1761476003547517200,4.13951708984375,-0.4176999628543854,0.07980932295322418,0.03957768529653549
1761476003557553400,4.149553466796875,-0.4244103729724884,0.0766623318195343,0.029998352751135826
1761476003567590100,4.159590087890625,-0.42388173937797546,0.06853915750980377,-0.007039028685539961
1761476003577626000,4.169626220703125,-0.4191450774669647,0.04890602454543114,-0.06552867591381073
1761476003587663400,4.179663330078125,-0.42940810322761536,0.02865135297179222,-0.1343918889760971
1761476003597699300,4.18969921875,-0.44263383746147156,0.007213184610009193,-0.21123817563056946
1761476003607736300,4.199736328125,-0.4594748914241791,-0.00673884991556406,-0.2887204587459564
1761476003617772300,4.209772216796875,-0.4710216522216797,-0.009006005711853504,-0.35514435172080994
1761476003627809300,4.219809326171875,-0.4754190742969513,-0.03539101034402847,-0.4001254141330719
1761476003637845200,4.22984521484375,-0.4620601236820221,-0.03591685742139816,-0.3965715765953064
1761476003647882200,4.23988232421875,-0.4288947284221649,-0.002791924402117729,-0.3523191511631012
1761476003657918200,4.249918212890625,-0.3741792142391205,0.01715741492807865,-0.2734381854534149
1761476003667954200,4.2599541015625,-0.3027588129043579,0.04507826268672943,-0.17937561869621277
1761476003677991400,4.269991455078125,-0.24133136868476868,0.07936201989650726,-0.09076956659555435
1761476003688027400,4.28002734375,-0.19078591465950012,0.09393909573554993,-0.02877703681588173
1761476003698064400,4.290064453125,-0.16880935430526733,0.08422499895095825,0.00027859024703502655
1761476003708100400,4.300100341796875,-0.16957446932792664,0.06895310431718826,-0.012289132922887802
1761476003718137300,4.310137451171875,-0.19061420857906342,0.06696853041648865,-0.05333614721894264
1761476003728173300,4.32017333984375,-0.2164335548877716,0.0694255605340004,-0.11536836624145508
1761476003738210300,4.330210205078125,-0.24035008251667023,0.07453682273626328,-0.18183140456676483
1761476003748246300,4.340246337890625,-0.2547309100627899,0.0905994102358818,-0.23956447839736938
1761476003758283300,4.350283203125,-0.2517220675945282,0.09384657442569733,-0.2735956311225891
1761476003768319500,4.360319580078125,-0.23934528231620789,0.09355629235506058,-0.28598278760910034
1761476003778356200,4.370356201171875,-0.21730785071849823,0.07420295476913452,-0.2805321514606476
1761476003788392200,4.38039208984375,-0.1951916217803955,0.04549887031316757,-0.26235660910606384
1761476003798429200,4.39042919921875,-0.16685578227043152,0.017803961411118507,-0.2329305112361908
1761476003808465200,4.400465087890625,-0.12807564437389374,-0.01142609491944313,-0.20089374482631683
1761476003818501000,4.410501220703125,-0.08620662987232208,-0.04392202943563461,-0.17845767736434937
1761476003828538000,4.4205380859375,-0.041287366300821304,-0.08279592543840408,-0.16249656677246094
1761476003838574300,4.43057421875,-0.00899454765021801,-0.11375777423381805,-0.15915356576442719
1761476003848611300,4.440611328125,0.012299555353820324,-0.14279848337173462,-0.163503035902977
1761476003858647300,4.450647216796875,0.024831943213939667,-0.14555411040782928,-0.173263281583786
1761476003868684300,4.460684326171875,0.028135858476161957,-0.14053618907928467,-0.18180696666240692
1761476003878720300,4.47072021484375,0.027409911155700684,-0.12373565137386322,-0.1844857633113861
1761476003888757200,4.48075732421875,0.023100916296243668,-0.08639892935752869,-0.16881386935710907
1761476003898793200,4.490793212890625,0.004509682767093182,-0.0336981862783432,-0.13065335154533386
1761476003908830500,4.50083056640625,-0.018428124487400055,0.012299930676817894,-0.08983853459358215
1761476003918866400,4.510866455078125,-0.05274825170636177,0.016319451853632927,-0.0679718405008316
1761476003928903400,4.5209033203125,-0.08292266726493835,-0.0002976078540086746,-0.06896945834159851
1761476003938939400,4.530939453125,-0.09465330094099045,-0.00884879007935524,-0.09869310259819031
1761476003948976400,4.540976318359375,-0.06644509732723236,-0.0238794032484293,-0.14352156221866608
1761476003959012400,4.551012451171875,-0.0074776820838451385,-0.04059178754687309,-0.1933847963809967
1761476003969048300,4.56104833984375,0.05095873028039932,-0.06000996008515358,-0.23485395312309265
1761476003979085300,4.571085205078125,0.07619693875312805,-0.09172063320875168,-0.25388771295547485
1761476003989121300,4.581121337890625,0.06191493198275566,-0.12413982301950455,-0.25388506054878235
1761476003999158300,4.591158203125,0.029660072177648544,-0.16940221190452576,-0.24875599145889282
1761476004009194500,4.601194580078125,0.011006759479641914,-0.20237481594085693,-0.24218252301216125
1761476004019235300,4.6112353515625,0.03233223035931587,-0.22197993099689484,-0.2453235536813736
1761476004029272300,4.621272216796875,0.09201260656118393,-0.2214217334985733,-0.24677656590938568
1761476004039308300,4.631308349609375,0.1664869487285614,-0.20729993283748627,-0.2309594601392746
1761476004049345300,4.64134521484375,0.22657105326652527,-0.16223978996276855,-0.19771815836429596
1761476004059381200,4.65138134765625,0.24030429124832153,-0.08626147359609604,-0.13409891724586487
1761476004069418200,4.661418212890625,0.21393713355064392,0.015388188883662224,-0.05489756911993027
1761476004079454200,4.6714541015625,0.1573733538389206,0.12059042602777481,0.04508829861879349
1761476004089491500,4.681491455078125,0.08775166422128677,0.2520991861820221,0.16155418753623962
1761476004099527400,4.69152734375,0.02797568030655384,0.3712412714958191,0.26300203800201416
1761476004109564400,4.701564453125,-0.012614358216524124,0.4422605633735657,0.3342631757259369
1761476004119600400,4.711600341796875,-0.02415715716779232,0.46498262882232666,0.36572256684303284
1761476004129636400,4.72163623046875,-0.0035797106102108955,0.45389294624328613,0.3634948432445526
1761476004139673300,4.73167333984375,0.03959750384092331,0.41180598735809326,0.3320472538471222
1761476004149712400,4.74171240234375,0.08899088203907013,0.36758020520210266,0.28888756036758423
1761476004159749400,4.751749267578125,0.1344611495733261,0.32179632782936096,0.24333135783672333
1761476004169785300,4.761785400390625,0.16509628295898438,0.2714332938194275,0.20003022253513336
1761476004179822000,4.771822021484375,0.17442721128463745,0.19986550509929657,0.15982648730278015
1761476004189858300,4.7818583984375,0.17334969341754913,0.13090187311172485,0.14551465213298798
1761476004199895000,4.79189501953125,0.16456033289432526,0.09920140355825424,0.15585950016975403
1761476004209931000,4.801930908203125,0.1540834605693817,0.0958532765507698,0.1791277974843979
1761476004219968300,4.81196826171875,0.1541387140750885,0.10156489163637161,0.20968765020370483
1761476004230004200,4.822004150390625,0.16471385955810547,0.1147288978099823,0.23390457034111023
1761476004240040200,4.832040283203125,0.1972099393606186,0.12599173188209534,0.25849729776382446
1761476004250077200,4.8420771484375,0.22996015846729279,0.14734096825122833,0.27416786551475525
1761476004260113200,4.852113037109375,0.2607713043689728,0.16912773251533508,0.2764624357223511
1761476004270150100,4.862150146484375,0.2765771746635437,0.1877291053533554,0.2669890224933624
1761476004280186000,4.87218603515625,0.273225337266922,0.1862562596797943,0.2427102029323578
1761476004290223400,4.882223388671875,0.2664702236652374,0.17244696617126465,0.21913909912109375
1761476004300259300,4.89225927734375,0.2532714009284973,0.15441946685314178,0.20741921663284302
1761476004310296300,4.90229638671875,0.24747873842716217,0.12230893224477768,0.2176196575164795
1761476004320332300,4.912332275390625,0.2519775629043579,0.11695350706577301,0.2574516534805298
1761476004330368300,4.9223681640625,0.27115124464035034,0.11805658787488937,0.3003402650356293
1761476004340405200,4.9324052734375,0.29356682300567627,0.10507896542549133,0.339547723531723
1761476004350441200,4.942441162109375,0.30908188223838806,0.09417331963777542,0.35817307233810425
1761476004360478200,4.952478271484375,0.3165940046310425,0.08607394248247147,0.3445969521999359
1761476004370514200,4.96251416015625,0.31356996297836304,0.08416125923395157,0.3195144832134247
1761476004380551400,4.972551513671875,0.307498574256897,0.07052305340766907,0.27726563811302185
1761476004390587400,4.98258740234375,0.30690842866897583,0.05988346040248871,0.24546776711940765
1761476004400624400,4.992624267578125,0.3236159384250641,0.04730414226651192,0.23314613103866577
1761476004410660400,5.002660400390625,0.34926697611808777,0.042179953306913376,0.23864662647247314
1761476004420697000,5.012697021484375,0.37500667572021484,0.04345709830522537,0.2652015686035156
1761476004430733300,5.0227333984375,0.39686402678489685,0.038232509046792984,0.2869952917098999
1761476004440770000,5.03277001953125,0.40928393602371216,0.03354163467884064,0.32585659623146057
1761476004450806000,5.042805908203125,0.41052550077438354,0.03872787579894066,0.3735434412956238
1761476004460842200,5.05284228515625,0.3978830575942993,0.07811079174280167,0.42057234048843384
1761476004470879200,5.062879150390625,0.366527795791626,0.11069776117801666,0.4504239857196808
1761476004480915200,5.072915283203125,0.33294567465782166,0.12805339694023132,0.4597022235393524
1761476004490952200,5.0829521484375,0.3028793931007385,0.14768515527248383,0.45152926445007324
1761476004500988200,5.09298828125,0.2764679789543152,0.16600531339645386,0.4349518120288849
1761476004511025200,5.103025146484375,0.26565688848495483,0.17708060145378113,0.41350749135017395
1761476004521061000,5.11306103515625,0.2534428536891937,0.1689079999923706,0.3843572735786438
1761476004531098400,5.123098388671875,0.23792168498039246,0.16166873276233673,0.3734915852546692
1761476004541134300,5.13313427734375,0.22319701313972473,0.154428169131279,0.35202234983444214
1761476004551170300,5.14317041015625,0.20781725645065308,0.1548745185136795,0.34467947483062744
1761476004561207300,5.153207275390625,0.19385001063346863,0.1382039189338684,0.34352871775627136
1761476004571243300,5.1632431640625,0.18543681502342224,0.11692871898412704,0.35609909892082214
1761476004581280300,5.1732802734375,0.1765388548374176,0.10574071109294891,0.3935835063457489
1761476004591316200,5.183316162109375,0.16636238992214203,0.09604547172784805,0.42524662613868713
1761476004601353200,5.193353271484375,0.15283550322055817,0.07089972496032715,0.4428150951862335
1761476004611389200,5.20338916015625,0.12539561092853546,0.04098682850599289,0.43414410948753357
1761476004621426400,5.213426513671875,0.09488736093044281,0.007782869040966034,0.40242713689804077
1761476004631462400,5.22346240234375,0.06107001006603241,-0.029147453606128693,0.3344491422176361
1761476004641498400,5.233498291015625,0.03748331964015961,-0.0636233389377594,0.25927335023880005
1761476004651535400,5.243535400390625,0.014532729983329773,-0.09165870398283005,0.17722350358963013
1761476004661571300,5.2535712890625,-0.006698593031615019,-0.09968797117471695,0.10399000346660614
1761476004671608300,5.2636083984375,-0.04005015641450882,-0.0959656685590744,0.05565762147307396
1761476004681644300,5.273644287109375,-0.07201290130615234,-0.0825117826461792,0.028791246935725212
1761476004691681000,5.283680908203125,-0.10730830579996109,-0.07547890394926071,0.018462175503373146
1761476004701717200,5.29371728515625,-0.12563863396644592,-0.08002118766307831,0.02957572042942047
1761476004711754200,5.303754150390625,-0.14738920331001282,-0.08969565480947495,0.04888523370027542
1761476004721790200,5.313790283203125,-0.159023717045784,-0.10349244624376297,0.06828217953443527
1761476004731826400,5.323826416015625,-0.17017729580402374,-0.1297655999660492,0.08189492672681808
1761476004741863200,5.33386328125,-0.17391337454319,-0.1611834615468979,0.08003541827201843
1761476004751899100,5.343899169921875,-0.18167302012443542,-0.1917688101530075,0.057661138474941254
1761476004761936100,5.35393603515625,-0.19115787744522095,-0.21752144396305084,0.034097351133823395
1761476004771972000,5.36397216796875,-0.20772114396095276,-0.24853260815143585,0.00427607074379921
1761476004782009300,5.37400927734375,-0.22818930447101593,-0.26992103457450867,-0.02764458954334259
1761476004792045300,5.38404541015625,-0.25095611810684204,-0.2729703485965729,-0.04857596755027771
1761476004802081300,5.394081298828125,-0.28055351972579956,-0.2667149603366852,-0.05809760466217995
1761476004812118300,5.4041181640625,-0.3107457756996155,-0.25408998131752014,-0.06276905536651611
1761476004822154200,5.414154296875,-0.3438994288444519,-0.2390451431274414,-0.04765727370977402
1761476004832191200,5.424191162109375,-0.3788134753704071,-0.23918388783931732,-0.02384648285806179
1761476004842227200,5.434227294921875,-0.41469934582710266,-0.24967676401138306,0.009268314577639103
1761476004852264200,5.44426416015625,-0.452223002910614,-0.27198126912117004,0.03575771301984787
1761476004862300200,5.454300048828125,-0.4911718964576721,-0.30337104201316833,0.034794777631759644
1761476004872336100,5.464336181640625,-0.5346503853797913,-0.3292292654514313,0.015374472364783287
1761476004882373400,5.474373291015625,-0.5779268145561218,-0.3471396863460541,-0.027605455368757248
1761476004892409300,5.484409423828125,-0.6238911151885986,-0.3635668456554413,-0.08855988085269928
1761476004902446300,5.4944462890625,-0.6662096977233887,-0.3731597363948822,-0.1440536379814148
1761476004912482300,5.504482421875,-0.7144994735717773,-0.3872217535972595,-0.19374743103981018
1761476004922519300,5.514519287109375,-0.757114052772522,-0.39773017168045044,-0.22413353621959686
1761476004932555300,5.52455517578125,-0.8036578893661499,-0.396190345287323,-0.23742349445819855
1761476004942591200,5.53459130859375,-0.8396466970443726,-0.3842105567455292,-0.23668551445007324
1761476004952628200,5.544628173828125,-0.8676320314407349,-0.35743778944015503,-0.22271084785461426
1761476004962664400,5.55466455078125,-0.8798034191131592,-0.3199648857116699,-0.20157696306705475
1761476004972701200,5.564701171875,-0.8882011771202087,-0.2788741886615753,-0.18346746265888214
1761476004982737400,5.5747373046875,-0.8944950699806213,-0.21257902681827545,-0.15472251176834106
1761476004992774100,5.584774169921875,-0.9086055755615234,-0.10886435210704803,-0.11125680059194565
1761476005002810000,5.59481005859375,-0.9387651085853577,0.007907039485871792,-0.072562575340271
1761476005012846300,5.604846435546875,-1.001643419265747,0.12506268918514252,-0.05597588047385216
1761476005022883000,5.614883056640625,-1.0947355031967163,0.18361587822437286,-0.07883144170045853
1761476005032919300,5.624919189453125,-1.2028335332870483,0.17645782232284546,-0.1415960192680359
1761476005042956300,5.634956298828125,-1.3286632299423218,0.12045656889677048,-0.23983348906040192
1761476005052992300,5.6449921875,-1.4655121564865112,0.022938530892133713,-0.3735332489013672
1761476005063028200,5.6550283203125,-1.5989302396774292,-0.1260673999786377,-0.5473684072494507
1761476005073065200,5.665065185546875,-1.7124037742614746,-0.3465521037578583,-0.7400230765342712
1761476005083101200,5.67510107421875,-1.8060461282730103,-0.5953761339187622,-0.8979406356811523
1761476005093138200,5.68513818359375,-1.9026237726211548,-0.6965746283531189,-1.0011000633239746
1761476005103174100,5.695174072265625,-2.0059914588928223,-0.6158601641654968,-1.0470354557037354
1761476005113210000,5.705210205078125,-2.0874335765838623,-0.41420266032218933,-1.0541620254516602
1761476005123247000,5.7152470703125,-2.091535806655884,-0.09143338352441788,-1.0236276388168335
1761476005133283000,5.725282958984375,-1.9741761684417725,0.28810542821884155,-0.9626137018203735
1761476005143320300,5.7353203125,-1.7299132347106934,0.6102004051208496,-0.8767408132553101
1761476005153352000,5.74535205078125,-1.413053035736084,0.8510218262672424,-0.7595263123512268
1761476005163388000,5.755387939453125,-1.0717449188232422,0.9224159121513367,-0.6149728894233704
1761476005173425200,5.765425048828125,-0.7508530616760254,0.8522421717643738,-0.4434903562068939
1761476005183461000,5.775461181640625,-0.4529675245285034,0.6840154528617859,-0.24661146104335785
1761476005193498000,5.785498046875,-0.25445282459259033,0.44262197613716125,-0.04924966022372246
1761476005203534000,5.7955341796875,-0.10225407779216766,0.24622070789337158,0.1544276475906372
1761476005213571000,5.805571044921875,0.020896878093481064,0.13223740458488464,0.3629659116268158
1761476005223607000,5.81560693359375,0.10372110456228256,0.0258399099111557,0.5606523752212524
1761476005233643000,5.82564306640625,0.0967036709189415,-0.13387438654899597,0.7221014499664307
1761476005243680300,5.83568017578125,-0.001398700289428234,-0.2875482439994812,0.829950213432312
1761476005253716200,5.84571630859375,-0.15120790898799896,-0.3334885537624359,0.8827942609786987
1761476005263753200,5.855753173828125,-0.32337746024131775,-0.2946796417236328,0.8778590559959412
1761476005273789200,5.8657890625,-0.5027168393135071,-0.207135409116745,0.7996758222579956
1761476005283825200,5.8758251953125,-0.6891294717788696,-0.10337090492248535,0.6562103033065796
1761476005293862100,5.885862060546875,-0.8686696887016296,0.002463112585246563,0.4671271741390228
1761476005303898000,5.895898193359375,-1.0178380012512207,0.13975702226161957,0.27266839146614075
1761476005313934000,5.90593408203125,-1.104931116104126,0.266350656747818,0.09113776683807373
1761476005323971000,5.91597119140625,-1.1247092485427856,0.33151495456695557,-0.046840451657772064
1761476005334007000,5.926007080078125,-1.099663257598877,0.33093786239624023,-0.12888658046722412
1761476005344044300,5.936044189453125,-1.0530428886413574,0.31187114119529724,-0.14330114424228668
1761476005354080300,5.946080322265625,-1.02698814868927,0.29282182455062866,-0.10555989295244217
1761476005364116200,5.9561162109375,-1.0241258144378662,0.25387081503868103,-0.02195417881011963
1761476005374153200,5.9661533203125,-1.047370433807373,0.2145252674818039,0.0752972736954689
1761476005384189200,5.976189208984375,-1.0787672996520996,0.17645367980003357,0.1688690036535263
1761476005394226200,5.98622607421875,-1.1165915727615356,0.11243608593940735,0.23329779505729675
1761476005404262100,5.99626220703125,-1.1352611780166626,0.023938944563269615,0.2572467029094696
1761476005414298000,6.006298095703125,-1.1484962701797485,-0.07198385894298553,0.24489976465702057
1761476005424335400,6.01633544921875,-1.1686060428619385,-0.17020654678344727,0.20669075846672058
1761476005434371300,6.026371337890625,-1.205000877380371,-0.23836243152618408,0.15802548825740814
1761476005444407300,6.0364072265625,-1.2588692903518677,-0.24630162119865417,0.11092311888933182
1761476005454444300,6.0464443359375,-1.3225470781326294,-0.2373717725276947,0.06377558410167694
1761476005464480300,6.056480224609375,-1.386109709739685,-0.23648680746555328,0.018104035407304764
1761476005474517000,6.06651708984375,-1.4540855884552002,-0.24152179062366486,-0.017672870308160782
1761476005484553200,6.07655322265625,-1.519763469696045,-0.2285081148147583,-0.039013706147670746
1761476005494589200,6.086589111328125,-1.5915167331695557,-0.20868168771266937,-0.05719936639070511
1761476005504626000,6.0966259765625,-1.6692336797714233,-0.2094995230436325,-0.07199650257825851
1761476005514662100,6.106662109375,-1.7462362051010132,-0.2497774362564087,-0.09518358111381531
1761476005524699100,6.11669921875,-1.8002365827560425,-0.3253638446331024,-0.11916439235210419
1761476005534735000,6.126735107421875,-1.8298962116241455,-0.41113388538360596,-0.15462197363376617
1761476005544771000,6.13677099609375,-1.8330053091049194,-0.48977920413017273,-0.18500199913978577
1761476005554808000,6.14680810546875,-1.8265964984893799,-0.5572620630264282,-0.20958004891872406
1761476005564844000,6.156843994140625,-1.8380980491638184,-0.5974019169807434,-0.22093020379543304
1761476005574880000,6.1668798828125,-1.8665757179260254,-0.603779137134552,-0.2208673506975174
1761476005584917000,6.1769169921875,-1.923425555229187,-0.5923077464103699,-0.2078458070755005
1761476005594953000,6.186952880859375,-1.9924054145812988,-0.5789724588394165,-0.18986254930496216
1761476005604989000,6.196989013671875,-2.050868034362793,-0.5641415119171143,-0.1760244071483612
1761476005615026200,6.207026123046875,-2.0834403038024902,-0.522020161151886,-0.1610579788684845
1761476005625062100,6.217062255859375,-2.0825812816619873,-0.4972393214702606,-0.15950174629688263
1761476005635099100,6.22709912109375,-2.061016321182251,-0.5201534628868103,-0.17709939181804657
1761476005645135000,6.237135009765625,-2.0318589210510254,-0.5716120600700378,-0.19567188620567322
1761476005655171000,6.247171142578125,-2.010573625564575,-0.6240675449371338,-0.21130943298339844
1761476005665208000,6.2572080078125,-2.0117602348327637,-0.6854784488677979,-0.21834143996238708
1761476005675244000,6.267244140625,-2.0382914543151855,-0.7541695833206177,-0.22638551890850067
1761476005685280000,6.277280029296875,-2.081698417663574,-0.81259685754776,-0.235092431306839
1761476005695317000,6.28731689453125,-2.1276817321777344,-0.8677061796188354,-0.24203822016716003
1761476005705353000,6.29735302734375,-2.1633660793304443,-0.9216113090515137,-0.25490060448646545
1761476005715389000,6.307388916015625,-2.189943313598633,-0.9520221948623657,-0.259679913520813
1761476005725426200,6.31742626953125,-2.207505702972412,-0.9486114382743835,-0.24866531789302826
1761476005735462100,6.327462158203125,-2.217552900314331,-0.9317222237586975,-0.24780671298503876
1761476005745499100,6.3374990234375,-2.232677459716797,-0.9238445162773132,-0.25591418147087097
1761476005755535000,6.34753515625,-2.2588138580322266,-0.9133817553520203,-0.2719346880912781
1761476005765571000,6.357571044921875,-2.2949042320251465,-0.8817822337150574,-0.296903133392334
1761476005775608000,6.367608154296875,-2.3355789184570312,-0.8529452681541443,-0.3339439630508423
1761476005785644000,6.37764404296875,-2.372056007385254,-0.8472089171409607,-0.3661607801914215
1761476005795680000,6.387679931640625,-2.3965537548065186,-0.8297854661941528,-0.38671398162841797
1761476005805717200,6.39771728515625,-2.4072132110595703,-0.7803196310997009,-0.38930580019950867
1761476005815753200,6.407753173828125,-2.415104866027832,-0.7301211357116699,-0.36990705132484436
1761476005825789200,6.4177890625,-2.42740797996521,-0.6658823490142822,-0.3349091410636902
1761476005835826200,6.427826171875,-2.4469871520996094,-0.5897550582885742,-0.2942613363265991
1761476005845862100,6.437862060546875,-2.4641058444976807,-0.521666407585144,-0.2502554655075073
1761476005855898000,6.447898193359375,-2.477440118789673,-0.47286632657051086,-0.22579777240753174
1761476005865935000,6.45793505859375,-2.494765043258667,-0.4585663080215454,-0.2228465974330902
1761476005875971000,6.46797119140625,-2.4997968673706055,-0.4726696014404297,-0.23400205373764038
1761476005886007000,6.478007080078125,-2.4951910972595215,-0.5080448985099792,-0.26252901554107666
1761476005896044000,6.4880439453125,-2.4709739685058594,-0.5543543100357056,-0.2935021221637726
1761476005906080000,6.498080078125,-2.4378020763397217,-0.5960912704467773,-0.3256387412548065
1761476005916116200,6.5081162109375,-2.4018328189849854,-0.6216523051261902,-0.345594584941864
1761476005926153200,6.5181533203125,-2.3696773052215576,-0.6460619568824768,-0.3495276868343353
1761476005936189200,6.528189208984375,-2.34303879737854,-0.640002965927124,-0.34604907035827637
1761476005946225200,6.53822509765625,-2.321986675262451,-0.6247702240943909,-0.3403136134147644
1761476005956262100,6.54826220703125,-2.292966842651367,-0.6286222338676453,-0.3384890854358673
1761476005966298000,6.558298095703125,-2.2545177936553955,-0.6339576840400696,-0.3435988128185272
1761476005976334000,6.568333984375,-2.1929380893707275,-0.6449506878852844,-0.35707759857177734
1761476005986371000,6.57837109375,-2.1137771606445312,-0.6720343232154846,-0.37015703320503235
1761476005996407000,6.588406982421875,-2.0154762268066406,-0.707425594329834,-0.39061570167541504
1761476006006444300,6.5984443359375,-1.915573239326477,-0.7582806348800659,-0.4035419821739197
1761476006016480300,6.608480224609375,-1.8176738023757935,-0.8143052458763123,-0.3945692479610443
1761476006026516200,6.61851611328125,-1.727084755897522,-0.865996778011322,-0.3684562146663666
1761476006036553200,6.62855322265625,-1.6570143699645996,-0.9065425992012024,-0.32488423585891724
1761476006046589200,6.638589111328125,-1.6020793914794922,-0.9498739242553711,-0.261333703994751
1761476006056625200,6.648625244140625,-1.5701446533203125,-0.9379765391349792,-0.17796531319618225
1761476006066662100,6.658662109375,-1.5569279193878174,-0.872990608215332,-0.09156864881515503
1761476006076698000,6.668697998046875,-1.5575331449508667,-0.7689533829689026,-0.018462207168340683
1761476006086734000,6.678734130859375,-1.5662481784820557,-0.6574773192405701,0.00804879143834114
1761476006096770000,6.68877001953125,-1.5645501613616943,-0.5396614670753479,0.0023299194872379303
1761476006106807300,6.698807373046875,-1.5592247247695923,-0.4150905907154083,-0.03335484862327576
1761476006116843300,6.70884326171875,-1.5479776859283447,-0.2887672483921051,-0.08439832180738449
1761476006126879200,6.718879150390625,-1.5403127670288086,-0.1829882711172104,-0.1399344950914383
1761476006136916200,6.728916259765625,-1.5395870208740234,-0.11987747997045517,-0.18945758044719696
1761476006146952200,6.7389521484375,-1.5440078973770142,-0.09002076834440231,-0.2251281887292862
1761476006156989000,6.748989013671875,-1.5536152124404907,-0.09632926434278488,-0.24174657464027405
1761476006167026000,6.75902587890625,-1.5540218353271484,-0.11032719910144806,-0.24239188432693481
1761476006177062000,6.769061767578125,-1.5503405332565308,-0.12039714306592941,-0.22394496202468872
1761476006187097900,6.779097900390625,-1.538807988166809,-0.1204107329249382,-0.19291114807128906
1761476006197134800,6.789134765625,-1.5155268907546997,-0.11932549625635147,-0.1554069221019745
1761476006207170800,6.7991708984375,-1.4830342531204224,-0.10605292022228241,-0.11916959285736084
1761476006217206800,6.809206787109375,-1.4476200342178345,-0.09125399589538574,-0.08545264601707458
1761476006227243800,6.819243896484375,-1.4015498161315918,-0.07914286106824875,-0.06575831770896912
1761476006237280000,6.829280029296875,-1.3599121570587158,-0.07174726575613022,-0.0636533573269844
1761476006247316000,6.83931591796875,-1.3206661939620972,-0.07985283434391022,-0.08400752395391464
1761476006257352700,6.849352783203125,-1.2865828275680542,-0.08435144275426865,-0.12767671048641205
1761476006267389000,6.859388916015625,-1.2658013105392456,-0.09639518707990646,-0.18325500190258026
1761476006277425000,6.8694248046875,-1.2557090520858765,-0.11664799600839615,-0.24239875376224518
1761476006287461600,6.879461669921875,-1.251946210861206,-0.12515616416931152,-0.2883407473564148
1761476006297497900,6.889497802734375,-1.2526642084121704,-0.1123679131269455,-0.3180254101753235
1761476006307533800,6.899533935546875,-1.2454956769943237,-0.10570994019508362,-0.3304697573184967
1761476006317570600,6.909570556640625,-1.2260173559188843,-0.10875073820352554,-0.32731255888938904
1761476006327606800,6.919606689453125,-1.1909388303756714,-0.1110415831208229,-0.3139022886753082
1761476006337643000,6.92964306640625,-1.1373752355575562,-0.11405601352453232,-0.30380624532699585
1761476006347679000,6.939678955078125,-1.0802676677703857,-0.10662602633237839,-0.29461565613746643
1761476006357716000,6.949716064453125,-1.0232373476028442,-0.08314946293830872,-0.3001006841659546
1761476006367752000,6.959751953125,-0.9704147577285767,-0.060274288058280945,-0.3143098056316376
1761476006377788000,6.969787841796875,-0.9267522096633911,-0.044389594346284866,-0.3350483775138855
1761476006387825000,6.979824951171875,-0.8822798728942871,-0.042659349739551544,-0.3560324013233185
1761476006397860900,6.98986083984375,-0.84239262342453,-0.046584319323301315,-0.35554930567741394
1761476006407896800,6.999896728515625,-0.79792720079422,-0.03788147121667862,-0.3347596526145935
1761476006417933800,7.009933837890625,-0.758853018283844,-0.010111359879374504,-0.2981931269168854
1761476006427969800,7.0199697265625,-0.7274659872055054,0.00775443110615015,-0.2642565667629242
1761476006438005800,7.030005859375,-0.6990253329277039,-0.05075468495488167,-0.25724366307258606
1761476006448041700,7.040041748046875,-0.6415042877197266,-0.18816035985946655,-0.2908283770084381
1761476006458079000,7.050078857421875,-0.5290014147758484,-0.3585720360279083,-0.33596494793891907
1761476006468115000,7.060114990234375,-0.3584560453891754,-0.5329067707061768,-0.3596436083316803
1761476006478151000,7.07015087890625,-0.17423400282859802,-0.6471265554428101,-0.32149410247802734
1761476006488188000,7.08018798828125,-0.03789771348237991,-0.6805824041366577,-0.20872505009174347
1761476006498223900,7.090223876953125,0.0026726163923740387,-0.6193805932998657,-0.03442488610744476
1761476006508259800,7.100259765625,-0.04252157360315323,-0.5035650134086609,0.1454745978116989
1761476006518296800,7.110296875,-0.14641840755939484,-0.35858890414237976,0.2958148121833801
1761476006528332800,7.120332763671875,-0.2633049786090851,-0.213750422000885,0.381820410490036
1761476006538368800,7.13036865234375,-0.3496182858943939,-0.11943376809358597,0.37697264552116394
1761476006548404700,7.14040478515625,-0.3834066689014435,-0.09828078746795654,0.30813658237457275
1761476006558442000,7.15044189453125,-0.3767607510089874,-0.1171245202422142,0.19238094985485077
1761476006568478000,7.16047802734375,-0.337882399559021,-0.16887061297893524,0.07395458966493607
1761476006578514000,7.170513916015625,-0.29236260056495667,-0.24744506180286407,-0.03257264941930771
1761476006588551000,7.180551025390625,-0.2759742736816406,-0.3056352734565735,-0.09817060828208923
1761476006598587000,7.1905869140625,-0.3092922866344452,-0.3170226812362671,-0.12160349637269974
1761476006608622800,7.200622802734375,-0.3891996741294861,-0.2807892858982086,-0.1239013746380806
1761476006618659800,7.210659912109375,-0.4908546805381775,-0.2064301073551178,-0.1147957593202591
1761476006628695800,7.22069580078125,-0.5778335332870483,-0.09950976073741913,-0.1043623760342598
1761476006638731800,7.230731689453125,-0.6249520778656006,0.007259292062371969,-0.09821633249521255
1761476006648767700,7.240767822265625,-0.6369286775588989,0.10168889164924622,-0.10875363647937775
1761476006658805000,7.250804931640625,-0.6308425068855286,0.17716899514198303,-0.12354829162359238
1761476006668841000,7.260841064453125,-0.6085347533226013,0.2178085446357727,-0.144142284989357
1761476006678877000,7.270876953125,-0.5794466137886047,0.2214224487543106,-0.16070474684238434
1761476006688914000,7.280913818359375,-0.5305745005607605,0.18387004733085632,-0.16273191571235657
1761476006698950000,7.290949951171875,-0.45624539256095886,0.12803234159946442,-0.13875946402549744
1761476006708985900,7.30098583984375,-0.37816908955574036,0.06035042181611061,-0.08919762074947357
1761476006719021800,7.311021728515625,-0.30004099011421204,0.014451907016336918,-0.011141970753669739
1761476006729058800,7.321058837890625,-0.24494516849517822,-0.004443656653165817,0.06931882351636887
1761476006739094800,7.3310947265625,-0.21120451390743256,-0.02761981450021267,0.13826964795589447
1761476006749130800,7.341130859375,-0.19106703996658325,-0.060533273965120316,0.18461936712265015
1761476006759168000,7.35116796875,-0.18039681017398834,-0.1038527861237526,0.2066490352153778
1761476006769204000,7.361203857421875,-0.16382244229316711,-0.14547623693943024,0.20307371020317078
1761476006779240000,7.371239990234375,-0.1484975516796112,-0.1995229572057724,0.1839711219072342
1761476006789277000,7.38127685546875,-0.1253494918346405,-0.2458978295326233,0.15588775277137756
1761476006799313000,7.39131298828125,-0.11081768572330475,-0.2744687497615814,0.13595585525035858
1761476006809348900,7.401348876953125,-0.11093395203351974,-0.30381420254707336,0.12212898582220078
1761476006819384800,7.411384765625,-0.13682599365711212,-0.30460914969444275,0.1276704967021942
1761476006829421800,7.421421875,-0.1799086332321167,-0.2505261301994324,0.14927983283996582
1761476006839457800,7.431457763671875,-0.23780521750450134,-0.16934844851493835,0.17389754951000214
1761476006849493800,7.44149365234375,-0.29551243782043457,-0.10698854923248291,0.1936546415090561
1761476006859530800,7.45153076171875,-0.3466235399246216,-0.0484866239130497,0.2115156650543213
1761476006869566700,7.461566650390625,-0.3911302983760834,0.012070995755493641,0.21943190693855286
1761476006879603000,7.47160302734375,-0.42876821756362915,0.06758512556552887,0.2110765129327774
1761476006889639000,7.481638916015625,-0.47533151507377625,0.10951195657253265,0.1896522045135498
1761476006899676000,7.491676025390625,-0.519934356212616,0.1450105607509613,0.15508171916007996
1761476006909712000,7.5017119140625,-0.5598263740539551,0.17100875079631805,0.12084351480007172
1761476006919747800,7.511747802734375,-0.582088828086853,0.1658715009689331,0.07991500198841095
1761476006929784800,7.521784912109375,-0.5829052925109863,0.11974912136793137,0.05285864695906639
1761476006939820800,7.53182080078125,-0.5652884840965271,0.057637009769678116,0.04252371937036514
1761476006949856800,7.541856689453125,-0.536676824092865,0.015543607994914055,0.06202293187379837
1761476006959892700,7.551892822265625,-0.5152924060821533,0.007977300323545933,0.08868356794118881
1761476006969929700,7.5619296875,-0.5102829933166504,0.01958482898771763,0.12770894169807434
1761476006979965700,7.571965576171875,-0.5161510109901428,0.02946355938911438,0.15167765319347382
1761476006990001700,7.582001708984375,-0.5272141098976135,0.022765440866351128,0.14583979547023773
1761476007000039000,7.592038818359375,-0.5352011919021606,-0.0063181426376104355,0.12354087829589844
1761476007010075000,7.602074951171875,-0.5273076295852661,-0.05055481567978859,0.07713340222835541
1761476007020110800,7.61211083984375,-0.5110682249069214,-0.08733333647251129,0.024881651625037193
1761476007030146800,7.622146728515625,-0.49286937713623047,-0.12198736518621445,-0.026735354214906693
1761476007040183800,7.632183837890625,-0.4794566333293915,-0.14766903221607208,-0.06618129462003708
1761476007050219800,7.6422197265625,-0.47207891941070557,-0.1493453085422516,-0.09490437805652618
1761476007060255700,7.652255859375,-0.47284963726997375,-0.14592979848384857,-0.10770858824253082
1761476007070291700,7.662291748046875,-0.48069998621940613,-0.1371065378189087,-0.11789367347955704
1761476007080328700,7.67232861328125,-0.48361533880233765,-0.14210529625415802,-0.11859168857336044
1761476007090364700,7.68236474609375,-0.4803645610809326,-0.15517699718475342,-0.11323124915361404
1761476007100400600,7.692400634765625,-0.468463659286499,-0.15480947494506836,-0.100073903799057
1761476007110438000,7.70243798828125,-0.4546893835067749,-0.17033538222312927,-0.09271231293678284
1761476007120473900,7.712473876953125,-0.4344426989555359,-0.21011954545974731,-0.09675659239292145
1761476007130509800,7.722509765625,-0.4127400517463684,-0.24855321645736694,-0.10252366214990616
1761476007140545800,7.7325458984375,-0.39009973406791687,-0.2726191282272339,-0.09829696267843246
1761476007150582300,7.742582275390625,-0.37132522463798523,-0.27438440918922424,-0.09768902510404587
1761476007160618200,7.7526181640625,-0.3549249470233917,-0.2615261375904083,-0.09980463981628418
1761476007170654200,7.762654296875,-0.35230982303619385,-0.229780375957489,-0.09588213264942169
1761476007180690200,7.772690185546875,-0.35965561866760254,-0.18174627423286438,-0.08773765712976456
1761476007190727400,7.7827275390625,-0.37401261925697327,-0.1292734444141388,-0.07820200175046921
1761476007200763400,7.792763427734375,-0.3897673487663269,-0.098689965903759,-0.06262650340795517
1761476007210799400,7.80279931640625,-0.4164474904537201,-0.07342063635587692,-0.047217629849910736
1761476007220836400,7.81283642578125,-0.4410495162010193,-0.0525803379714489,-0.029622122645378113
1761476007230872300,7.822872314453125,-0.4594660699367523,-0.05438317731022835,-0.019589927047491074
1761476007240908300,7.832908203125,-0.47696489095687866,-0.08305077254772186,-0.010226253420114517
1761476007250944300,7.8429443359375,-0.4876348674297333,-0.11243513226509094,-0.0022489791736006737
1761476007260981200,7.852981201171875,-0.493554025888443,-0.12343265116214752,0.0020506950095295906
1761476007271017200,7.863017333984375,-0.49964702129364014,-0.13992206752300262,0.00382306519895792
1761476007281053200,7.87305322265625,-0.5013503432273865,-0.1527920514345169,0.000109819695353508
1761476007291089400,7.88308935546875,-0.5031009912490845,-0.1674746572971344,-0.01066213846206665
1761476007301126400,7.89312646484375,-0.5009489059448242,-0.19846773147583008,-0.02919214777648449
1761476007311162400,7.903162353515625,-0.5039342045783997,-0.24899381399154663,-0.04700157046318054
1761476007321198300,7.9131982421875,-0.5036358833312988,-0.31440824270248413,-0.0681297555565834
1761476007331235300,7.9232353515625,-0.5077860951423645,-0.36858123540878296,-0.085504911839962
1761476007341271300,7.933271240234375,-0.5138631463050842,-0.4171072244644165,-0.09328240901231766
1761476007351307500,7.9433076171875,-0.5327942967414856,-0.4306119680404663,-0.1033242717385292
1761476007361343500,7.953343505859375,-0.556384265422821,-0.41716834902763367,-0.11755886673927307
1761476007371380200,7.963380126953125,-0.5880134701728821,-0.3933103084564209,-0.14375121891498566
1761476007381416400,7.97341650390625,-0.6144903302192688,-0.37818941473960876,-0.17956247925758362
1761476007391452400,7.983452392578125,-0.6365295052528381,-0.36963871121406555,-0.22411464154720306
1761476007401488400,7.99348828125,-0.6527484059333801,-0.36109238862991333,-0.2675713002681732
1761476007411525400,8.003525390625,-0.6698729395866394,-0.34214314818382263,-0.31635165214538574
1761476007421561600,8.0135615234375,-0.6945258378982544,-0.31124886870384216,-0.3613865077495575
1761476007431593500,8.023593505859376,-0.7216101288795471,-0.2785806655883789,-0.3999411165714264
1761476007441629400,8.03362939453125,-0.7438146471977234,-0.24371173977851868,-0.43371713161468506
1761476007451665400,8.04366552734375,-0.7437148094177246,-0.23027391731739044,-0.46157902479171753
1761476007461701400,8.053701416015626,-0.7218694686889648,-0.2521483302116394,-0.47992128133773804
1761476007471738400,8.06373828125,-0.6842384338378906,-0.29492560029029846,-0.481696218252182
1761476007481774300,8.0737744140625,-0.6419272422790527,-0.33125191926956177,-0.4538869559764862
1761476007491810300,8.083810302734374,-0.6302735805511475,-0.33261367678642273,-0.4162652790546417
1761476007501846300,8.09384619140625,-0.6509929895401001,-0.34641551971435547,-0.3968181014060974
1761476007511883300,8.10388330078125,-0.6800926923751831,-0.39732563495635986,-0.4193030893802643
1761476007521919500,8.11391943359375,-0.667698860168457,-0.5081645250320435,-0.4672679305076599
1761476007531955500,8.12395556640625,-0.5951269865036011,-0.6159735321998596,-0.4979555308818817
1761476007541991400,8.133991455078124,-0.4990238547325134,-0.6962289810180664,-0.4879412353038788
1761476007552028400,8.1440283203125,-0.4277876019477844,-0.7310653328895569,-0.4380013942718506
1761476007562064400,8.154064453125,-0.4363970458507538,-0.7072824835777283,-0.3765241801738739
1761476007572100400,8.164100341796875,-0.4947298467159271,-0.6683351993560791,-0.34623393416404724
1761476007582137300,8.174137451171875,-0.5546016693115234,-0.5735903382301331,-0.35727670788764954
1761476007592173300,8.18417333984375,-0.5555362105369568,-0.46365267038345337,-0.3998945653438568
1761476007602209300,8.194209228515625,-0.47432100772857666,-0.3554002344608307,-0.4511929154396057
1761476007612245200,8.204245361328125,-0.3418900966644287,-0.23911362886428833,-0.45935434103012085
1761476007622282200,8.2142822265625,-0.22659440338611603,-0.09047382324934006,-0.40701526403427124
1761476007632318200,8.224318115234375,-0.17542676627635956,0.07896442711353302,-0.30627894401550293
1761476007642354400,8.2343544921875,-0.19429339468479156,0.2265608161687851,-0.1815119981765747
1761476007652390400,8.244390380859375,-0.2524367868900299,0.3396618664264679,-0.05391697585582733
1761476007662427400,8.254427490234375,-0.30871230363845825,0.40821725130081177,0.044928111135959625
1761476007672463400,8.26446337890625,-0.325458824634552,0.3899836838245392,0.11418154090642929
1761476007682499300,8.274499267578125,-0.30223605036735535,0.29825934767723083,0.144516259431839
1761476007692535300,8.284535400390626,-0.24396973848342896,0.18513236939907074,0.15264880657196045
1761476007702572300,8.294572265625,-0.17051710188388824,0.07751589268445969,0.14966526627540588
1761476007712608300,8.304608154296876,-0.09959772974252701,-0.027808377519249916,0.13468395173549652
1761476007722644200,8.314644287109376,-0.04630254954099655,-0.12115456163883209,0.10825713723897934
1761476007732681200,8.32468115234375,-0.017218265682458878,-0.19986490905284882,0.07398400455713272
1761476007742717200,8.33471728515625,-0.024610668420791626,-0.26339754462242126,0.02614111267030239
1761476007752753200,8.344753173828124,-0.0691729262471199,-0.30479177832603455,-0.02475522831082344
1761476007762789400,8.354789306640624,-0.1395333856344223,-0.30086520314216614,-0.07264765352010727
1761476007772826400,8.364826416015624,-0.22168725728988647,-0.2801380455493927,-0.11758310347795486
1761476007782862300,8.3748623046875,-0.29332706332206726,-0.25994783639907837,-0.14812210202217102
1761476007792898300,8.384898193359374,-0.3434375822544098,-0.245008185505867,-0.16624169051647186
1761476007802934500,8.3949345703125,-0.3665415644645691,-0.22397667169570923,-0.1625092625617981
1761476007812971300,8.40497119140625,-0.3588511347770691,-0.2032582312822342,-0.15843074023723602
1761476007823007200,8.41500732421875,-0.33397427201271057,-0.19555583596229553,-0.14809368550777435
1761476007833043500,8.42504345703125,-0.2963610589504242,-0.19620579481124878,-0.1406097114086151
1761476007843080200,8.435080078125,-0.2625274658203125,-0.19924606382846832,-0.12044665962457657
1761476007853116200,8.4451162109375,-0.24253100156784058,-0.20171473920345306,-0.08822967112064362
1761476007863152400,8.45515234375,-0.2596362233161926,-0.1936482936143875,-0.056214213371276855
1761476007873188600,8.465188720703125,-0.307399719953537,-0.17014844715595245,-0.029964353889226913
1761476007883225300,8.475225341796875,-0.38371261954307556,-0.1632828265428543,-0.022559434175491333
1761476007893261300,8.48526123046875,-0.4490879476070404,-0.1469525396823883,-0.028796851634979248
1761476007903297500,8.495297607421875,-0.49399229884147644,-0.11088162660598755,-0.04949653893709183
1761476007913333500,8.50533349609375,-0.5144657492637634,-0.08890329301357269,-0.09225592017173767
1761476007923370200,8.515370361328126,-0.5117208361625671,-0.07248517125844955,-0.12545062601566315
1761476007933406500,8.525406494140626,-0.5006968379020691,-0.024219557642936707,-0.14121776819229126
1761476007943442400,8.5354423828125,-0.4933454692363739,0.06528396159410477,-0.1287323236465454
1761476007953478400,8.545478515625,-0.49763724207878113,0.15497064590454102,-0.11097514629364014
1761476007963515400,8.555515380859376,-0.5029841065406799,0.21388722956180573,-0.0838782861828804
1761476007973551400,8.56555126953125,-0.49989813566207886,0.23147530853748322,-0.062841035425663
1761476007983587300,8.57558740234375,-0.4807334840297699,0.2249729335308075,-0.03792396932840347
1761476007993624600,8.58562451171875,-0.445355623960495,0.20520929992198944,-0.029988612979650497
1761476008003660500,8.59566064453125,-0.3972941040992737,0.17704662680625916,-0.021495791152119637
1761476008013699300,8.60569921875,-0.3521660566329956,0.15616880357265472,-0.017214570194482803
1761476008023735300,8.6157353515625,-0.30838316679000854,0.1432010680437088,-0.009865577332675457
1761476008033772500,8.6257724609375,-0.2721204161643982,0.11722186207771301,0.0033657215535640717
1761476008043808500,8.63580859375,-0.24108897149562836,0.09201930463314056,0.02304195612668991
1761476008053844500,8.645844482421875,-0.21334701776504517,0.04687109962105751,0.03860896825790405
1761476008063881500,8.655881591796875,-0.1982591450214386,-0.009592175483703613,0.06440354883670807
1761476008073917400,8.66591748046875,-0.20097891986370087,-0.032518573105335236,0.1047457680106163
1761476008083953400,8.675953369140625,-0.22592182457447052,0.002004781737923622,0.14335839450359344
1761476008093989400,8.6859892578125,-0.2795761823654175,0.07684917002916336,0.16135361790657043
1761476008104026400,8.6960263671875,-0.34032076597213745,0.13963079452514648,0.1418856531381607
1761476008114062300,8.706062255859376,-0.4031101167201996,0.1712757796049118,0.08226506412029266
1761476008124098300,8.716098388671876,-0.4437084197998047,0.18203522264957428,0.0016847345978021622
1761476008134134300,8.72613427734375,-0.4701851010322571,0.1778373420238495,-0.08027049899101257
1761476008144171500,8.736171630859374,-0.48736757040023804,0.17087450623512268,-0.1522110104560852
1761476008154207200,8.746207275390624,-0.4941795766353607,0.16655001044273376,-0.20643438398838043
1761476008164243200,8.7562431640625,-0.4929065704345703,0.1514325737953186,-0.248291015625
1761476008174280400,8.766280517578124,-0.487152636051178,0.15496863424777985,-0.27291762828826904
1761476008184316400,8.77631640625,-0.4756366014480591,0.15398699045181274,-0.28843215107917786
1761476008194352400,8.786352294921874,-0.4564064145088196,0.1297297179698944,-0.293840229511261
1761476008204388400,8.796388427734374,-0.4356689155101776,0.08655641973018646,-0.28321874141693115
1761476008214425300,8.80642529296875,-0.41849106550216675,0.04901157692074776,-0.23543399572372437
1761476008224461300,8.81646142578125,-0.4116869568824768,0.05290085822343826,-0.15369227528572083
1761476008234497300,8.826497314453125,-0.41286909580230713,0.09580677002668381,-0.0625566840171814
1761476008244533200,8.836533203125,-0.41592293977737427,0.1425313949584961,0.012983081862330437
1761476008254570200,8.8465703125,-0.4198666512966156,0.17013847827911377,0.05585351958870888
1761476008264606200,8.856606201171875,-0.4116886258125305,0.17822463810443878,0.05242416635155678
1761476008274642200,8.86664208984375,-0.3843472898006439,0.150174081325531,0.02156832441687584
1761476008284678100,8.87667822265625,-0.33947327733039856,0.09830182790756226,-0.041387204080820084
1761476008294715400,8.88671533203125,-0.2888118326663971,0.05307461693882942,-0.10303398221731186
1761476008304751400,8.89675146484375,-0.23616324365139008,0.01846443861722946,-0.14805686473846436
1761476008314787300,8.906787353515625,-0.1875515729188919,-0.024420268833637238,-0.18035197257995605
1761476008324823300,8.9168232421875,-0.16131198406219482,-0.07636949419975281,-0.18742293119430542
1761476008334860300,8.9268603515625,-0.15147733688354492,-0.13456732034683228,-0.18061470985412598
1761476008344896300,8.936896240234375,-0.13961029052734375,-0.17222362756729126,-0.15889769792556763
1761476008354932200,8.94693212890625,-0.13557018339633942,-0.2095586508512497,-0.13702690601348877
1761476008364968200,8.95696826171875,-0.13111604750156403,-0.23378250002861023,-0.12474493682384491
1761476008375005200,8.967005126953126,-0.12275829911231995,-0.23343414068222046,-0.1174834594130516
1761476008385041200,8.977041259765626,-0.11230459064245224,-0.18691883981227875,-0.10535808652639389
1761476008395077000,8.9870771484375,-0.0903637483716011,-0.14026685059070587,-0.09198242425918579
1761476008405114400,8.9971142578125,-0.060702256858348846,-0.09405220299959183,-0.08321982622146606
1761476008415150300,9.007150390625,-0.01151839829981327,-0.07707591354846954,-0.07733481377363205
1761476008425186300,9.017186279296874,0.046713218092918396,-0.05406592786312103,-0.06843532621860504
1761476008435222300,9.02722216796875,0.08241572231054306,-0.0108912643045187,-0.07019518315792084
1761476008445258500,9.037258544921874,0.09062518179416656,0.038302116096019745,-0.07965339720249176
1761476008455295200,9.047295166015624,0.06857747584581375,0.07837239652872086,-0.08672458678483963
1761476008465331200,9.057331298828124,0.027085963636636734,0.10251448303461075,-0.10326415300369263
1761476008475367400,9.067367431640625,-0.020862461999058723,0.13013871014118195,-0.123623326420784
1761476008485404200,9.077404052734375,-0.04166361317038536,0.15484486520290375,-0.15973499417304993
1761476008495440100,9.087440185546875,-0.022145889699459076,0.14783157408237457,-0.2155790477991104
1761476008505476400,9.097476318359375,0.051399700343608856,0.07798885554075241,-0.2798115611076355
1761476008515512300,9.10751220703125,0.17173178493976593,-0.04190975800156593,-0.3216055631637573
1761476008525548300,9.11754833984375,0.297122985124588,-0.1830972284078598,-0.33094048500061035
1761476008535585300,9.127585205078125,0.37080150842666626,-0.3020347058773041,-0.288453608751297
1761476008545621500,9.13762158203125,0.3589637577533722,-0.35695546865463257,-0.22290892899036407
1761476008555657500,9.147657470703125,0.2809096872806549,-0.3557169437408447,-0.15217430889606476
1761476008565693400,9.157693359375,0.17350469529628754,-0.3062093257904053,-0.10850886255502701
1761476008575730400,9.16773046875,0.07510163635015488,-0.1939055323600769,-0.08416753262281418
1761476008585766400,9.177766357421875,0.017152849584817886,-0.04358606040477753,-0.07775810360908508
1761476008595802400,9.18780224609375,0.005068733356893063,0.13305102288722992,-0.07397222518920898
1761476008605838300,9.19783837890625,0.022213365882635117,0.31523948907852173,-0.0670650526881218
1761476008615875300,9.207875244140626,0.0409504771232605,0.4545793831348419,-0.05676950514316559
1761476008625911300,9.217911376953126,0.04625016823410988,0.5321916341781616,-0.047003161162137985
1761476008635947300,9.227947265625,0.03184955567121506,0.5722668766975403,-0.028946124017238617
1761476008645983200,9.237983154296876,0.0012426432222127914,0.5827503800392151,-0.006377432495355606
1761476008656020500,9.2480205078125,-0.03744130954146385,0.5660165548324585,0.007367824204266071
1761476008666056400,9.258056396484376,-0.07082163542509079,0.5227431058883667,0.012520241551101208
1761476008676092400,9.268092529296876,-0.08620075136423111,0.45738691091537476,0.007468149997293949
1761476008686128400,9.27812841796875,-0.07195470482110977,0.3611708879470825,0.001192411407828331
1761476008696165400,9.288165283203124,-0.032011788338422775,0.26919424533843994,-0.011866511777043343
1761476008706201300,9.298201416015624,0.02619798853993416,0.18137648701667786,-0.016516391187906265
1761476008716237300,9.3082373046875,0.10088975727558136,0.0952802300453186,-0.012607557699084282
1761476008726273300,9.318273193359374,0.1778913289308548,0.002042694017291069,-0.00796034187078476
1761476008736310300,9.328310302734375,0.2517014145851135,-0.10605582594871521,0.0051265861839056015
1761476008746346200,9.33834619140625,0.30451324582099915,-0.20928128063678741,0.024207334965467453
1761476008756382200,9.34838232421875,0.33344244956970215,-0.285086989402771,0.04649145156145096
1761476008766418200,9.358418212890625,0.33745184540748596,-0.32824647426605225,0.060305267572402954
1761476008776455400,9.368455322265625,0.31306034326553345,-0.35433951020240784,0.06502910703420639
1761476008786491400,9.378491455078125,0.2717278003692627,-0.3381240665912628,0.07606764137744904
1761476008796527400,9.38852734375,0.21886244416236877,-0.27178311347961426,0.07917547225952148
1761476008806563300,9.398563232421875,0.16300690174102783,-0.19690540432929993,0.0753122940659523
1761476008816600300,9.408600341796875,0.1165163666009903,-0.1248144581913948,0.05155837908387184
1761476008826636300,9.41863623046875,0.08494272083044052,-0.025412775576114655,0.029308199882507324
1761476008836672300,9.42867236328125,0.07013539224863052,0.09425210952758789,0.006155971437692642
1761476008846708200,9.438708251953125,0.06606980413198471,0.2046521157026291,-0.016704870387911797
1761476008856745200,9.4487451171875,0.07667142152786255,0.32134509086608887,-0.02250184491276741
1761476008866781200,9.45878125,0.10405857115983963,0.4162156879901886,-0.018038121983408928
1761476008876817200,9.468817138671875,0.1416703313589096,0.4554712474346161,-0.000632195733487606
1761476008886853000,9.47885302734375,0.18723328411579132,0.4291198253631592,0.017288215458393097
1761476008896889000,9.48888916015625,0.23249132931232452,0.36457598209381104,0.0415763184428215
1761476008906926300,9.49892626953125,0.27254393696784973,0.2789401412010193,0.07597264647483826
1761476008916962300,9.50896240234375,0.30474668741226196,0.19649836421012878,0.11703880876302719
1761476008926998300,9.518998291015626,0.3230055868625641,0.14394620060920715,0.16123796999454498
1761476008937034500,9.529034423828126,0.32608386874198914,0.11167978495359421,0.19926048815250397
1761476008947071200,9.5390712890625,0.31670501828193665,0.09417083114385605,0.21933114528656006
1761476008957107200,9.549107177734374,0.3122940957546234,0.09038124233484268,0.21949470043182373
1761476008967143400,9.559143310546874,0.3062135875225067,0.08289775997400284,0.2046065628528595
1761476008977179400,9.569179443359374,0.29269593954086304,0.05612967163324356,0.1790374368429184
1761476008987216100,9.579216064453124,0.2689823508262634,0.042728643864393234,0.15365751087665558
1761476008997252400,9.58925244140625,0.2304723858833313,0.04998727887868881,0.13309204578399658
1761476009007288300,9.599288330078124,0.18346358835697174,0.05575621873140335,0.12056426703929901
1761476009017324300,9.60932421875,0.13057799637317657,0.054047271609306335,0.09906262904405594
1761476009027361300,9.619361328125,0.07863489538431168,0.04018232226371765,0.07402066141366959
1761476009037397500,9.6293974609375,0.031104130670428276,0.017631208524107933,0.0410856157541275
1761476009047433500,9.63943359375,-0.01051734946668148,-0.011094979010522366,0.014701676554977894
1761476009057469400,9.649469482421875,-0.05433099344372749,-0.03740948811173439,-0.0036570141091942787
1761476009067505400,9.65950537109375,-0.10710419714450836,-0.04536062106490135,-0.01094342302531004
1761476009077542400,9.66954248046875,-0.1697351485490799,-0.062112532556056976,-0.021824795752763748
1761476009087578400,9.679578369140625,-0.24622192978858948,-0.08393314480781555,-0.050991736352443695
1761476009097614300,9.6896142578125,-0.3288038372993469,-0.10593144595623016,-0.09505263715982437
1761476009107650300,9.699650390625,-0.4158748388290405,-0.1546904742717743,-0.17422841489315033
1761476009117687300,9.709687255859375,-0.49811238050460815,-0.27406519651412964,-0.29372483491897583
1761476009127723300,9.71972314453125,-0.5657837986946106,-0.4606776833534241,-0.41791895031929016
1761476009137759200,9.72975927734375,-0.6206837296485901,-0.5685433149337769,-0.4983616769313812
1761476009147795200,9.739795166015625,-0.652073323726654,-0.5590683221817017,-0.5411232113838196
1761476009157833000,9.7498330078125,-0.6558340787887573,-0.47997531294822693,-0.5444645285606384
1761476009167869000,9.759868896484376,-0.6341399550437927,-0.37407952547073364,-0.5054646730422974
1761476009177905000,9.76990478515625,-0.5921577215194702,-0.2736848294734955,-0.46271803975105286
1761476009187940900,9.77994091796875,-0.5312320590019226,-0.19054704904556274,-0.4176861345767975
1761476009197977900,9.789977783203126,-0.47336673736572266,-0.17547832429409027,-0.36993682384490967
1761476009208013800,9.800013916015626,-0.42628127336502075,-0.16489385068416595,-0.29011017084121704
1761476009218049800,9.8100498046875,-0.3890528976917267,-0.09425006061792374,-0.19382935762405396
1761476009228086000,9.8200859375,-0.3665561079978943,-0.037061601877212524,-0.0898028165102005
1761476009238122000,9.8301220703125,-0.36317652463912964,-0.024238761514425278,0.010939654894173145
1761476009248159000,9.840158935546874,-0.374503493309021,-0.027779966592788696,0.1146513968706131
1761476009258195000,9.85019482421875,-0.3844161331653595,-0.0015860050916671753,0.20595970749855042
1761476009268231000,9.86023095703125,-0.3958549499511719,0.042695172131061554,0.2712889015674591
1761476009278267000,9.870266845703124,-0.39676621556282043,0.07254611700773239,0.29543009400367737
1761476009288303900,9.880303955078125,-0.39138102531433105,0.09812817722558975,0.2918425500392914
1761476009298339800,9.89033984375,-0.38773325085639954,0.09236465394496918,0.2694576382637024
1761476009308375800,9.900375732421875,-0.39163506031036377,0.06845159828662872,0.23751038312911987
1761476009318411800,9.910411865234375,-0.4142802953720093,0.0408320277929306,0.19453421235084534
1761476009328447700,9.92044775390625,-0.45263567566871643,0.012269889935851097,0.16021272540092468
1761476009338484700,9.930484619140625,-0.5105040073394775,0.018922999501228333,0.14374026656150818
1761476009348521000,9.94052099609375,-0.5732744336128235,0.06090613454580307,0.13545331358909607
1761476009358557000,9.950556884765625,-0.6203023791313171,0.10288847237825394,0.12000325322151184
1761476009368593000,9.960593017578125,-0.6376067996025085,0.11721814423799515,0.09671257436275482
1761476009378630000,9.9706298828125,-0.6164903044700623,0.1279865801334381,0.07384831458330154
1761476009388665900,9.980665771484375,-0.5770866870880127,0.12199553102254868,0.0707811564207077
1761476009398701800,9.990701904296875,-0.5414801239967346,0.07205552607774734,0.0975383073091507
1761476009408737800,10.00073779296875,-0.5314351916313171,0.0166066475212574,0.1503991186618805
1761476009418774800,10.01077490234375,-0.5441362857818604,-0.047477707266807556,0.21774925291538239
1761476009428810800,10.020810791015625,-0.576602578163147,-0.1383463591337204,0.2663482129573822
1761476009438846700,10.0308466796875,-0.6071938872337341,-0.22814743220806122,0.27531540393829346
1761476009448883000,10.040883056640626,-0.6221011877059937,-0.30445605516433716,0.24908410012722015
1761476009458919000,10.0509189453125,-0.6231575608253479,-0.36518368124961853,0.20751088857650757
1761476009468956000,10.060955810546876,-0.6300495862960815,-0.40313851833343506,0.16343504190444946
1761476009478992000,10.070991943359376,-0.6470774412155151,-0.4193473756313324,0.12767282128334045
1761476009489028000,10.081028076171876,-0.6919344067573547,-0.4165595769882202,0.1100674569606781
1761476009499064000,10.09106396484375,-0.7523086071014404,-0.4185161292552948,0.08790158480405807
1761476009509100800,10.101100830078124,-0.8223776817321777,-0.43522852659225464,0.06824878603219986
1761476009519137000,10.111136962890624,-0.8780183792114258,-0.445431113243103,0.057640157639980316
1761476009529173000,10.121173095703124,-0.9193860292434692,-0.4496319591999054,0.05782764405012131
1761476009539209000,10.131208984375,-0.9498459696769714,-0.46092525124549866,0.07962820678949356
1761476009549246000,10.141245849609374,-0.9615052938461304,-0.44206076860427856,0.10640203207731247
1761476009559282000,10.151281982421875,-0.9540510773658752,-0.4170023798942566,0.1324271559715271
1761476009569318000,10.16131787109375,-0.934707760810852,-0.3843296468257904,0.1436379998922348
1761476009579353900,10.171353759765625,-0.9125339388847351,-0.3622540831565857,0.13710211217403412
1761476009589391000,10.18139111328125,-0.8956249952316284,-0.3574462831020355,0.11889009177684784
1761476009599427000,10.191427001953125,-0.893912136554718,-0.3623112738132477,0.10392951220273972
1761476009609463000,10.201463134765625,-0.9168185591697693,-0.36399251222610474,0.09811557084321976
1761476009619499000,10.2114990234375,-0.9501010179519653,-0.39364689588546753,0.08248566836118698
1761476009629535000,10.221534912109375,-0.9686903953552246,-0.5184524655342102,0.05300687253475189
1761476009639572000,10.231572021484375,-0.9671634435653687,-0.6837782859802246,0.01788567565381527
1761476009649608000,10.24160791015625,-0.9723885655403137,-0.7917646765708923,-0.03134738653898239
1761476009659644000,10.251643798828125,-1.01072359085083,-0.8642852902412415,-0.10641158372163773
1761476009669679900,10.261679931640625,-1.091489553451538,-0.9309378266334534,-0.18670561909675598
1761476009679716900,10.271716796875,-1.1872433423995972,-0.9683427214622498,-0.24775190651416779
1761476009689752800,10.2817529296875,-1.2724597454071045,-0.9207781553268433,-0.29983294010162354
1761476009699788800,10.291788818359375,-1.345585823059082,-0.7440038919448853,-0.34540167450904846
1761476009709824800,10.30182470703125,-1.420692801475525,-0.46042463183403015,-0.3968134820461273
1761476009719862000,10.311862060546876,-1.5132712125778198,-0.1560061126947403,-0.4525769352912903
1761476009729898000,10.32189794921875,-1.6145269870758057,0.11061173677444458,-0.500777006149292
1761476009739934000,10.331933837890626,-1.6966506242752075,0.35845962166786194,-0.5464085340499878
1761476009749970000,10.341969970703126,-1.7182831764221191,0.5264614224433899,-0.5892766118049622
1761476009760007000,10.3520068359375,-1.6694830656051636,0.5720287561416626,-0.6162508130073547
1761476009770043000,10.36204296875,-1.5757701396942139,0.5518811345100403,-0.6101388931274414
1761476009780078800,10.372078857421876,-1.4597238302230835,0.43405210971832275,-0.5767279863357544
1761476009790114800,10.38211474609375,-1.3432080745697021,0.2334796041250229,-0.5177525877952576
1761476009800150800,10.39215087890625,-1.2366589307785034,0.015032854862511158,-0.42595797777175903
1761476009810187800,10.402187744140624,-1.14986252784729,-0.187946617603302,-0.3183431029319763
1761476009820223700,10.4122236328125,-1.0721689462661743,-0.3195938766002655,-0.19030530750751495
1761476009830259700,10.422259765625,-1.0201914310455322,-0.36466655135154724,-0.0593281164765358
1761476009840295700,10.432295654296874,-0.9940640330314636,-0.3672155439853668,0.04320327937602997
1761476009850333000,10.4423330078125,-0.9812068343162537,-0.36919745802879333,0.10135313868522644
1761476009860369000,10.452368896484375,-0.9769347906112671,-0.33879420161247253,0.10755887627601624
1761476009870404900,10.46240478515625,-0.9661388397216797,-0.2661588788032532,0.08969226479530334
1761476009880440800,10.47244091796875,-0.9510284066200256,-0.16998745501041412,0.05925536900758743
1761476009890477800,10.482477783203125,-0.9420329928398132,-0.0848536565899849,0.016126010566949844
1761476009900513800,10.492513671875,-0.944269061088562,-0.06482051312923431,-0.023001380264759064
1761476009910549800,10.5025498046875,-0.9424285888671875,-0.08019068092107773,-0.06914623826742172
1761476009920586000,10.5125859375,-0.9407472610473633,-0.13335217535495758,-0.10093384236097336
1761476009930622700,10.522622802734375,-0.9326333999633789,-0.19678787887096405,-0.12283168733119965
1761476009940658700,10.53265869140625,-0.9269968867301941,-0.23553350567817688,-0.14016065001487732
1761476009950695000,10.54269482421875,-0.9260972738265991,-0.23677852749824524,-0.15344209969043732
1761476009960731000,10.55273095703125,-0.9277991652488708,-0.2109045684337616,-0.1643316000699997
1761476009970768000,10.562767822265625,-0.9176914095878601,-0.13894808292388916,-0.17262868583202362
1761476009980803800,10.572803955078125,-0.8939390182495117,-0.053206246346235275,-0.16311563551425934
1761476009990840000,10.582840087890625,-0.8604036569595337,0.014329122379422188,-0.15121504664421082
1761476010000876000,10.5928759765625,-0.8162025809288025,0.0324229896068573,-0.13592199981212616
1761476010010912800,10.602912841796876,-0.7729960083961487,-0.008764391764998436,-0.12263789027929306
1761476010020949000,10.612948974609376,-0.7375935912132263,-0.06597850471735,-0.1084795668721199
1761476010030985000,10.62298486328125,-0.708773672580719,-0.09894604235887527,-0.10008422285318375
1761476010041021000,10.63302099609375,-0.6788625121116638,-0.12902115285396576,-0.09413806349039078
1761476010051058000,10.643057861328124,-0.6469911336898804,-0.16817601025104523,-0.09836024045944214
1761476010061094000,10.653093994140624,-0.6059331297874451,-0.22713153064250946,-0.11072259396314621
1761476010071129900,10.6631298828125,-0.5821394324302673,-0.2743283212184906,-0.12703712284564972
1761476010081165800,10.673165771484374,-0.5758214592933655,-0.2635994553565979,-0.15133552253246307
1761476010091203000,10.683203125,-0.5902971029281616,-0.23357869684696198,-0.18338507413864136
1761476010101239000,10.693239013671874,-0.6091317534446716,-0.2040839046239853,-0.22082234919071198
1761476010111275000,10.70327490234375,-0.6180040836334229,-0.17926378548145294,-0.24643343687057495
1761476010121311000,10.71331103515625,-0.6197159886360168,-0.15982936322689056,-0.2651734948158264
1761476010131348000,10.723347900390625,-0.6106055974960327,-0.15502288937568665,-0.2813735008239746
1761476010141384000,10.733384033203125,-0.6023774147033691,-0.17943494021892548,-0.28972646594047546
1761476010151420000,10.743419921875,-0.5987493395805359,-0.1796724945306778,-0.28260117769241333
1761476010161455000,10.753455078125,-0.6030134558677673,-0.12478508800268173,-0.25210604071617126
1761476010171492400,10.763492431640625,-0.6075397729873657,-0.04851774126291275,-0.2189214527606964
1761476010181528300,10.7735283203125,-0.6064261794090271,-0.004623184446245432,-0.1939849555492401
1761476010191564300,10.783564208984375,-0.589184045791626,-0.008458135649561882,-0.19268479943275452
1761476010201600300,10.793600341796875,-0.5661517381668091,-0.03280409798026085,-0.2134084552526474
1761476010211637200,10.80363720703125,-0.5470172166824341,-0.06199473887681961,-0.2510506510734558
1761476010221673200,10.813673095703125,-0.5453807711601257,-0.07807977497577667,-0.2850048243999481
1761476010231709200,10.823709228515625,-0.5631887912750244,-0.07732956856489182,-0.31533530354499817
1761476010241745200,10.8337451171875,-0.6008380651473999,-0.07825585454702377,-0.3332694172859192
1761476010251782100,10.8437822265625,-0.6415000557899475,-0.09337674826383591,-0.33958324790000916
1761476010261818000,10.853818115234375,-0.6648920774459839,-0.12292991578578949,-0.3342844247817993
1761476010271854000,10.86385400390625,-0.6581718325614929,-0.16369837522506714,-0.32277822494506836
1761476010281890000,10.87389013671875,-0.6213727593421936,-0.1971510499715805,-0.2691057622432709
1761476010291927300,10.88392724609375,-0.5812399983406067,-0.27678459882736206,-0.18522761762142181
1761476010301963300,10.89396337890625,-0.5586991906166077,-0.3183685839176178,-0.08831822872161865
1761476010311999200,10.903999267578126,-0.5512508749961853,-0.31804633140563965,0.008188340812921524
1761476010322035200,10.91403515625,-0.5576339364051819,-0.3247365653514862,0.07553820312023163
1761476010332072200,10.924072265625,-0.5656463503837585,-0.31665360927581787,0.11639588326215744
1761476010342108200,10.934108154296876,-0.5674113035202026,-0.3035564422607422,0.13666504621505737
