time,seconds_elapsed,z,y,x
1761475660949655600,0.069655517578125,-0.004573392681777477,0.14584991335868835,-0.08856993168592453
1761475660959632400,0.07963232421875,-0.028438245877623558,0.16133379936218262,0.005389314144849777
1761475660969609500,0.089609375,-0.04532559961080551,0.08752444386482239,0.08560902625322342
1761475660979586300,0.09958642578125,-0.05279550328850746,-0.006143191829323769,0.14528301358222961
1761475660989563400,0.1095634765625,-0.05081254243850708,-0.1031867042183876,0.19259651005268097
1761475660999540500,0.11954052734375,-0.03425167500972748,-0.2164038121700287,0.22028832137584686
1761475661009517300,0.129517333984375,-0.008611466735601425,-0.3183606266975403,0.23689298331737518
1761475661019494700,0.13949462890625,0.008972054347395897,-0.32243046164512634,0.2416917234659195
1761475661029471500,0.149471435546875,0.018839552998542786,-0.26742395758628845,0.23630279302597046
1761475661039448600,0.159448486328125,0.04348338022828102,-0.20007766783237457,0.224026158452034
1761475661049425400,0.16942529296875,0.0794353038072586,-0.15053841471672058,0.20281720161437988
1761475661059402500,0.179402587890625,0.11910655349493027,-0.1471620500087738,0.16707783937454224
1761475661069380600,0.189380615234375,0.13416005671024323,-0.13803091645240784,0.12105600535869598
1761475661079357400,0.199357421875,0.12924093008041382,-0.1019650474190712,0.09570883959531784
1761475661089334800,0.209334716796875,0.12935063242912292,-0.05974671244621277,0.08679941296577454
1761475661099311900,0.219311767578125,0.11897815018892288,-0.03881586343050003,0.0730963870882988
1761475661109289000,0.2292890625,0.12177225202322006,-0.08273555338382721,0.04499432072043419
1761475661119265800,0.239265869140625,0.13384541869163513,-0.14421887695789337,0.004548362921923399
1761475661129243000,0.249242919921875,0.15501739084720612,-0.20540788769721985,-0.033743537962436676
1761475661139219700,0.2592197265625,0.16426469385623932,-0.22059908509254456,-0.050647687166929245
1761475661149196800,0.26919677734375,0.1702081710100174,-0.19566486775875092,-0.052376605570316315
1761475661159173600,0.279173583984375,0.17731428146362305,-0.17289003729820251,-0.04650380462408066
1761475661169150700,0.289150634765625,0.187165766954422,-0.14844787120819092,-0.0382845476269722
1761475661179127800,0.2991279296875,0.19222897291183472,-0.11657728999853134,-0.026993008330464363
1761475661189105000,0.30910498046875,0.19039928913116455,-0.06850019842386246,-0.011608577333390713
1761475661199082000,0.31908203125,0.1867680698633194,-0.035280197858810425,0.004058798775076866
1761475661209059800,0.329059814453125,0.17477326095104218,-0.02331264317035675,-0.0026298293378204107
1761475661219037000,0.339036865234375,0.1586824357509613,-0.015031278133392334,-0.010066439397633076
1761475661229014000,0.349013916015625,0.14212052524089813,-0.018329976126551628,-0.0243921410292387
1761475661238990800,0.358990966796875,0.12281952798366547,-0.03959638252854347,-0.040312785655260086
1761475661248968000,0.368968017578125,0.11823801696300507,-0.06877344101667404,-0.05045877397060394
1761475661258944800,0.37894482421875,0.12321839481592178,-0.08450686186552048,-0.05231126770377159
1761475661268921900,0.388921875,0.12509556114673615,-0.08570998162031174,-0.04181107133626938
1761475661278899000,0.39889892578125,0.109827920794487,-0.08200259506702423,-0.031744856387376785
1761475661288875800,0.408875732421875,0.09452220052480698,-0.10668311268091202,-0.020339755341410637
1761475661298852900,0.418852783203125,0.07640578597784042,-0.11103285104036331,-0.0076079824939370155
1761475661308829700,0.42882958984375,0.062153417617082596,-0.12573961913585663,0.002016558777540922
1761475661318806800,0.438806884765625,0.051312755793333054,-0.12996019423007965,0.009407362900674343
1761475661328784000,0.448783935546875,0.051120907068252563,-0.1224621832370758,0.02515576221048832
1761475661338761700,0.45876171875,0.06462046504020691,-0.08026546239852905,0.049257103353738785
1761475661348738800,0.46873876953125,0.097566619515419,-0.025401894003152847,0.08091779053211212
1761475661358715600,0.478715576171875,0.11669503897428513,0.02296590432524681,0.09206152707338333
1761475661368693000,0.48869287109375,0.13640040159225464,0.019883131608366966,0.08748222887516022
1761475661378669800,0.498669921875,0.1542997807264328,0.017893219366669655,0.0630546510219574
1761475661388647000,0.50864697265625,0.1559242308139801,0.000691812951117754,0.026905110105872154
1761475661398624000,0.5186240234375,0.13970957696437836,0.01123739778995514,-0.014255110174417496
1761475661408600800,0.528600830078125,0.13081160187721252,0.020332463085651398,-0.05700056254863739
1761475661418578000,0.538577880859375,0.13906845450401306,0.03523232042789459,-0.09838102012872696
1761475661428554800,0.5485546875,0.15850920975208282,0.04881672561168671,-0.13646599650382996
1761475661438531800,0.55853173828125,0.19309355318546295,0.06251496821641922,-0.16321265697479248
1761475661448508700,0.5685087890625,0.21568019688129425,0.08362216502428055,-0.18142405152320862
1761475661458485800,0.57848583984375,0.21974417567253113,0.1285310536623001,-0.18281422555446625
1761475661468462800,0.588462890625,0.2235967516899109,0.15250210464000702,-0.17482507228851318
1761475661478440700,0.598440673828125,0.21903714537620544,0.16586266458034515,-0.17025749385356903
1761475661488417800,0.608417724609375,0.22781674563884735,0.15456345677375793,-0.16257499158382416
1761475661498394600,0.61839453125,0.23491540551185608,0.13286349177360535,-0.14393846690654755
1761475661508371700,0.628371826171875,0.2531897723674774,0.11779414862394333,-0.11629700660705566
1761475661518349000,0.63834912109375,0.26851415634155273,0.08591984212398529,-0.09139379113912582
1761475661528326000,0.648325927734375,0.268973708152771,0.036386266350746155,-0.06816719472408295
1761475661538303000,0.658302978515625,0.2517385482788086,-0.01443270780146122,-0.056116923689842224
1761475661548279800,0.66827978515625,0.23008586466312408,-0.04787450656294823,-0.04534343630075455
1761475661558257000,0.6782568359375,0.2038353532552719,-0.09201160073280334,-0.04721830412745476
1761475661568233700,0.688233642578125,0.18606515228748322,-0.1415884792804718,-0.060615334659814835
1761475661578210800,0.6982109375,0.17878539860248566,-0.1688171625137329,-0.06630944460630417
1761475661588188000,0.70818798828125,0.17160385847091675,-0.16116181015968323,-0.06921263039112091
1761475661598164700,0.718164794921875,0.1676461398601532,-0.11688409000635147,-0.0723639503121376
1761475661608142800,0.728142822265625,0.17986392974853516,-0.050492119044065475,-0.06314012408256531
1761475661618120000,0.738119873046875,0.21518410742282867,0.014846940524876118,-0.059316083788871765
1761475661628096800,0.7480966796875,0.25659871101379395,0.0596635676920414,-0.05530768260359764
1761475661638073900,0.758073974609375,0.30110305547714233,0.0777277871966362,-0.05721477046608925
1761475661648050700,0.76805078125,0.33815374970436096,0.06869237869977951,-0.06447084248065948
1761475661658027800,0.77802783203125,0.35732051730155945,0.029827537015080452,-0.06681229174137115
1761475661668004900,0.7880048828125,0.35588201880455017,-0.024840978905558586,-0.06390563398599625
1761475661677982000,0.79798193359375,0.3394244611263275,-0.09084130823612213,-0.05254112184047699
1761475661687959000,0.807958984375,0.3148268461227417,-0.1702210158109665,-0.045127056539058685
1761475661697936000,0.817935791015625,0.28263986110687256,-0.22884412109851837,-0.043136876076459885
1761475661707913000,0.827912841796875,0.25650352239608765,-0.2535362243652344,-0.03241204470396042
1761475661717889800,0.837889892578125,0.23441579937934875,-0.23932477831840515,-0.032858122140169144
1761475661727867000,0.847866943359375,0.21653400361537933,-0.1951226443052292,-0.04167068004608154
1761475661737845000,0.857844970703125,0.1991819143295288,-0.13104484975337982,-0.05518941953778267
1761475661747821800,0.86782177734375,0.19174735248088837,-0.06887416541576385,-0.08641406148672104
1761475661757799000,0.877798828125,0.19594237208366394,-0.0347747877240181,-0.12681208550930023
1761475661767775700,0.887775634765625,0.21093136072158813,-0.036513298749923706,-0.16987580060958862
1761475661777752800,0.8977529296875,0.22459018230438232,-0.025306982919573784,-0.2154664546251297
1761475661787729700,0.907729736328125,0.23989103734493256,-0.003734627040103078,-0.25027456879615784
1761475661797706800,0.917706787109375,0.2660512924194336,0.03406308591365814,-0.26856622099876404
1761475661807683800,0.927683837890625,0.2898426949977875,0.08430393040180206,-0.26950812339782715
1761475661817661000,0.937660888671875,0.29679328203201294,0.12555044889450073,-0.2594560384750366
1761475661827638000,0.947637939453125,0.29208552837371826,0.14739491045475006,-0.2376391440629959
1761475661837614800,0.95761474609375,0.28764069080352783,0.16406497359275818,-0.2053176909685135
1761475661847592000,0.967592041015625,0.27688342332839966,0.13579291105270386,-0.16176094114780426
1761475661857568800,0.97756884765625,0.27356910705566406,0.07519960403442383,-0.11283574253320694
1761475661867547000,0.987546875,0.2674252986907959,0.026226196438074112,-0.0635121539235115
1761475661877524000,0.99752392578125,0.25190067291259766,-0.023450279608368874,-0.020978277549147606
1761475661887500800,1.007500732421875,0.22240622341632843,-0.051117219030857086,0.025645317509770393
1761475661897478000,1.017477783203125,0.1994396597146988,-0.046365343034267426,0.07035233825445175
1761475661907454700,1.027454833984375,0.18270893394947052,-0.018126830458641052,0.10917742550373077
1761475661917431800,1.037431884765625,0.18883952498435974,0.010430512018501759,0.13566015660762787
1761475661927409000,1.047408935546875,0.21007469296455383,0.020954789593815804,0.14546523988246918
1761475661937385700,1.0573857421875,0.22831042110919952,0.016168823465704918,0.15655463933944702
1761475661947362800,1.06736279296875,0.21479959785938263,0.022236833348870277,0.15708474814891815
1761475661957339600,1.077339599609375,0.18296363949775696,0.01845381408929825,0.14731867611408234
1761475661967317000,1.08731689453125,0.14717184007167816,0.013885054737329483,0.14006605744361877
1761475661977293800,1.0972939453125,0.11696625500917435,0.009183775633573532,0.13737227022647858
1761475661987271000,1.10727099609375,0.09052183479070663,-0.004949939902871847,0.14283818006515503
1761475661997248000,1.117248046875,0.07231433689594269,-0.025357741862535477,0.1679597795009613
1761475662007225900,1.127225830078125,0.04596969112753868,-0.05430939048528671,0.2076057642698288
1761475662017203000,1.137202880859375,0.01580752804875374,-0.06433246284723282,0.25600287318229675
1761475662027180000,1.147179931640625,-0.004730972461402416,-0.05050767958164215,0.32785099744796753
1761475662037156900,1.157156982421875,-0.0036691701970994473,0.007623001001775265,0.4019041955471039
1761475662047134000,1.167134033203125,0.027570050209760666,0.05765214562416077,0.4934404790401459
1761475662057110800,1.17711083984375,0.08714443445205688,0.06958256661891937,0.5542297959327698
1761475662067088000,1.187087890625,0.15009963512420654,-0.01962597668170929,0.5806602239608765
1761475662077064700,1.197064697265625,0.13751299679279327,-0.16952332854270935,0.5466641783714294
1761475662087041800,1.207041748046875,0.031094979494810104,-0.34358829259872437,0.4424916207790375
1761475662097018600,1.2170185546875,-0.1196199581027031,-0.549172043800354,0.32619696855545044
1761475662106995500,1.226995361328125,-0.31815624237060547,-0.6098343729972839,0.16865132749080658
1761475662116972800,1.236972900390625,-0.48959991335868835,-0.6633689403533936,0.013325118459761143
1761475662126950000,1.246949951171875,-0.5818341970443726,-0.6544463038444519,-0.12060343474149704
1761475662136927500,1.256927490234375,-0.5754050612449646,-0.5226219296455383,-0.19260971248149872
1761475662146904800,1.26690478515625,-0.5126664042472839,-0.3034980297088623,-0.2148032933473587
1761475662156881700,1.276881591796875,-0.4134492576122284,0.003432097379118204,-0.19659394025802612
1761475662166858800,1.286858642578125,-0.29652678966522217,0.33717674016952515,-0.1698189675807953
1761475662176835800,1.2968359375,-0.15345193445682526,0.6085988879203796,-0.12514257431030273
1761475662186812700,1.306812744140625,-0.003046540543437004,0.8069568276405334,-0.07236230373382568
1761475662196789800,1.316789794921875,0.10216083377599716,0.8829834461212158,-0.040112756192684174
1761475662206766600,1.3267666015625,0.14517918229103088,0.8127755522727966,-0.03998420014977455
1761475662216743700,1.33674365234375,0.1474122554063797,0.6587945222854614,-0.05265338718891144
1761475662226720500,1.346720458984375,0.12333977222442627,0.4946464002132416,-0.05315165966749191
1761475662236697600,1.356697509765625,0.07128243148326874,0.3052906095981598,-0.05882871896028519
1761475662246674700,1.3666748046875,0.02114349976181984,0.0707535669207573,-0.05560998246073723
1761475662256651500,1.376651611328125,-0.007074822671711445,-0.1506856232881546,-0.01952201873064041
1761475662266628900,1.38662890625,-0.025714019313454628,-0.2751295268535614,0.057051852345466614
1761475662276606500,1.3966064453125,-0.0620211623609066,-0.30426105856895447,0.17229454219341278
1761475662286583600,1.40658349609375,-0.13020417094230652,-0.28580302000045776,0.2713712751865387
1761475662296560600,1.416560546875,-0.21163778007030487,-0.2555263340473175,0.3480391502380371
1761475662306537700,1.426537841796875,-0.2865615487098694,-0.2230195254087448,0.3870403468608856
1761475662316514800,1.436514892578125,-0.34081411361694336,-0.19567418098449707,0.3857857286930084
1761475662326491600,1.44649169921875,-0.38063371181488037,-0.19173067808151245,0.3379957973957062
1761475662336468700,1.45646875,-0.40512174367904663,-0.20467683672904968,0.25385722517967224
1761475662346445600,1.466445556640625,-0.41968750953674316,-0.205024853348732,0.14565680921077728
1761475662356422700,1.476422607421875,-0.42172056436538696,-0.19913899898529053,0.02807559072971344
1761475662366399700,1.486399658203125,-0.42745068669319153,-0.19112344086170197,-0.10339485853910446
1761475662376376600,1.49637646484375,-0.42850610613822937,-0.17183469235897064,-0.23205962777137756
1761475662386353700,1.506353759765625,-0.4308498203754425,-0.12284764647483826,-0.35235318541526794
1761475662396330500,1.51633056640625,-0.42164620757102966,-0.04734303802251816,-0.4414987862110138
1761475662406308600,1.52630859375,-0.41376733779907227,0.021885564550757408,-0.5111115574836731
1761475662416285700,1.53628564453125,-0.40524762868881226,0.06289717555046082,-0.5618420839309692
1761475662426262500,1.546262451171875,-0.39201492071151733,0.09001456201076508,-0.5846447348594666
1761475662436239600,1.556239501953125,-0.37036609649658203,0.1090305969119072,-0.5696612596511841
1761475662446216700,1.566216796875,-0.3372661769390106,0.11599938571453094,-0.5301401019096375
1761475662456193800,1.57619384765625,-0.30056115984916687,0.12346875667572021,-0.4660694897174835
1761475662466171000,1.5861708984375,-0.26447343826293945,0.1172865480184555,-0.38916462659835815
1761475662476147700,1.596147705078125,-0.22658249735832214,0.0955066829919815,-0.31343817710876465
1761475662486124800,1.606124755859375,-0.1874990165233612,0.07534069567918777,-0.2274377942085266
1761475662496101600,1.6161015625,-0.1476285606622696,0.07379180192947388,-0.13379092514514923
1761475662506078700,1.62607861328125,-0.1167202964425087,0.07833889126777649,-0.04580725356936455
1761475662516055600,1.6360556640625,-0.1108594760298729,0.07719293236732483,0.02181999571621418
1761475662526032600,1.64603271484375,-0.11092562228441238,0.07320468127727509,0.0663284957408905
1761475662536010800,1.6560107421875,-0.10803928226232529,0.07456129789352417,0.09586800634860992
1761475662545987600,1.665987548828125,-0.09502556920051575,0.077544666826725,0.10670296102762222
1761475662555964700,1.675964599609375,-0.07186219841241837,0.07731404155492783,0.09803996980190277
1761475662565941500,1.68594140625,-0.04227426275610924,0.07589282840490341,0.07951280474662781
1761475662575918600,1.695918701171875,-0.01629512570798397,0.07436870038509369,0.04665685445070267
1761475662585895700,1.705895751953125,0.002748389495536685,0.06182669475674629,0.0012886535841971636
1761475662595872800,1.715872802734375,0.015538486652076244,0.03985641524195671,-0.05289282649755478
1761475662605849900,1.725849853515625,0.025278804823756218,0.02941475808620453,-0.10240232944488525
1761475662615826700,1.73582666015625,0.053794603794813156,0.03885140269994736,-0.12647438049316406
1761475662625803800,1.7458037109375,0.09899292886257172,0.06426221132278442,-0.12613700330257416
1761475662635780600,1.755780517578125,0.1484004259109497,0.11545775085687637,-0.10458270460367203
1761475662645757700,1.7657578125,0.1921071857213974,0.15233993530273438,-0.08103135228157043
1761475662655734800,1.77573486328125,0.22976136207580566,0.17512167990207672,-0.04795276001095772
1761475662665711600,1.785711669921875,0.2557792663574219,0.1440386325120926,-0.012050488032400608
1761475662675689700,1.795689697265625,0.26788759231567383,0.09100790321826935,0.029522787779569626
1761475662685666600,1.80566650390625,0.28036925196647644,0.047424644231796265,0.09644816070795059
1761475662695643600,1.8156435546875,0.29421478509902954,0.013507691211998463,0.17035700380802155
1761475662705620700,1.825620849609375,0.3062272071838379,-0.013582197949290276,0.2418493777513504
1761475662715597600,1.83559765625,0.31758424639701843,-0.03719484806060791,0.3094928562641144
1761475662725574700,1.84557470703125,0.3305242359638214,-0.03473201021552086,0.3630291223526001
1761475662735551500,1.855551513671875,0.3450195789337158,-0.01910431683063507,0.405928373336792
1761475662745528600,1.865528564453125,0.3543431758880615,-0.008478892967104912,0.43352314829826355
1761475662755505700,1.875505615234375,0.356023371219635,-0.07131804525852203,0.4265749752521515
1761475662765482800,1.885482666015625,0.32892271876335144,-0.17412036657333374,0.3816937208175659
1761475662775459800,1.8954599609375,0.2924286127090454,-0.2869877815246582,0.31768330931663513
1761475662785436700,1.905436767578125,0.2532649040222168,-0.3608241379261017,0.2563939392566681
1761475662795413800,1.915413818359375,0.21493031084537506,-0.4007113575935364,0.19978924095630646
1761475662805392000,1.925391845703125,0.16516755521297455,-0.41173937916755676,0.15595918893814087
1761475662815368700,1.93536865234375,0.11635075509548187,-0.3321739733219147,0.13046687841415405
1761475662825345800,1.945345703125,0.09113109111785889,-0.19180844724178314,0.12349747866392136
1761475662835322600,1.955322509765625,0.09454206377267838,-0.03748784959316254,0.128335103392601
1761475662845299700,1.9652998046875,0.1280101090669632,0.10963640362024307,0.14983704686164856
1761475662855276500,1.975276611328125,0.16867338120937347,0.21882495284080505,0.17703616619110107
1761475662865253600,1.985253662109375,0.19457091391086578,0.2886914312839508,0.19683270156383514
1761475662875230700,1.995230712890625,0.20943108201026917,0.2942473292350769,0.2040245682001114
1761475662885207600,2.00520751953125,0.21690499782562256,0.2233908772468567,0.1961415857076645
1761475662895184600,2.0151845703125,0.22720743715763092,0.1208362802863121,0.19336923956871033
1761475662905161700,2.02516162109375,0.24812975525856018,0.055070046335458755,0.2049931287765503
1761475662915138800,2.035138916015625,0.2875562906265259,0.0555824376642704,0.23661737143993378
1761475662925115600,2.04511572265625,0.32779428362846375,0.11591283977031708,0.2727265954017639
1761475662935092700,2.0550927734375,0.3536250591278076,0.17378146946430206,0.30169883370399475
1761475662945069800,2.06506982421875,0.35481229424476624,0.198060542345047,0.29690223932266235
1761475662955047700,2.075047607421875,0.3319581151008606,0.18543343245983124,0.2739122211933136
1761475662965024800,2.085024658203125,0.290280282497406,0.1318882405757904,0.236530601978302
1761475662975001600,2.095001708984375,0.25552549958229065,0.04440952092409134,0.197101429104805
1761475662984978700,2.104978759765625,0.21949884295463562,-0.02696404419839382,0.1609089970588684
1761475662994955800,2.114955810546875,0.18958355486392975,-0.07360664755105972,0.11880602687597275
1761475663004932600,2.1249326171875,0.17531093955039978,-0.08222123235464096,0.08104962110519409
1761475663014909700,2.13490966796875,0.17013216018676758,-0.06709927320480347,0.028233543038368225
1761475663024886500,2.144886474609375,0.17229819297790527,-0.0542445182800293,-0.03530997782945633
1761475663034863600,2.154863525390625,0.16146552562713623,-0.04610243812203407,-0.10755755007266998
1761475663044840400,2.16484033203125,0.13985665142536163,-0.04296272248029709,-0.18181705474853516
1761475663054817800,2.17481787109375,0.119278684258461,-0.04147854074835777,-0.2510395646095276
1761475663064795000,2.184794921875,0.09999656677246094,-0.0015823119319975376,-0.2988794445991516
1761475663074771700,2.194771728515625,0.0900331512093544,0.07421551644802094,-0.32148277759552
1761475663084749800,2.204749755859375,0.0819133073091507,0.14358611404895782,-0.344857394695282
1761475663094726400,2.214726318359375,0.08034364134073257,0.20600369572639465,-0.3504132926464081
1761475663104703200,2.224703125,0.09373608976602554,0.27726098895072937,-0.3495441973209381
1761475663114680300,2.234680419921875,0.12313712388277054,0.3352198898792267,-0.33777356147766113
1761475663124657400,2.244657470703125,0.15072248876094818,0.35887381434440613,-0.3228408098220825
1761475663134634200,2.25463427734375,0.18693561851978302,0.3537677228450775,-0.30146387219429016
1761475663144611300,2.264611328125,0.2184567153453827,0.3266781270503998,-0.28385695815086365
1761475663154588200,2.274588134765625,0.22574391961097717,0.2917931377887726,-0.2697712182998657
1761475663164565200,2.284565185546875,0.22481825947761536,0.2852945923805237,-0.2613414525985718
1761475663174542000,2.2945419921875,0.2237955927848816,0.29396000504493713,-0.24701178073883057
1761475663184519200,2.304519287109375,0.22421680390834808,0.2939116954803467,-0.23927423357963562
1761475663194496500,2.31449658203125,0.23624683916568756,0.26221394538879395,-0.23589468002319336
1761475663204473300,2.324473388671875,0.26100435853004456,0.17899225652217865,-0.23538783192634583
1761475663214450400,2.334450439453125,0.27849891781806946,0.05226893350481987,-0.2374989241361618
1761475663224428300,2.34442822265625,0.28413644433021545,-0.08899547159671783,-0.22870683670043945
1761475663234405400,2.3544052734375,0.2781105041503906,-0.20639505982398987,-0.19155919551849365
1761475663244382500,2.364382568359375,0.2571578919887543,-0.26632991433143616,-0.14020636677742004
1761475663254359300,2.374359375,0.21790476143360138,-0.27193933725357056,-0.06772176921367645
1761475663264336400,2.38433642578125,0.1811116337776184,-0.2407499998807907,0.010381659492850304
1761475663274313200,2.394313232421875,0.14318768680095673,-0.18233036994934082,0.08188939839601517
1761475663284290300,2.404290283203125,0.092005155980587,-0.11197816580533981,0.13813844323158264
1761475663294267400,2.414267333984375,0.03070744499564171,-0.04615601524710655,0.17233343422412872
1761475663304244200,2.424244140625,-0.03217962756752968,-0.0007132708560675383,0.19094757735729218
1761475663314221300,2.43422119140625,-0.09681188315153122,-0.01914447732269764,0.1906149536371231
1761475663324198100,2.4441982421875,-0.153414785861969,-0.07560455799102783,0.17388615012168884
1761475663334175200,2.45417529296875,-0.20190109312534332,-0.1311599612236023,0.16032721102237701
1761475663344152300,2.46415234375,-0.2438642829656601,-0.18603259325027466,0.15507923066616058
1761475663354130200,2.474130126953125,-0.2744373679161072,-0.2268495261669159,0.154022216796875
1761475663364107300,2.484107177734375,-0.3048623204231262,-0.24656501412391663,0.17387832701206207
1761475663374084400,2.49408447265625,-0.32684430480003357,-0.21610058844089508,0.22043703496456146
1761475663384061400,2.5040615234375,-0.3407157361507416,-0.14081062376499176,0.2815604507923126
1761475663394038300,2.514038330078125,-0.3564299941062927,-0.12578000128269196,0.33653339743614197
1761475663404015400,2.524015380859375,-0.37956327199935913,-0.245958611369133,0.34264883399009705
1761475663413992400,2.533992431640625,-0.44205647706985474,-0.46168506145477295,0.2862582504749298
1761475663423969300,2.54396923828125,-0.561099112033844,-0.7043479681015015,0.17259517312049866
1761475663433946400,2.5539462890625,-0.7099301218986511,-0.8506463170051575,0.035206157714128494
1761475663443923200,2.563923095703125,-0.8268181085586548,-0.9605901837348938,-0.09254096448421478
1761475663453900300,2.573900390625,-0.8920319676399231,-1.0577534437179565,-0.19065368175506592
1761475663463877000,2.583877197265625,-0.8889143466949463,-0.9834483861923218,-0.21039657294750214
1761475663473854200,2.593854248046875,-0.8350260853767395,-0.7318148612976074,-0.14710523188114166
1761475663483831300,2.603831298828125,-0.7772760391235352,-0.378371000289917,-0.05542077496647835
1761475663493809200,2.61380908203125,-0.6392816305160522,-0.02888648211956024,0.08217278122901917
1761475663503786200,2.6237861328125,-0.4265069365501404,0.3320920169353485,0.23628413677215576
1761475663513763000,2.63376318359375,-0.19991987943649292,0.6488263010978699,0.39427271485328674
1761475663523740400,2.643740478515625,-0.03471926599740982,0.8470361828804016,0.4933434724807739
1761475663533717500,2.653717529296875,0.0642043873667717,0.8200147151947021,0.5286769270896912
1761475663543694300,2.6636943359375,0.1252717226743698,0.6600850820541382,0.5315769910812378
1761475663553671400,2.67367138671875,0.19678612053394318,0.3901628255844116,0.5385465025901794
1761475663563648300,2.683648193359375,0.20878946781158447,0.14062009751796722,0.5211701393127441
1761475663573625300,2.693625244140625,0.14447812736034393,-0.05522210896015167,0.48712268471717834
1761475663583602200,2.703602294921875,0.03697613254189491,-0.1737690567970276,0.44803738594055176
1761475663593579300,2.713579345703125,-0.09554941952228546,-0.22741417586803436,0.39153310656547546
1761475663603556400,2.723556396484375,-0.21455621719360352,-0.23936088383197784,0.3091032803058624
1761475663613533200,2.733533203125,-0.30721214413642883,-0.23026007413864136,0.19153964519500732
1761475663623510300,2.74351025390625,-0.3822440505027771,-0.17387095093727112,0.051237061619758606
1761475663633488400,2.75348828125,-0.4275990128517151,-0.07177066802978516,-0.10084407776594162
1761475663643465200,2.76346533203125,-0.4273923635482788,0.031332336366176605,-0.24638040363788605
1761475663653442300,2.7734423828125,-0.3772202730178833,0.12356772273778915,-0.37086212635040283
1761475663663419100,2.783419189453125,-0.2800848186016083,0.20632849633693695,-0.45910409092903137
1761475663673396200,2.793396240234375,-0.15760526061058044,0.2915552258491516,-0.501891553401947
1761475663683373300,2.803373291015625,-0.03582800552248955,0.3691020905971527,-0.5044199824333191
1761475663693350400,2.813350341796875,0.046626657247543335,0.41184529662132263,-0.48115968704223633
1761475663703327500,2.823327392578125,0.10171305388212204,0.41290828585624695,-0.4227747321128845
1761475663713304300,2.83330419921875,0.13187842071056366,0.4194769859313965,-0.3433973491191864
1761475663723281400,2.843281494140625,0.14509332180023193,0.4093453884124756,-0.24227121472358704
1761475663733258200,2.85325830078125,0.13781383633613586,0.37486302852630615,-0.13068902492523193
1761475663743235300,2.8632353515625,0.11411907523870468,0.3259282112121582,-0.02853243798017502
1761475663753212200,2.873212158203125,0.08744565397500992,0.24729573726654053,0.07912744581699371
1761475663763189200,2.883189208984375,0.06000164896249771,0.18076662719249725,0.17431339621543884
1761475663773166300,2.893166259765625,0.042331308126449585,0.12880143523216248,0.24976341426372528
1761475663783144200,2.903144287109375,0.010021683759987354,0.045355528593063354,0.2830781936645508
1761475663793121300,2.913121337890625,-0.01892474666237831,-0.025020897388458252,0.2917712926864624
1761475663803098000,2.92309814453125,-0.04419776797294617,-0.07745268195867538,0.27480053901672363
1761475663813075200,2.9330751953125,-0.06050004065036774,-0.10396844893693924,0.24679847061634064
1761475663823052300,2.94305224609375,-0.06447858363389969,-0.12428991496562958,0.2119377702474594
1761475663833029400,2.953029296875,-0.06645704805850983,-0.13279205560684204,0.1668698936700821
1761475663843006500,2.96300634765625,-0.07000918686389923,-0.12945841252803802,0.11306113004684448
1761475663852983300,2.9729833984375,-0.06162156164646149,-0.10921572148799896,0.05978911742568016
1761475663862960400,2.98296044921875,-0.03963928297162056,-0.05559654161334038,0.009284107945859432
1761475663872937200,2.992937255859375,-0.017241567373275757,-0.0007447449024766684,-0.0284251868724823
1761475663882914300,3.002914306640625,0.020272988826036453,0.06035631522536278,-0.05719069018959999
1761475663892891400,3.012891357421875,0.06793159246444702,0.121707022190094,-0.06170208379626274
1761475663902868200,3.0228681640625,0.1324315220117569,0.16688430309295654,-0.04804307222366333
1761475663912845300,3.03284521484375,0.21370454132556915,0.2039768099784851,-0.014522130601108074
1761475663922823200,3.0428232421875,0.28539785742759705,0.20873641967773438,0.02880522608757019
1761475663932800300,3.05280029296875,0.33000287413597107,0.19010280072689056,0.06178128346800804
1761475663942777300,3.06277734375,0.3544657826423645,0.11251810193061829,0.08841783553361893
1761475663952754200,3.072754150390625,0.3645668625831604,0.020379655063152313,0.12732209265232086
1761475663962731300,3.082731201171875,0.3712153136730194,-0.03971708193421364,0.1920507252216339
1761475663972708400,3.092708251953125,0.3727751076221466,-0.08146985620260239,0.2653536796569824
1761475663982685400,3.102685546875,0.38335639238357544,-0.07520774006843567,0.34765636920928955
1761475663992662300,3.112662353515625,0.40646037459373474,-0.027089480310678482,0.4343683421611786
1761475664002639400,3.122639404296875,0.4490402340888977,0.09188878536224365,0.5064758062362671
1761475664012616400,3.132616455078125,0.515288233757019,0.20098170638084412,0.5756332874298096
1761475664022593300,3.14259326171875,0.5606628656387329,0.29707661271095276,0.619900643825531
1761475664032570400,3.1525703125,0.5609198808670044,0.34908974170684814,0.6240426898002625
1761475664042547200,3.162547119140625,0.5399529933929443,0.33558082580566406,0.5835817456245422
1761475664052524300,3.172524169921875,0.5211084485054016,0.24542321264743805,0.5114111304283142
1761475664062501000,3.182501220703125,0.5029515027999878,0.1349710077047348,0.4124988913536072
1761475664072479200,3.192479248046875,0.4670094847679138,0.05730549618601799,0.29083770513534546
1761475664082456300,3.202456298828125,0.4199266731739044,-0.02140091545879841,0.15422853827476501
1761475664092433700,3.21243359375,0.38550078868865967,-0.09711778163909912,0.02609959803521633
1761475664102410800,3.22241064453125,0.36670833826065063,-0.17422039806842804,-0.08372548222541809
1761475664112387800,3.232387939453125,0.3736967444419861,-0.19788898527622223,-0.140927255153656
1761475664122364700,3.24236474609375,0.42190811038017273,-0.11876124143600464,-0.11508847028017044
1761475664132341800,3.252341796875,0.48119354248046875,0.026881184428930283,-0.03450813889503479
1761475664142318800,3.26231884765625,0.5567062497138977,0.1960039883852005,0.06719265878200531
1761475664152296000,3.2722958984375,0.6496646404266357,0.3005543649196625,0.1739872843027115
1761475664162272800,3.282272705078125,0.7054216265678406,0.33131855726242065,0.26075902581214905
1761475664172249900,3.292249755859375,0.6910144090652466,0.3163806200027466,0.30256372690200806
1761475664182227000,3.30222705078125,0.6225475072860718,0.2208576798439026,0.28769347071647644
1761475664192203800,3.312203857421875,0.5470128059387207,0.06163659691810608,0.2437180131673813
1761475664202180900,3.322180908203125,0.4635009169578552,-0.12302171438932419,0.18844082951545715
1761475664212159000,3.332158935546875,0.3949655294418335,-0.2952345013618469,0.13043159246444702
1761475664222135800,3.3421357421875,0.3425419330596924,-0.3950766623020172,0.07730169594287872
1761475664232113000,3.35211279296875,0.31052887439727783,-0.40588322281837463,0.027605785056948662
1761475664242089700,3.36208984375,0.2992676794528961,-0.3956764042377472,-0.016830427572131157
1761475664252066800,3.37206689453125,0.284556120634079,-0.3486340641975403,-0.06898417323827744
1761475664262043600,3.382043701171875,0.2573121190071106,-0.28799280524253845,-0.115623839199543
1761475664272020700,3.392020751953125,0.2437526285648346,-0.16622750461101532,-0.14393669366836548
1761475664281997800,3.401997802734375,0.2472202032804489,-0.01669878326356411,-0.1561778485774994
1761475664291974700,3.411974609375,0.2576640546321869,0.1153913363814354,-0.18096202611923218
1761475664301952000,3.421951904296875,0.2536601722240448,0.20380163192749023,-0.21758303046226501
1761475664311928800,3.4319287109375,0.2564040422439575,0.23748263716697693,-0.274370938539505
1761475664321906000,3.441906005859375,0.26643016934394836,0.23834697902202606,-0.33335840702056885
1761475664331882800,3.4518828125,0.27835527062416077,0.22600509226322174,-0.38303354382514954
1761475664341859800,3.46185986328125,0.29707953333854675,0.20509816706180573,-0.41527265310287476
1761475664351837000,3.4718369140625,0.3187589943408966,0.17110131680965424,-0.4259229004383087
1761475664361814800,3.481814697265625,0.33907532691955566,0.14807887375354767,-0.41911643743515015
1761475664371792000,3.4917919921875,0.3444647789001465,0.131485253572464,-0.4030322730541229
1761475664381768700,3.501768798828125,0.31898459792137146,0.11180794984102249,-0.39092475175857544
1761475664391745800,3.511745849609375,0.27105727791786194,0.09126139432191849,-0.37449198961257935
1761475664401723000,3.521722900390625,0.21595437824726105,0.07405423372983932,-0.3564714789390564
1761475664411699700,3.53169970703125,0.17078503966331482,0.03760088235139847,-0.3428126573562622
1761475664421676800,3.5416767578125,0.13956911861896515,-0.0013462984934449196,-0.3254835605621338
1761475664431653600,3.551653564453125,0.12081513553857803,-0.019830234348773956,-0.3066296875476837
1761475664441630700,3.561630615234375,0.11192870140075684,-0.011972310952842236,-0.29534268379211426
1761475664451607800,3.57160791015625,0.11675994098186493,-0.00043789425399154425,-0.29421645402908325
1761475664461585000,3.5815849609375,0.11535082757472992,-0.008679899387061596,-0.3085561692714691
1761475664471562000,3.59156201171875,0.09949516505002975,-0.04609784483909607,-0.3370506763458252
1761475664481538800,3.601538818359375,0.07931185513734818,-0.09016053378582001,-0.36103159189224243
1761475664491516000,3.611515869140625,0.04911427199840546,-0.07982853800058365,-0.3691355884075165
1761475664501492700,3.62149267578125,0.015244361944496632,-0.03558507561683655,-0.3593011796474457
1761475664511469800,3.6314697265625,-0.015212612226605415,0.008104083128273487,-0.3357820212841034
1761475664521448000,3.641447998046875,-0.043204065412282944,0.048537738621234894,-0.30389168858528137
1761475664531424800,3.6514248046875,-0.05082523077726364,0.08246641606092453,-0.25941452383995056
1761475664541401900,3.66140185546875,-0.03948574140667915,0.14292964339256287,-0.19989368319511414
1761475664551378700,3.671378662109375,-0.017698954790830612,0.1749695986509323,-0.1277313381433487
1761475664561355800,3.681355712890625,0.0007841348997317255,0.1734820306301117,-0.05079973116517067
1761475664571332600,3.69133251953125,0.013900469988584518,0.13694292306900024,0.02514856494963169
1761475664581309700,3.701309814453125,-0.00031169934663921595,0.06347446143627167,0.08926071971654892
1761475664591286800,3.711286865234375,-0.03963247314095497,-0.006981596350669861,0.13672198355197906
1761475664601263900,3.721263916015625,-0.0862233117222786,-0.0553000271320343,0.17204241454601288
1761475664611241000,3.731240966796875,-0.12763148546218872,-0.10163556784391403,0.18843311071395874
1761475664621217800,3.7412177734375,-0.15234282612800598,-0.13214680552482605,0.19739660620689392
1761475664631195000,3.75119482421875,-0.15051138401031494,-0.08909574896097183,0.20972971618175507
1761475664641171700,3.761171630859375,-0.1218164935708046,0.015979425981640816,0.25094446539878845
1761475664651148800,3.771148681640625,-0.09899213165044785,0.08171103149652481,0.2804144620895386
1761475664661126000,3.7811259765625,-0.11757569015026093,0.05821513757109642,0.26889392733573914
1761475664671103700,3.791103759765625,-0.16356928646564484,0.007878994569182396,0.20890463888645172
1761475664681080800,3.801080810546875,-0.2288726419210434,-0.09780892729759216,0.12165812402963638
1761475664691058000,3.811057861328125,-0.3213868737220764,-0.2639313340187073,-0.0028185539413243532
1761475664701034800,3.82103466796875,-0.4295267164707184,-0.5196608304977417,-0.1596919298171997
1761475664711011800,3.83101171875,-0.5331830382347107,-0.6951807141304016,-0.3041260838508606
1761475664720988700,3.84098876953125,-0.5985674858093262,-0.7374414801597595,-0.4088280498981476
1761475664730965800,3.8509658203125,-0.61882483959198,-0.6542587280273438,-0.435055673122406
1761475664740942600,3.860942626953125,-0.587243914604187,-0.45118269324302673,-0.3975471258163452
1761475664750920000,3.870919921875,-0.5455699563026428,-0.1540013551712036,-0.32704418897628784
1761475664760897000,3.88089697265625,-0.49175700545310974,0.15180633962154388,-0.23870137333869934
1761475664770873900,3.890873779296875,-0.37015199661254883,0.4023360311985016,-0.11180920153856277
1761475664780851000,3.900850830078125,-0.1935858428478241,0.5588449239730835,0.05246908590197563
1761475664790827800,3.910827880859375,-0.035569045692682266,0.5879138708114624,0.20111021399497986
1761475664800804900,3.920804931640625,0.06142432987689972,0.49351343512535095,0.3039708435535431
1761475664810781700,3.93078173828125,0.09501530975103378,0.32886937260627747,0.38183021545410156
1761475664820759800,3.940759765625,0.11273854970932007,0.1812577098608017,0.4685025215148926
1761475664830737000,3.95073681640625,0.12037170678377151,0.13186272978782654,0.5578656792640686
1761475664840713700,3.960713623046875,0.0679483413696289,0.10183499753475189,0.6128013134002686
1761475664850690800,3.97069091796875,-0.0196683332324028,0.03257230296730995,0.6227545738220215
1761475664860667600,3.980667724609375,-0.12717674672603607,-0.03646519407629967,0.5856832265853882
1761475664870644700,3.990644775390625,-0.25776058435440063,-0.08348490297794342,0.5110114216804504
1761475664880621800,4.000621826171875,-0.3668482005596161,-0.12496117502450943,0.41296374797821045
1761475664890598700,4.0105986328125,-0.4190826416015625,-0.11758768558502197,0.31007280945777893
1761475664900576000,4.020575927734375,-0.4182872474193573,-0.07045537978410721,0.19480417668819427
1761475664910552800,4.030552734375,-0.3942069411277771,-0.010999779216945171,0.05701727792620659
1761475664920530000,4.040530029296875,-0.3560515344142914,0.050136759877204895,-0.09956255555152893
1761475664930506800,4.0505068359375,-0.30624642968177795,0.08896005898714066,-0.24628648161888123
1761475664940483800,4.06048388671875,-0.2590704560279846,0.1085999608039856,-0.3943597376346588
1761475664950461000,4.0704609375,-0.22150523960590363,0.09582051634788513,-0.5176257491111755
1761475664960437800,4.080437744140625,-0.1994696408510208,0.06556019186973572,-0.6140932440757751
1761475664970414800,4.090414794921875,-0.20242547988891602,0.03342888876795769,-0.6662720441818237
1761475664980391700,4.1003916015625,-0.22448153793811798,0.027417970821261406,-0.672253429889679
1761475664990369800,4.110369873046875,-0.2525768280029297,0.05861903354525566,-0.6377047896385193
1761475665000347000,4.120346923828125,-0.28043004870414734,0.10635550320148468,-0.5770987272262573
1761475665010323700,4.13032373046875,-0.2947533428668976,0.14146848022937775,-0.4992673099040985
1761475665020300800,4.14030078125,-0.26615574955940247,0.1363750845193863,-0.4127867519855499
1761475665030277600,4.150277587890625,-0.22204580903053284,0.12774910032749176,-0.3171507716178894
1761475665040254700,4.160254638671875,-0.18226149678230286,0.08049264550209045,-0.23810121417045593
1761475665050231800,4.170231689453125,-0.1517414003610611,0.02102692425251007,-0.175352081656456
1761475665060209000,4.180208984375,-0.12893590331077576,-0.043816208839416504,-0.12283448874950409
1761475665070186000,4.19018603515625,-0.12770897150039673,-0.13454292714595795,-0.07659775018692017
1761475665080162800,4.200162841796875,-0.14062801003456116,-0.18333570659160614,-0.036878760904073715
1761475665090140000,4.210139892578125,-0.1568349450826645,-0.1890156865119934,0.0020401417277753353
1761475665100118300,4.2201181640625,-0.1654772311449051,-0.18055680394172668,0.022036852315068245
1761475665110095400,4.230095458984375,-0.17193034291267395,-0.14169809222221375,0.02290637418627739
1761475665120072400,4.240072509765625,-0.1728818565607071,-0.10645322501659393,-0.008656928315758705
1761475665130049300,4.25004931640625,-0.18374089896678925,-0.09835056215524673,-0.07239862531423569
1761475665140027400,4.26002734375,-0.17351853847503662,-0.09360267221927643,-0.15827451646327972
1761475665150004500,4.27000439453125,-0.1424085646867752,-0.03397636115550995,-0.24060294032096863
1761475665159981300,4.279981201171875,-0.08354240655899048,0.030600132420659065,-0.2946629524230957
1761475665169958400,4.28995849609375,-0.019193511456251144,0.10104607045650482,-0.3020646870136261
1761475665179935200,4.299935302734375,0.030301198363304138,0.20172010362148285,-0.2703283727169037
1761475665189912300,4.309912353515625,0.08939887583255768,0.2591426372528076,-0.187833771109581
1761475665199889400,4.319889404296875,0.14556872844696045,0.30964037775993347,-0.07389716058969498
1761475665209866200,4.3298662109375,0.1849917620420456,0.30799242854118347,0.0394405797123909
1761475665219843300,4.33984326171875,0.23622271418571472,0.24875925481319427,0.15875384211540222
1761475665229820200,4.349820068359375,0.2940838634967804,0.2109956294298172,0.2762221395969391
1761475665239797200,4.35979736328125,0.34081339836120605,0.15050539374351501,0.38485294580459595
1761475665249775400,4.369775390625,0.37552982568740845,0.10138125717639923,0.49015405774116516
1761475665259752200,4.379752197265625,0.4139208495616913,0.06372032314538956,0.5961778163909912
1761475665269729300,4.389729248046875,0.4390144944190979,-0.033902641385793686,0.6813843250274658
1761475665279706000,4.3997060546875,0.4251156449317932,-0.19467325508594513,0.731341540813446
1761475665289683500,4.409683349609375,0.3744354248046875,-0.3695196211338043,0.7397366166114807
1761475665299660300,4.419660400390625,0.3044218122959137,-0.4948194921016693,0.7287871837615967
1761475665309637400,4.429637451171875,0.22975049912929535,-0.572666347026825,0.6975581645965576
1761475665319614500,4.439614501953125,0.13557681441307068,-0.6460272669792175,0.6178759932518005
1761475665329591300,4.44959130859375,0.03260088339447975,-0.6770392060279846,0.4904956519603729
1761475665339568400,4.459568359375,-0.039977774024009705,-0.6869476437568665,0.3567611277103424
1761475665349545200,4.469545166015625,-0.08323682844638824,-0.5798616409301758,0.24054476618766785
1761475665359522300,4.479522216796875,-0.07795780152082443,-0.40105780959129333,0.16299481689929962
1761475665369499100,4.4894990234375,-0.0504303015768528,-0.16877290606498718,0.1200454905629158
1761475665379476200,4.499476318359375,0.03110320493578911,0.11120899766683578,0.10484864562749863
1761475665389453300,4.509453369140625,0.15448905527591705,0.3896254599094391,0.1113334447145462
1761475665399431200,4.51943115234375,0.2919265031814575,0.5957527756690979,0.12807875871658325
1761475665409408300,4.529408203125,0.4337179958820343,0.741966724395752,0.1593346893787384
1761475665419385000,4.539385009765625,0.5299032926559448,0.816493809223175,0.16113592684268951
1761475665429362200,4.549362060546875,0.5608052611351013,0.7538986206054688,0.12705226242542267
1761475665439339500,4.559339599609375,0.5548075437545776,0.6338105797767639,0.07619813829660416
1761475665449316400,4.56931640625,0.5207726359367371,0.5365154147148132,0.026646295562386513
1761475665459293400,4.57929345703125,0.4881947338581085,0.4360152781009674,-0.022379811853170395
1761475665469270300,4.589270263671875,0.4641122817993164,0.3117452561855316,-0.06947755068540573
1761475665479247400,4.599247314453125,0.4468267858028412,0.20117665827274323,-0.11646290123462677
1761475665489224200,4.60922412109375,0.4294206202030182,0.11944931000471115,-0.16003087162971497
1761475665499201300,4.619201171875,0.40303635597229004,0.04801645129919052,-0.20018142461776733
1761475665509178400,4.629178466796875,0.3471829295158386,-0.02063637599349022,-0.2527378499507904
1761475665519155200,4.6391552734375,0.25612178444862366,-0.13657879829406738,-0.33108142018318176
1761475665529132300,4.64913232421875,0.16931869089603424,-0.22755451500415802,-0.4125176966190338
1761475665539109000,4.659109130859375,0.13054536283016205,-0.22294022142887115,-0.46363797783851624
1761475665549086200,4.669086181640625,0.13706904649734497,-0.178199902176857,-0.4852146506309509
1761475665559064300,4.679064208984375,0.17061415314674377,-0.07544364035129547,-0.4936329126358032
1761475665569041200,4.689041259765625,0.23336169123649597,0.04982532933354378,-0.49420520663261414
1761475665579018200,4.699018310546875,0.3180871903896332,0.21906952559947968,-0.4857780337333679
1761475665588995300,4.708995361328125,0.4151434302330017,0.3882361650466919,-0.4713735282421112
1761475665598972400,4.718972412109375,0.4856624901294708,0.4971330463886261,-0.47845399379730225
1761475665608949500,4.728949462890625,0.512744128704071,0.47666558623313904,-0.5155254602432251
1761475665618926300,4.73892626953125,0.5081125497817993,0.39165669679641724,-0.5712387561798096
1761475665628903400,4.7489033203125,0.47259852290153503,0.2654992938041687,-0.6076816916465759
1761475665638880300,4.75888037109375,0.4320954978466034,0.1661708950996399,-0.6041178107261658
1761475665648857300,4.768857421875,0.3823452591896057,0.11352979391813278,-0.5511086583137512
1761475665658834200,4.778834228515625,0.3282436728477478,0.08499732613563538,-0.47171953320503235
1761475665668811300,4.788811279296875,0.28680142760276794,0.049064889550209045,-0.3771083354949951
1761475665678788000,4.7987880859375,0.26133692264556885,0.002483384683728218,-0.28282761573791504
1761475665688765200,4.80876513671875,0.24463678896427155,-0.03096325509250164,-0.20814457535743713
1761475665698742300,4.8187421875,0.2348877191543579,-0.06898452341556549,-0.14151793718338013
1761475665708720000,4.82872021484375,0.21608740091323853,-0.11620982736349106,-0.09948953241109848
1761475665718697200,4.838697265625,0.1892731487751007,-0.16221566498279572,-0.07723824679851532
1761475665728674300,4.84867431640625,0.15348079800605774,-0.186087965965271,-0.07708191871643066
1761475665738651400,4.8586513671875,0.12307858467102051,-0.24206936359405518,-0.08771097660064697
1761475665748628500,4.86862841796875,0.09494548290967941,-0.29981550574302673,-0.10389900207519531
1761475665758605300,4.878605224609375,0.07650648057460785,-0.3308035135269165,-0.11173123121261597
1761475665768582400,4.88858251953125,0.055417440831661224,-0.34730204939842224,-0.10595403611660004
1761475665778559200,4.898559326171875,0.04008461534976959,-0.32655033469200134,-0.08739856630563736
1761475665788536300,4.908536376953125,0.020930897444486618,-0.25610998272895813,-0.05483875796198845
1761475665798513400,4.918513427734375,-0.004941962659358978,-0.1577393114566803,-0.010236161760985851
1761475665808490200,4.928490234375,-0.039172638207674026,-0.07272055745124817,0.027853433042764664
1761475665818467300,4.93846728515625,-0.08544503152370453,-0.04896510764956474,0.04703719913959503
1761475665828444200,4.948444091796875,-0.1455693542957306,-0.06626899540424347,0.05809278041124344
1761475665838421200,4.958421142578125,-0.20335125923156738,-0.1215132400393486,0.0652829259634018
1761475665848398300,4.9683984375,-0.2609812617301941,-0.20722708106040955,0.08020621538162231
1761475665858376200,4.978376220703125,-0.3186919689178467,-0.2893282473087311,0.11246245354413986
1761475665868353300,4.988353271484375,-0.38196656107902527,-0.3347684144973755,0.1604427546262741
1761475665878330000,4.998330078125,-0.4256668984889984,-0.34755879640579224,0.2205716073513031
1761475665888307500,5.008307373046875,-0.4428030252456665,-0.3119134306907654,0.29369163513183594
1761475665898284300,5.0182841796875,-0.43290019035339355,-0.20999670028686523,0.3772558271884918
1761475665908261400,5.028261474609375,-0.4023348391056061,-0.07753320783376694,0.44537442922592163
1761475665918238500,5.038238525390625,-0.3682349920272827,-0.03934726491570473,0.4783834218978882
1761475665928215300,5.04821533203125,-0.3691471219062805,-0.10877107828855515,0.44901567697525024
1761475665938192400,5.0581923828125,-0.41490545868873596,-0.1712523102760315,0.36868301033973694
1761475665948169200,5.068169189453125,-0.4909328520298004,-0.21667997539043427,0.24774432182312012
1761475665958146300,5.078146240234375,-0.5800961852073669,-0.24722254276275635,0.10785924643278122
1761475665968123100,5.088123046875,-0.6748600006103516,-0.33708903193473816,-0.04615375027060509
1761475665978100200,5.098100341796875,-0.7639392018318176,-0.3943847119808197,-0.1911027729511261
1761475665988077300,5.108077392578125,-0.8240733742713928,-0.3407052457332611,-0.28008803725242615
1761475665998054100,5.11805419921875,-0.7952336072921753,-0.20666265487670898,-0.29481545090675354
1761475666008032300,5.1280322265625,-0.7000181078910828,-0.00015714834444224834,-0.24590595066547394
1761475666018009000,5.138009033203125,-0.5975531339645386,0.2539909780025482,-0.1779499500989914
1761475666027986200,5.147986083984375,-0.4709811210632324,0.4490848183631897,-0.07983774691820145
1761475666037963300,5.15796337890625,-0.32477378845214844,0.5992090702056885,0.046578966081142426
1761475666047940400,5.1679404296875,-0.18263128399848938,0.6960631608963013,0.18765059113502502
1761475666057917400,5.17791748046875,-0.08253473043441772,0.7486327290534973,0.3215494453907013
1761475666067894300,5.187894287109375,-0.021713189780712128,0.767775297164917,0.4449065327644348
1761475666077871400,5.197871337890625,-0.009171012789011002,0.7020730376243591,0.5409373641014099
1761475666087848200,5.20784814453125,-0.024232519790530205,0.5456714630126953,0.6133676171302795
1761475666097823700,5.21782373046875,-0.05066663399338722,0.3486452102661133,0.6764413714408875
1761475666107800800,5.22780078125,-0.08455163240432739,0.1577141284942627,0.7234607934951782
1761475666117777700,5.237777587890625,-0.12518088519573212,0.0071474239230155945,0.7472022175788879
1761475666127754800,5.247754638671875,-0.16691207885742188,-0.12649479508399963,0.7516443729400635
1761475666137731800,5.25773193359375,-0.21868842840194702,-0.23346780240535736,0.734366238117218
1761475666147708700,5.267708740234375,-0.2950170040130615,-0.32905396819114685,0.6681810617446899
1761475666157685800,5.277685791015625,-0.3886222541332245,-0.42560139298439026,0.5554310083389282
1761475666167663600,5.28766357421875,-0.47737953066825867,-0.4989946484565735,0.40970227122306824
1761475666177640700,5.297640625,-0.564505934715271,-0.5241329073905945,0.2368072122335434
1761475666187617800,5.30761767578125,-0.6161267757415771,-0.5284576416015625,0.0550864115357399
1761475666197594600,5.3175947265625,-0.6304928064346313,-0.5250328183174133,-0.13453532755374908
1761475666207571700,5.32757177734375,-0.6202835440635681,-0.5203293561935425,-0.3076895475387573
1761475666217548500,5.337548583984375,-0.5762107968330383,-0.42726799845695496,-0.4603535234928131
1761475666227525600,5.347525634765625,-0.5070719122886658,-0.28344160318374634,-0.5954775214195251
1761475666237502500,5.35750244140625,-0.4173702299594879,-0.12154220789670944,-0.6973850131034851
1761475666247479600,5.3674794921875,-0.3283098638057709,0.045181792229413986,-0.7670046091079712
1761475666257457000,5.377456787109375,-0.24519287049770355,0.17039403319358826,-0.802592396736145
1761475666267433700,5.387433837890625,-0.18503578007221222,0.24193906784057617,-0.7917711734771729
1761475666277410800,5.397410888671875,-0.14354848861694336,0.29742804169654846,-0.7418017387390137
1761475666287387600,5.4073876953125,-0.110554039478302,0.34494122862815857,-0.6646997332572937
1761475666297364700,5.41736474609375,-0.06958195567131042,0.3833480179309845,-0.5649979114532471
1761475666307341600,5.427341552734375,-0.018076421692967415,0.3722788393497467,-0.456367552280426
1761475666317318700,5.437318603515625,0.0436532236635685,0.30184563994407654,-0.34946662187576294
1761475666327296800,5.447296875,0.08380250632762909,0.21361404657363892,-0.24665075540542603
1761475666337273600,5.457273681640625,0.08389142900705338,0.10309866815805435,-0.1563120186328888
1761475666347250700,5.467250732421875,0.051443472504615784,-0.0012517048744484782,-0.07573354989290237
1761475666357227500,5.4772275390625,-0.006517909001559019,-0.09094856679439545,0.0066804829984903336
1761475666367204600,5.48720458984375,-0.07377763837575912,-0.16168612241744995,0.07150261849164963
1761475666377181700,5.497181640625,-0.13770350813865662,-0.22168469429016113,0.10307236015796661
1761475666387158500,5.507158447265625,-0.18582549691200256,-0.2670588195323944,0.10001158714294434
1761475666397135600,5.517135498046875,-0.20956557989120483,-0.2844041883945465,0.06879553943872452
1761475666407112700,5.52711279296875,-0.2029699981212616,-0.2654012143611908,0.019938254728913307
1761475666417089800,5.53708984375,-0.1889514923095703,-0.20498314499855042,-0.02494477480649948
1761475666427066600,5.547066650390625,-0.15906043350696564,-0.08712389320135117,-0.0761973112821579
1761475666437043700,5.557043701171875,-0.09676410257816315,0.07885725051164627,-0.11808446794748306
1761475666447020800,5.567020751953125,-0.010347191244363785,0.2373581975698471,-0.14982695877552032
1761475666456997600,5.57699755859375,0.07528553903102875,0.3666099011898041,-0.17219291627407074
1761475666466974700,5.586974609375,0.16155146062374115,0.432668000459671,-0.1793629378080368
1761475666476952800,5.596952880859375,0.23933164775371552,0.4261295199394226,-0.15840424597263336
1761475666486929700,5.6069296875,0.31312569975852966,0.35359644889831543,-0.10465340316295624
1761475666496906800,5.61690673828125,0.3707698881626129,0.25492334365844727,-0.02794511802494526
1761475666506883600,5.626883544921875,0.4141930043697357,0.1659301072359085,0.06953483074903488
1761475666516860700,5.636860595703125,0.43465369939804077,0.07450197637081146,0.17554272711277008
1761475666526837500,5.64683740234375,0.4619433879852295,0.020675497129559517,0.29255831241607666
1761475666536814600,5.656814697265625,0.5101361274719238,0.016439523547887802,0.4071454107761383
1761475666546791700,5.666791748046875,0.56988126039505,-0.010584104806184769,0.5218256711959839
1761475666556768800,5.676768798828125,0.5991322994232178,-0.08912882953882217,0.6015398502349854
1761475666566745900,5.686745849609375,0.5600475072860718,-0.21648332476615906,0.6173614263534546
1761475666576722700,5.69672265625,0.4813210666179657,-0.3561754524707794,0.5843091011047363
1761475666586699800,5.70669970703125,0.379384309053421,-0.5104345083236694,0.5132546424865723
1761475666596676600,5.716676513671875,0.26825007796287537,-0.6633279323577881,0.4063151180744171
1761475666606653700,5.72665380859375,0.1172962561249733,-0.8017755746841431,0.2457195669412613
1761475666616630800,5.736630859375,-0.006433000788092613,-0.9151555895805359,0.0868944376707077
1761475666626608600,5.746608642578125,-0.07534948736429214,-0.9409019947052002,-0.03258242830634117
1761475666636584700,5.756584716796875,-0.09569868445396423,-0.827192485332489,-0.09596023708581924
1761475666646562600,5.7665625,-0.10389003157615662,-0.6041114926338196,-0.12300783395767212
1761475666656539600,5.77653955078125,-0.09290579706430435,-0.3290958106517792,-0.12708278000354767
1761475666666516700,5.786516845703125,-0.032992664724588394,-0.04745349660515785,-0.11243886500597
1761475666676493600,5.79649365234375,0.09950606524944305,0.24053089320659637,-0.05805910378694534
1761475666686470700,5.806470703125,0.28852739930152893,0.5299445986747742,0.03662319853901863
1761475666696447500,5.816447509765625,0.4825481176376343,0.7623878717422485,0.1323973387479782
1761475666706424800,5.8264248046875,0.6121655106544495,0.9045455455780029,0.19832709431648254
1761475666716401700,5.836401611328125,0.6777096390724182,0.9175870418548584,0.21922412514686584
1761475666726378800,5.846378662109375,0.6971214413642883,0.8168439269065857,0.21769440174102783
1761475666736355800,5.85635595703125,0.6885431408882141,0.6444135904312134,0.19186276197433472
1761475666746332700,5.866332763671875,0.668243944644928,0.42326125502586365,0.1714155375957489
1761475666756309800,5.876309814453125,0.6293731927871704,0.17537696659564972,0.1361865997314453
1761475666766286600,5.88628662109375,0.55213463306427,-0.05312997102737427,0.09449373185634613
1761475666776263700,5.896263671875,0.4642847776412964,-0.19485419988632202,0.05839747190475464
1761475666786240500,5.906240478515625,0.3840027153491974,-0.26341089606285095,0.02610131911933422
1761475666796218600,5.916218505859375,0.31214141845703125,-0.2600701153278351,-0.008114130236208439
1761475666806195700,5.92619580078125,0.2471589744091034,-0.20430538058280945,-0.0500357486307621
1761475666816172500,5.936172607421875,0.20597544312477112,-0.16225603222846985,-0.09762248396873474
1761475666826149600,5.946149658203125,0.2091722935438156,-0.08501637727022171,-0.1465490162372589
1761475666836126500,5.95612646484375,0.25426429510116577,0.004332147538661957,-0.2023179829120636
1761475666846103600,5.966103515625,0.3327886760234833,0.1019631028175354,-0.2673933804035187
1761475666856081000,5.976080810546875,0.42651453614234924,0.18777382373809814,-0.3471106290817261
1761475666866057700,5.9860576171875,0.5055563449859619,0.2248000204563141,-0.422728955745697
1761475666876034800,5.996034912109375,0.561091959476471,0.2282102108001709,-0.4940047860145569
1761475666886011600,6.00601171875,0.5861067771911621,0.20031651854515076,-0.5548396110534668
1761475666895988700,6.01598876953125,0.5844342112541199,0.1634063869714737,-0.5868561267852783
1761475666905965600,6.025965576171875,0.5579181909561157,0.1395958662033081,-0.5845633745193481
1761475666915942700,6.035942626953125,0.52094566822052,0.15217439830303192,-0.5548921823501587
1761475666925919700,6.045919677734375,0.47979047894477844,0.14078405499458313,-0.5134459137916565
1761475666935896600,6.055896484375,0.448853462934494,0.13285651803016663,-0.44703713059425354
1761475666945873700,6.065873779296875,0.4199240803718567,0.09739252924919128,-0.38597777485847473
1761475666955851800,6.075851806640625,0.4004436731338501,0.03121047653257847,-0.3150680661201477
1761475666965828600,6.08582861328125,0.38035279512405396,-0.040898337960243225,-0.24476273357868195
1761475666975805700,6.0958056640625,0.36281371116638184,-0.09915807843208313,-0.17156946659088135
1761475666985782500,6.105782470703125,0.34027379751205444,-0.1566370725631714,-0.1017477810382843
1761475666995759600,6.115759521484375,0.3162892460823059,-0.2055974304676056,-0.04382000491023064
1761475667005736700,6.12573681640625,0.28750285506248474,-0.2280268371105194,-0.006164503749459982
1761475667015713800,6.1357138671875,0.2656431496143341,-0.23921947181224823,0.022432642057538033
1761475667025691000,6.14569091796875,0.2394765317440033,-0.28328627347946167,0.036475758999586105
1761475667035667700,6.155667724609375,0.19941118359565735,-0.3029998540878296,0.042661938816308975
1761475667045644800,6.165644775390625,0.14937570691108704,-0.3368030786514282,0.03437577933073044
1761475667055621600,6.17562158203125,0.08869253844022751,-0.38817596435546875,0.02614237554371357
1761475667065598700,6.1855986328125,0.03548843786120415,-0.4083406329154968,0.026134386658668518
1761475667075575600,6.195575439453125,-0.010554543696343899,-0.36872315406799316,0.047046251595020294
1761475667085552600,6.205552734375,-0.04111218452453613,-0.29117003083229065,0.08711671084165573
1761475667095530200,6.2155302734375,-0.066413015127182,-0.20591343939304352,0.13813142478466034
1761475667105507000,6.225507080078125,-0.09576477855443954,-0.11856815218925476,0.18551358580589294
1761475667115485200,6.235485107421875,-0.13599036633968353,-0.054916586726903915,0.23137503862380981
1761475667125462300,6.245462158203125,-0.1837829351425171,-0.03665715456008911,0.2671423554420471
1761475667135439000,6.255439208984375,-0.23631219565868378,-0.05034676194190979,0.30560535192489624
1761475667145416200,6.265416259765625,-0.29171738028526306,-0.09519919008016586,0.33130350708961487
1761475667155393000,6.27539306640625,-0.35379573702812195,-0.1444273442029953,0.36782577633857727
1761475667165370000,6.2853701171875,-0.40383467078208923,-0.17084696888923645,0.4002330005168915
1761475667175347200,6.29534716796875,-0.4380857050418854,-0.17414933443069458,0.43151116371154785
1761475667185324300,6.30532421875,-0.45005208253860474,-0.1751624047756195,0.4638238251209259
1761475667195301400,6.31530126953125,-0.4566256105899811,-0.23837290704250336,0.4804162383079529
1761475667205278200,6.3252783203125,-0.48923736810684204,-0.4188002049922943,0.4525313377380371
1761475667215255300,6.33525537109375,-0.5525054931640625,-0.6098705530166626,0.3888069689273834
1761475667225232100,6.345232177734375,-0.6567871570587158,-0.7952628135681152,0.2929486036300659
1761475667235209200,6.355209228515625,-0.8021743893623352,-1.0118294954299927,0.1422705203294754
1761475667245186000,6.36518603515625,-0.9687409996986389,-1.2242310047149658,-0.053062211722135544
1761475667255163100,6.3751630859375,-1.1231979131698608,-1.329807996749878,-0.23459237813949585
1761475667265140200,6.38514013671875,-1.2256888151168823,-1.2311370372772217,-0.34740546345710754
1761475667275118000,6.3951181640625,-1.2345560789108276,-0.9907186627388,-0.3896890878677368
1761475667285095200,6.40509521484375,-1.2002618312835693,-0.5760325193405151,-0.3836817741394043
1761475667295072000,6.415072021484375,-1.1442798376083374,-0.09897176176309586,-0.36086153984069824
1761475667305049000,6.425049072265625,-0.978738009929657,0.3263489007949829,-0.2977912425994873
1761475667315026200,6.435026123046875,-0.7298964858055115,0.6893207430839539,-0.18168170750141144
1761475667325003300,6.445003173828125,-0.4756641983985901,0.932356059551239,-0.0756295695900917
1761475667334980400,6.45498046875,-0.2849765121936798,0.9879239201545715,-0.004938650410622358
1761475667344957200,6.464957275390625,-0.18715673685073853,0.8724204897880554,0.030976206064224243
1761475667354934300,6.474934326171875,-0.1304001659154892,0.7000594735145569,0.08684199303388596
1761475667364911000,6.4849111328125,-0.09003755450248718,0.5357504487037659,0.16493865847587585
1761475667374888200,6.49488818359375,-0.07696197181940079,0.3615405559539795,0.24073675274848938
1761475667384865300,6.504865234375,-0.10168542712926865,0.2039128541946411,0.31265780329704285
1761475667394842000,6.514842041015625,-0.15372104942798615,0.08235957473516464,0.36070704460144043
1761475667404819200,6.524819091796875,-0.2294381856918335,-0.04976997151970863,0.36739903688430786
1761475667414796000,6.534796142578125,-0.3319149315357208,-0.17171382904052734,0.33283743262290955
1761475667424773000,6.544773193359375,-0.42382675409317017,-0.2112942487001419,0.2696180045604706
1761475667434750200,6.554750244140625,-0.4891960024833679,-0.1773005574941635,0.18161827325820923
1761475667444727300,6.564727294921875,-0.5165448188781738,-0.10827621072530746,0.06987869739532471
1761475667454705200,6.574705078125,-0.5157172679901123,-0.046328797936439514,-0.07887087762355804
1761475667464682000,6.584681884765625,-0.49845463037490845,-0.029971664771437645,-0.2547982335090637
1761475667474659300,6.594659423828125,-0.4706854522228241,-0.027649380266666412,-0.4460451602935791
1761475667484636200,6.60463623046875,-0.4323239326477051,-0.01811792701482773,-0.6257739067077637
1761475667494613200,6.61461328125,-0.39597705006599426,-0.023477865383028984,-0.7723502516746521
1761475667504590300,6.62459033203125,-0.3539677858352661,-0.0018849556799978018,-0.8695383071899414
1761475667514567200,6.634567138671875,-0.31447896361351013,0.014485017396509647,-0.917437732219696
1761475667524544300,6.644544189453125,-0.26426345109939575,0.06478547304868698,-0.9095699787139893
1761475667534521000,6.65452099609375,-0.20285212993621826,0.16743622720241547,-0.8414782285690308
1761475667544498200,6.664498291015625,-0.14895294606685638,0.29837000370025635,-0.7278392910957336
1761475667554475000,6.67447509765625,-0.09312144666910172,0.39583319425582886,-0.5764173865318298
1761475667564452000,6.6844521484375,-0.03978179395198822,0.44767481088638306,-0.42088720202445984
1761475667574429200,6.69442919921875,0.01598222739994526,0.4053781032562256,-0.26374298334121704
1761475667584406000,6.704406005859375,0.06621184200048447,0.2451074719429016,-0.10780426114797592
1761475667594383400,6.71438330078125,0.09774406254291534,0.015648936852812767,0.04021190479397774
1761475667604360200,6.724360107421875,0.10470449924468994,-0.16755737364292145,0.19079555571079254
1761475667614337300,6.734337158203125,0.07943175733089447,-0.3158697187900543,0.3298673629760742
1761475667624315100,6.744315185546875,0.04008674621582031,-0.4047276973724365,0.44462165236473083
1761475667634292200,6.754292236328125,-0.0007335387635976076,-0.44262897968292236,0.5331102013587952
1761475667644269300,6.764269287109375,-0.035792455077171326,-0.4518864154815674,0.5991193056106567
1761475667654246100,6.77424609375,-0.08350132405757904,-0.40010860562324524,0.6327190399169922
1761475667664223200,6.78422314453125,-0.13250403106212616,-0.3235190212726593,0.6224959492683411
1761475667674200300,6.794200439453125,-0.19051013886928558,-0.25088220834732056,0.5603391528129578
1761475667684177200,6.80417724609375,-0.23389436304569244,-0.18120911717414856,0.452454537153244
1761475667694154200,6.814154296875,-0.24995198845863342,-0.08917063474655151,0.3176088333129883
1761475667704131000,6.824131103515625,-0.22919796407222748,0.019020546227693558,0.1822025179862976
1761475667714108200,6.834108154296875,-0.1736893355846405,0.13638781011104584,0.056800518184900284
1761475667724085000,6.8440849609375,-0.09172363579273224,0.2500797510147095,-0.04002482816576958
1761475667734062000,6.85406201171875,0.006037840154021978,0.33087265491485596,-0.10377828776836395
1761475667744039400,6.864039306640625,0.10782625526189804,0.35118964314460754,-0.13806648552417755
1761475667754016300,6.874016357421875,0.1870330274105072,0.3213040232658386,-0.1286836415529251
1761475667763993300,6.883993408203125,0.23547619581222534,0.27079343795776367,-0.08561579883098602
1761475667773970200,6.89397021484375,0.26008889079093933,0.2192048728466034,0.0027172118425369263
1761475667783947300,6.903947265625,0.27677544951438904,0.1855401247739792,0.1253909319639206
1761475667793925400,6.91392529296875,0.28942903876304626,0.17632713913917542,0.25293007493019104
1761475667803902200,6.923902099609375,0.28295597434043884,0.06971201300621033,0.35356026887893677
1761475667813879300,6.93387939453125,0.23632094264030457,-0.13627439737319946,0.39782822132110596
1761475667823856000,6.943856201171875,0.13228482007980347,-0.38474518060684204,0.38484105467796326
1761475667833833200,6.953833251953125,0.01821608655154705,-0.5974426865577698,0.339481920003891
1761475667843810000,6.96381005859375,-0.07574982196092606,-0.6970483660697937,0.2862437069416046
1761475667853787100,6.973787109375,-0.1466253399848938,-0.6916630268096924,0.26563432812690735
1761475667863764200,6.98376416015625,-0.19784830510616302,-0.5446810722351074,0.2411114126443863
1761475667873741000,6.993740966796875,-0.2117699682712555,-0.3036150336265564,0.22466130554676056
1761475667883718100,7.00371826171875,-0.17900723218917847,-0.003285291837528348,0.20382845401763916
1761475667893695200,7.0136953125,-0.10364095121622086,0.24298594892024994,0.16876119375228882
1761475667903672300,7.02367236328125,-0.020471762865781784,0.3607357442378998,0.1079511046409607
1761475667913649200,7.033649169921875,0.05080015957355499,0.39559903740882874,0.05273662880063057
1761475667923626200,7.043626220703125,0.10098876059055328,0.4271644055843353,0.03215412423014641
1761475667933603300,7.053603271484375,0.15793991088867188,0.4838288724422455,0.04493971914052963
1761475667943580200,7.063580078125,0.22669021785259247,0.5496049523353577,0.0959717407822609
1761475667953557200,7.07355712890625,0.30670756101608276,0.62032550573349,0.16760806739330292
1761475667963534000,7.0835341796875,0.37733086943626404,0.6834973096847534,0.24234755337238312
1761475667973512200,7.09351220703125,0.42465099692344666,0.6740683913230896,0.2923547923564911
1761475667983489300,7.1034892578125,0.4308984875679016,0.5740419030189514,0.30255335569381714
1761475667993466000,7.113466064453125,0.4056360423564911,0.37997618317604065,0.27168968319892883
1761475668003443200,7.123443115234375,0.3602922558784485,0.13175278902053833,0.22258473932743073
1761475668013420000,7.133419921875,0.315196692943573,-0.14713743329048157,0.17782926559448242
1761475668023397000,7.143397216796875,0.28265872597694397,-0.3574318289756775,0.1478428691625595
1761475668033374000,7.1533740234375,0.26004528999328613,-0.4666975736618042,0.12471356987953186
1761475668043351300,7.163351318359375,0.2628975510597229,-0.5081861615180969,0.09518203884363174
1761475668053328400,7.173328369140625,0.2661019265651703,-0.5538467764854431,0.04762028530240059
1761475668063305200,7.18330517578125,0.2518968880176544,-0.5381330251693726,-0.01880481094121933
1761475668073282300,7.1932822265625,0.24945157766342163,-0.45950546860694885,-0.09240049123764038
1761475668083259100,7.203259033203125,0.2555275559425354,-0.3469022214412689,-0.17242155969142914
1761475668093235700,7.213235595703125,0.258923202753067,-0.2221166044473648,-0.2692333459854126
1761475668103212800,7.223212890625,0.2597549259662628,-0.09705295413732529,-0.3755856156349182
1761475668113189600,7.233189697265625,0.2708572745323181,0.022086959332227707,-0.4827454686164856
1761475668123166700,7.243166748046875,0.29872432351112366,0.10006191581487656,-0.5859962105751038
1761475668133143800,7.253143798828125,0.3397876024246216,0.14855420589447021,-0.6689485907554626
1761475668143120600,7.26312060546875,0.39169368147850037,0.16862405836582184,-0.7155970335006714
1761475668153098800,7.2730986328125,0.45294323563575745,0.17819325625896454,-0.7257214188575745
1761475668163075600,7.28307568359375,0.4987221658229828,0.1839856207370758,-0.6920726299285889
1761475668173052700,7.293052734375,0.5261674523353577,0.20138998329639435,-0.6295596361160278
1761475668183030000,7.303030029296875,0.5230326652526855,0.22429636120796204,-0.5450493097305298
1761475668193006800,7.3130068359375,0.49415406584739685,0.22595097124576569,-0.4446687400341034
1761475668202984000,7.32298388671875,0.44739750027656555,0.20798422396183014,-0.3564552664756775
1761475668212960800,7.332960693359375,0.4044331908226013,0.1565595120191574,-0.2628830373287201
1761475668222937900,7.342937744140625,0.3787962794303894,0.10316552966833115,-0.18233732879161835
1761475668232914700,7.352914794921875,0.367712140083313,0.05691855773329735,-0.10982228815555573
1761475668242891800,7.362891845703125,0.3664260804653168,0.007879375480115414,-0.057713013142347336
1761475668252868900,7.372868896484375,0.3621290922164917,-0.04270727187395096,-0.02811558172106743
1761475668262845700,7.382845703125,0.3596547544002533,-0.08978103846311569,-0.018815290182828903
1761475668272822800,7.39282275390625,0.3481360077857971,-0.12472622841596603,-0.016532262787222862
1761475668282799600,7.402799560546875,0.3242839276790619,-0.14952079951763153,-0.0375232994556427
1761475668292776700,7.412776611328125,0.29386472702026367,-0.13142648339271545,-0.049754008650779724
1761475668302753800,7.42275390625,0.26739609241485596,-0.08369464427232742,-0.06979722529649734
1761475668312731000,7.43273095703125,0.25632911920547485,-0.022052008658647537,-0.081269271671772
1761475668322708000,7.4427080078125,0.2532486319541931,0.042352814227342606,-0.09093574434518814
1761475668332684800,7.452684814453125,0.25046423077583313,0.09663635492324829,-0.09893830865621567
1761475668342663000,7.462662841796875,0.24096234142780304,0.11616211384534836,-0.10295648872852325
1761475668352640000,7.472639892578125,0.22343361377716064,0.09729080647230148,-0.09524297714233398
1761475668362616800,7.482616943359375,0.18772728741168976,0.07238199561834335,-0.07320132851600647
1761475668372594000,7.492593994140625,0.13506661355495453,0.007826484739780426,-0.03618665784597397
1761475668382570800,7.50257080078125,0.07311270385980606,-0.0695444643497467,0.026191765442490578
1761475668392547800,7.5125478515625,0.004541866015642881,-0.13093039393424988,0.11884744465351105
1761475668402524700,7.522524658203125,-0.07595191150903702,-0.14859700202941895,0.221718430519104
1761475668412501800,7.532501708984375,-0.16049160063266754,-0.1526585817337036,0.3131350874900818
1761475668422478800,7.542478759765625,-0.25533077120780945,-0.16703484952449799,0.384701669216156
1761475668432455700,7.55245556640625,-0.3358953595161438,-0.178439199924469,0.4260185956954956
1761475668442432800,7.562432861328125,-0.38397952914237976,-0.1656629592180252,0.448368638753891
1761475668452409900,7.572409912109375,-0.39407041668891907,-0.11773468554019928,0.4672441780567169
1761475668462387000,7.582386962890625,-0.3918168544769287,-0.10911429673433304,0.4512327313423157
1761475668472363800,7.59236376953125,-0.4125136137008667,-0.20647330582141876,0.40238362550735474
1761475668482340900,7.6023408203125,-0.46984854340553284,-0.2943437695503235,0.30737507343292236
1761475668492318000,7.61231787109375,-0.5570759773254395,-0.38925299048423767,0.16582195460796356
1761475668502294800,7.622294677734375,-0.6478972434997559,-0.5211290121078491,-0.0018972716061398387
1761475668512272000,7.63227197265625,-0.7657952308654785,-0.6670078039169312,-0.19340960681438446
1761475668522249700,7.642249755859375,-0.8746042847633362,-0.7754179239273071,-0.37103524804115295
1761475668532226800,7.652226806640625,-0.959389328956604,-0.7068113684654236,-0.48640379309654236
1761475668542204000,7.662203857421875,-0.9484911561012268,-0.4679758548736572,-0.4897620379924774
1761475668552180700,7.6721806640625,-0.8670773506164551,-0.08452170342206955,-0.391112744808197
1761475668562157800,7.68215771484375,-0.7637274861335754,0.3546029329299927,-0.2597488760948181
1761475668572134700,7.692134765625,-0.5927066206932068,0.641090452671051,-0.06987027078866959
1761475668582111700,7.70211181640625,-0.3833198547363281,0.8262674808502197,0.1416664719581604
1761475668592088600,7.712088623046875,-0.2383657693862915,0.8845210075378418,0.29942601919174194
1761475668602066000,7.72206591796875,-0.1998191624879837,0.7617051005363464,0.38311558961868286
1761475668612043000,7.73204296875,-0.2126128077507019,0.5536076426506042,0.4438689053058624
1761475668622019800,7.742019775390625,-0.208364799618721,0.32381677627563477,0.5134197473526001
1761475668631997000,7.751996826171875,-0.21848714351654053,0.13160297274589539,0.5789245963096619
1761475668641973800,7.761973876953125,-0.26786160469055176,-0.055491287261247635,0.5985183119773865
1761475668651950800,7.771950927734375,-0.3594790995121002,-0.21969129145145416,0.5691915154457092
1761475668661927700,7.781927734375,-0.4608805477619171,-0.32112815976142883,0.48614561557769775
1761475668671904800,7.79190478515625,-0.5307238698005676,-0.3602910041809082,0.3798222243785858
1761475668681881900,7.8018818359375,-0.5616216063499451,-0.3109666109085083,0.271129310131073
1761475668691858700,7.811858642578125,-0.575455904006958,-0.18092256784439087,0.1395348459482193
1761475668701835800,7.821835693359375,-0.5742508172988892,-0.09344437718391418,-0.023478051647543907
1761475668711813600,7.831813720703125,-0.5353757739067078,-0.04340682551264763,-0.20285853743553162
1761475668721790700,7.841790771484375,-0.467397004365921,-0.0005818656645715237,-0.36893805861473083
1761475668731767800,7.851767822265625,-0.3786804676055908,0.06609607487916946,-0.5039557814598083
1761475668741744600,7.86174462890625,-0.28414541482925415,0.15693995356559753,-0.6002151966094971
1761475668751722000,7.871721923828125,-0.20249581336975098,0.23686173558235168,-0.6524134278297424
1761475668761698800,7.88169873046875,-0.1430460661649704,0.31078818440437317,-0.6474743485450745
1761475668771676000,7.891676025390625,-0.1096479594707489,0.3825168311595917,-0.6129541397094727
1761475668781652700,7.90165283203125,-0.10465293377637863,0.4091034531593323,-0.546959400177002
1761475668791629800,7.9116298828125,-0.11205265671014786,0.40445181727409363,-0.47032979130744934
1761475668801607000,7.92160693359375,-0.1185837984085083,0.3870672285556793,-0.3817538619041443
1761475668811583700,7.931583740234375,-0.11684290319681168,0.34104204177856445,-0.30023688077926636
1761475668821560800,7.941560791015625,-0.10298141837120056,0.2685076594352722,-0.22229120135307312
1761475668831537700,7.95153759765625,-0.08768489211797714,0.1688169687986374,-0.14543363451957703
1761475668841514800,7.9615146484375,-0.07809831202030182,0.048497218638658524,-0.07502099871635437
1761475668851491600,7.97149169921875,-0.07882245630025864,-0.03471489995718002,0.006311461329460144
1761475668861468700,7.98146875,-0.08942209929227829,-0.07481970638036728,0.07124971598386765
1761475668871446000,7.991446044921875,-0.1002679094672203,-0.07971593737602234,0.11955717951059341
1761475668881422800,8.0014228515625,-0.10098429769277573,-0.06448131799697876,0.134112149477005
1761475668891400000,8.01139990234375,-0.09421823173761368,-0.033390458673238754,0.10610391199588776
1761475668901376800,8.021376708984375,-0.07328418642282486,-0.027154669165611267,0.04207059368491173
1761475668911353900,8.031353759765626,-0.054183103144168854,-0.023175273090600967,-0.026298871263861656
1761475668921330700,8.04133056640625,-0.03705604746937752,-0.008516701869666576,-0.09674560278654099
1761475668931308800,8.051308837890625,-0.011777186766266823,0.03786395862698555,-0.14275379478931427
1761475668941286000,8.061285888671875,0.017468318343162537,0.12124326825141907,-0.1661030650138855
1761475668951262700,8.0712626953125,0.05555277317762375,0.2207789123058319,-0.15802185237407684
1761475668961239800,8.08123974609375,0.10180655866861343,0.293918639421463,-0.1265837699174881
1761475668971217000,8.091216796875,0.15268005430698395,0.30818912386894226,-0.08625263720750809
1761475668981193700,8.10119384765625,0.19552099704742432,0.270401269197464,-0.04360557347536087
1761475668991170800,8.1111708984375,0.2526824474334717,0.17422142624855042,0.01062028668820858
1761475669001147600,8.121147705078124,0.31616875529289246,0.08326329290866852,0.08907061815261841
1761475669011124700,8.131124755859375,0.3824571371078491,0.022135484963655472,0.20457257330417633
1761475669021101800,8.141101806640625,0.4314073622226715,0.013826689682900906,0.331598162651062
1761475669031079000,8.151078857421876,0.4794047772884369,0.03659506514668465,0.4576716125011444
1761475669041056000,8.161055908203124,0.5228289365768433,-0.024119945243000984,0.5557217597961426
1761475669051032800,8.17103271484375,0.5431174039840698,-0.16686633229255676,0.6087756156921387
1761475669061010000,8.181010009765625,0.5207892060279846,-0.3083534240722656,0.6047710180282593
1761475669070986800,8.19098681640625,0.45703282952308655,-0.46946007013320923,0.5646585822105408
1761475669080963800,8.2009638671875,0.36958208680152893,-0.6623267531394958,0.4883507490158081
1761475669090940700,8.210940673828125,0.2597266137599945,-0.7700885534286499,0.3872126638889313
1761475669100917800,8.220917724609375,0.09098286926746368,-0.7644224166870117,0.25249773263931274
1761475669110895600,8.2308955078125,-0.060722701251506805,-0.7241598963737488,0.1331396847963333
1761475669120872700,8.240872802734375,-0.15421350300312042,-0.5777270197868347,0.04400235787034035
1761475669130849800,8.250849853515625,-0.16964995861053467,-0.35760757327079773,-0.00983799435198307
1761475669140826600,8.26082666015625,-0.11813618242740631,-0.10149111598730087,-0.04107793793082237
1761475669150803700,8.2708037109375,-0.04355831444263458,0.15145225822925568,-0.050669096410274506
1761475669160780500,8.280780517578124,0.07466259598731995,0.3961474895477295,-0.03560492396354675
1761475669170758000,8.2907578125,0.21686077117919922,0.6131212711334229,0.010844573378562927
1761475669180734700,8.300734619140625,0.3527437746524811,0.7854602932929993,0.07385549694299698
1761475669190711800,8.3107119140625,0.4800126850605011,0.9036617875099182,0.12677612900733948
1761475669200689000,8.32068896484375,0.5892124176025391,0.9610691666603088,0.1726386845111847
1761475669210665700,8.330665771484375,0.656809389591217,0.9398378729820251,0.19624772667884827
1761475669220642800,8.340642822265625,0.6825994253158569,0.8403011560440063,0.19914232194423676
1761475669230620700,8.35062060546875,0.677585780620575,0.6479859352111816,0.17430587112903595
1761475669240597800,8.36059765625,0.6486803889274597,0.36930614709854126,0.1273929476737976
1761475669250574800,8.370574951171875,0.5775893926620483,0.051157817244529724,0.07618582993745804
1761475669260551700,8.3805517578125,0.5110551118850708,-0.24169136583805084,0.03440456837415695
1761475669270528800,8.39052880859375,0.47560834884643555,-0.4435979127883911,0.019433390349149704
1761475669280505600,8.400505615234374,0.4515291154384613,-0.5535725951194763,0.017589151859283447
1761475669290482700,8.410482666015625,0.41588908433914185,-0.6306673884391785,0.023363051936030388
1761475669300459500,8.42045947265625,0.3739381432533264,-0.6034110188484192,0.027451004832983017
1761475669310436600,8.4304365234375,0.34475430846214294,-0.5388034582138062,0.03004591539502144
1761475669320414000,8.4404140625,0.33833450078964233,-0.4503958523273468,0.0218774676322937
1761475669330390800,8.450390869140625,0.3468221127986908,-0.31100523471832275,-0.0003848877386189997
1761475669340368000,8.460367919921875,0.3705069422721863,-0.16931867599487305,-0.037666480988264084
1761475669350344700,8.4703447265625,0.4039938747882843,-0.024184979498386383,-0.10164304077625275
1761475669360321800,8.48032177734375,0.46117568016052246,0.10845216363668442,-0.16851209104061127
1761475669370298600,8.490298583984375,0.5242652297019958,0.18215221166610718,-0.2400476336479187
1761475669380275700,8.500275634765625,0.5762344002723694,0.18941012024879456,-0.30770739912986755
1761475669390252800,8.510252685546876,0.6026880741119385,0.18348091840744019,-0.35855478048324585
1761475669400230700,8.520230712890625,0.5947095155715942,0.19658367335796356,-0.3750080466270447
1761475669410207700,8.530207763671875,0.5665457248687744,0.23271115124225616,-0.3668152093887329
1761475669420184600,8.5401845703125,0.5250094532966614,0.2888045310974121,-0.33955296874046326
1761475669430161700,8.55016162109375,0.4818272888660431,0.32955893874168396,-0.31684210896492004
1761475669440138800,8.560138671875,0.4441097378730774,0.32657432556152344,-0.2970699965953827
1761475669450115600,8.570115478515625,0.4121064245700836,0.28915753960609436,-0.28856903314590454
1761475669460092700,8.5800927734375,0.3936707079410553,0.21972015500068665,-0.27400660514831543
1761475669470069800,8.59006982421875,0.39053434133529663,0.1374935507774353,-0.25786393880844116
1761475669480046800,8.600046875,0.397116094827652,0.09034362435340881,-0.22304125130176544
1761475669490023700,8.610023681640625,0.399531751871109,0.08640986680984497,-0.17922388017177582
1761475669500000800,8.620000732421875,0.3851594626903534,0.07274997979402542,-0.13978247344493866
1761475669509977900,8.629977783203126,0.36471739411354065,0.055217329412698746,-0.1100262850522995
1761475669519954700,8.63995458984375,0.33587244153022766,0.025164088234305382,-0.10287117213010788
1761475669529931800,8.649931884765625,0.299190878868103,-0.018085390329360962,-0.10364045202732086
1761475669539908600,8.65990869140625,0.25799816846847534,-0.057158488780260086,-0.09298594295978546
1761475669549885700,8.6698857421875,0.20578251779079437,-0.097111277282238,-0.09082712233066559
1761475669559862500,8.679862548828124,0.15389667451381683,-0.13981133699417114,-0.08271487057209015
1761475669569839600,8.689839599609375,0.11019469052553177,-0.14715154469013214,-0.0674382746219635
1761475669579817700,8.699817626953125,0.07826632261276245,-0.10869255661964417,-0.03602868318557739
1761475669589794600,8.709794677734376,0.057359881699085236,-0.04743495583534241,0.0018306928686797619
1761475669599771600,8.719771728515624,0.03925038501620293,-0.0029505807906389236,0.039779141545295715
1761475669609748500,8.72974853515625,0.027218788862228394,0.0077258204109966755,0.08322057127952576
1761475669619725800,8.739725830078125,0.0006510944804176688,-0.010360505431890488,0.14092008769512177
1761475669629703000,8.749702880859376,-0.038708917796611786,-0.03297010809183121,0.20162992179393768
1761475669639679700,8.7596796875,-0.08809218555688858,-0.05765494704246521,0.2691202759742737
1761475669649656800,8.76965673828125,-0.1379726231098175,-0.09285422414541245,0.33673033118247986
1761475669659633700,8.779633544921875,-0.18541337549686432,-0.09418819844722748,0.4042460024356842
1761475669669610800,8.78961083984375,-0.19772878289222717,-0.07410555332899094,0.4717863202095032
1761475669679587600,8.799587646484374,-0.17370440065860748,-0.10723926872015,0.52006995677948
1761475669689564700,8.809564697265625,-0.15047110617160797,-0.25816935300827026,0.5211148858070374
1761475669699541800,8.819541748046875,-0.22645747661590576,-0.5317564010620117,0.415920615196228
1761475669709518600,8.8295185546875,-0.39770811796188354,-0.8457908630371094,0.23222915828227997
1761475669719495700,8.83949560546875,-0.594772458076477,-1.0782289505004883,0.03293522819876671
1761475669729472500,8.849472412109375,-0.7807568907737732,-1.2053117752075195,-0.16212305426597595
1761475669739449900,8.859449951171875,-0.9624339938163757,-1.2089416980743408,-0.34995314478874207
1761475669749427700,8.869427734375,-1.090515375137329,-1.102857232093811,-0.4948260486125946
1761475669759404500,8.879404541015624,-1.1277668476104736,-0.8239068984985352,-0.5781113505363464
1761475669769382000,8.8893818359375,-1.0898661613464355,-0.3799973130226135,-0.5879005789756775
1761475669779358700,8.899358642578125,-0.9615065455436707,0.15831169486045837,-0.5510740876197815
1761475669789335800,8.909335693359376,-0.7374967932701111,0.6326199769973755,-0.4545215368270874
1761475669799313000,8.91931298828125,-0.4130346179008484,0.9459020495414734,-0.284905344247818
1761475669809289700,8.929289794921875,-0.09779085963964462,1.1561343669891357,-0.1021646037697792
1761475669819266800,8.939266845703125,0.09914137423038483,1.2064141035079956,0.02783147431910038
1761475669829243600,8.94924365234375,0.18757843971252441,1.0894418954849243,0.12449988722801208
1761475669839220700,8.959220703125,0.23108144104480743,0.8954828977584839,0.21591316163539886
1761475669849197600,8.969197509765625,0.2526617646217346,0.6696619987487793,0.3146907091140747
1761475669859174700,8.979174560546875,0.2199445515871048,0.43322309851646423,0.3833707273006439
1761475669869151700,8.98915185546875,0.14854073524475098,0.19174399971961975,0.46224892139434814
1761475669879128600,8.999128662109374,0.023798277601599693,0.016931986436247826,0.5116114020347595
1761475669889106000,9.00910595703125,-0.13926751911640167,-0.1547044813632965,0.5256738066673279
1761475669899082800,9.019082763671875,-0.3279000520706177,-0.29136911034584045,0.482840359210968
1761475669909059800,9.029059814453126,-0.48560255765914917,-0.3624296486377716,0.41190141439437866
1761475669919036700,9.03903662109375,-0.5732064247131348,-0.348953515291214,0.3125855028629303
1761475669929014800,9.049014892578125,-0.6135780215263367,-0.2854561507701874,0.18878163397312164
1761475669938991900,9.058991943359375,-0.6263550519943237,-0.21541447937488556,0.030376559123396873
1761475669948968700,9.06896875,-0.6192587614059448,-0.14699627459049225,-0.16105185449123383
1761475669958945800,9.07894580078125,-0.578157365322113,-0.09271278977394104,-0.35898357629776
1761475669968922600,9.088922607421875,-0.49803435802459717,-0.040272343903779984,-0.5447805523872375
1761475669978899700,9.098899658203125,-0.4112089276313782,-0.0029875559266656637,-0.6983171105384827
1761475669988876800,9.108876708984376,-0.3207874894142151,0.055852483958005905,-0.8103135824203491
1761475669998853600,9.118853515625,-0.24153341352939606,0.1731564700603485,-0.8595525026321411
1761475670008830700,9.128830810546875,-0.17669221758842468,0.3146137595176697,-0.8534290790557861
1761475670018807600,9.1388076171875,-0.12346654385328293,0.4053465723991394,-0.8007717728614807
1761475670028784600,9.14878466796875,-0.08915435522794724,0.4835163652896881,-0.7147428393363953
1761475670038761700,9.15876171875,-0.06882724910974503,0.509027898311615,-0.6189678907394409
1761475670048738800,9.16873876953125,-0.0472697876393795,0.5114699006080627,-0.5150187611579895
1761475670058716000,9.1787158203125,-0.007191878277808428,0.45354244112968445,-0.4086015224456787
1761475670068692700,9.188692626953125,0.04465051740407944,0.3431796431541443,-0.30589428544044495
1761475670078669800,9.198669921875,0.0779179260134697,0.2001684457063675,-0.21594227850437164
1761475670088646700,9.208646728515625,0.07507612556219101,0.03909444063901901,-0.12106673419475555
1761475670098624800,9.218624755859375,0.033469296991825104,-0.022332968190312386,-0.019423726946115494
1761475670108601600,9.2286015625,-0.00992561224848032,-0.02711579203605652,0.07282263040542603
1761475670118578700,9.23857861328125,-0.03571060299873352,-0.044952310621738434,0.14560841023921967
1761475670128555800,9.2485556640625,-0.03482067584991455,-0.06560150533914566,0.1844458281993866
1761475670138532600,9.25853271484375,-0.019273405894637108,-0.07601712644100189,0.20272096991539001
1761475670148509700,9.268509765625,0.0010049674892798066,-0.0635380819439888,0.19663511216640472
1761475670158486500,9.278486572265624,0.013603050261735916,-0.02707967348396778,0.16960376501083374
1761475670168463600,9.288463623046875,0.02765415422618389,0.030173493549227715,0.12791383266448975
1761475670178440400,9.2984404296875,0.04766887426376343,0.11414962261915207,0.07225563377141953
1761475670188417800,9.308417724609376,0.08470672369003296,0.209232360124588,0.016019893810153008
1761475670198395000,9.318394775390624,0.14739355444908142,0.2700411081314087,-0.037786610424518585
1761475670208371700,9.328371826171875,0.21796110272407532,0.2504321038722992,-0.08183861523866653
1761475670218348800,9.338348876953125,0.2836548984050751,0.18194890022277832,-0.09151627123355865
1761475670228325600,9.34832568359375,0.34339579939842224,0.12597449123859406,-0.07404927164316177
1761475670238302700,9.358302734375,0.38933026790618896,0.07379889488220215,-0.012706825509667397
1761475670248279600,9.368279541015625,0.42721986770629883,0.03725116327404976,0.05949890613555908
1761475670258256600,9.378256591796875,0.4594758152961731,-0.029940655454993248,0.15949846804141998
1761475670268234800,9.38823486328125,0.49422869086265564,-0.05612027645111084,0.2816731929779053
1761475670278211600,9.398211669921874,0.531516969203949,-0.05282434821128845,0.4166467487812042
1761475670288188700,9.408188720703125,0.5596290230751038,-0.04444221034646034,0.553510308265686
1761475670298165500,9.41816552734375,0.5561661124229431,-0.0757865458726883,0.6559128761291504
1761475670308142600,9.428142578125,0.5160803198814392,-0.16351087391376495,0.6966834664344788
1761475670318119700,9.43811962890625,0.4275594651699066,-0.31841787695884705,0.6670358180999756
1761475670328096500,9.448096435546875,0.30720415711402893,-0.5158150792121887,0.5618950724601746
1761475670338073900,9.458073974609375,0.16282516717910767,-0.7074670791625977,0.39023303985595703
1761475670348050700,9.46805078125,0.021414291113615036,-0.877739429473877,0.18446750938892365
1761475670358027800,9.47802783203125,-0.10195557773113251,-0.915327250957489,-0.00040699110832065344
1761475670368004600,9.488004638671875,-0.1771092712879181,-0.7745270133018494,-0.1302812397480011
1761475670377981700,9.497981689453125,-0.19437026977539062,-0.5070345997810364,-0.20739279687404633
1761475670387958800,9.507958740234375,-0.14786186814308167,-0.1827964186668396,-0.22716307640075684
1761475670397935600,9.517935546875,-0.034829333424568176,0.19023682177066803,-0.20394057035446167
1761475670407912700,9.52791259765625,0.14391033351421356,0.5384474396705627,-0.1420106589794159
1761475670417889500,9.5378896484375,0.3940434753894806,0.8152194023132324,-0.028695279732346535
1761475670427867600,9.54786767578125,0.6347426176071167,1.064090609550476,0.09468795359134674
1761475670437844700,9.5578447265625,0.7879260182380676,1.1836875677108765,0.16277539730072021
1761475670447821600,9.567821533203125,0.8428686857223511,1.127707839012146,0.18199482560157776
1761475670457798700,9.577798583984375,0.8451195955276489,0.9457056522369385,0.16490399837493896
1761475670467775500,9.587775390625,0.815360426902771,0.7065863013267517,0.14327235519886017
1761475670477752600,9.597752685546874,0.7319582104682922,0.45738181471824646,0.10325410217046738
1761475670487729700,9.607729736328125,0.6426470279693604,0.17730659246444702,0.09703034907579422
1761475670497706800,9.617706787109375,0.49729517102241516,-0.08646327257156372,0.0733732283115387
1761475670507683800,9.627683837890626,0.3315902054309845,-0.3271477222442627,0.03487865999341011
1761475670517660700,9.63766064453125,0.20344741642475128,-0.4870782792568207,0.006864335387945175
1761475670527637800,9.6476376953125,0.11799418926239014,-0.5771668553352356,-0.009520473890006542
1761475670537614600,9.657614501953125,0.06374187022447586,-0.532163679599762,-0.024687975645065308
1761475670547591700,9.667591796875,0.04626133665442467,-0.4412340819835663,-0.043862614780664444
1761475670557568800,9.67756884765625,0.0667642131447792,-0.3047846257686615,-0.06031269207596779
1761475670567545600,9.687545654296875,0.13040128350257874,-0.10035394132137299,-0.07220455259084702
1761475670577522700,9.697522705078125,0.20631840825080872,0.14137612283229828,-0.09945135563611984
1761475670587499500,9.70749951171875,0.2912290692329407,0.3233810365200043,-0.15382598340511322
1761475670597477600,9.7174775390625,0.3792358934879303,0.4170321822166443,-0.23108908534049988
1761475670607454700,9.727454833984375,0.4612886905670166,0.44210800528526306,-0.3289411664009094
1761475670617431600,9.737431640625,0.5242056250572205,0.3928041160106659,-0.4292999804019928
1761475670627408600,9.74740869140625,0.5609873533248901,0.31541207432746887,-0.5019443035125732
1761475670637385700,9.7573857421875,0.5575723648071289,0.23207056522369385,-0.5384349226951599
1761475670647362800,9.76736279296875,0.5219160914421082,0.17914392054080963,-0.5318729281425476
1761475670657339600,9.777339599609375,0.46491649746894836,0.1414918750524521,-0.49043792486190796
1761475670667316700,9.787316650390625,0.40671131014823914,0.12124523520469666,-0.42328837513923645
1761475670677293800,9.7972939453125,0.35980451107025146,0.1009088009595871,-0.3529103398323059
1761475670687270700,9.807270751953125,0.33529385924339294,0.06810695677995682,-0.2741599678993225
1761475670697247700,9.817247802734375,0.3234712779521942,0.030910592526197433,-0.20070278644561768
1761475670707224600,9.827224609375,0.3142756521701813,0.00835783313959837,-0.12288087606430054
1761475670717201700,9.83720166015625,0.3036368489265442,-0.05798017606139183,-0.057996418327093124
1761475670727178500,9.847178466796874,0.2853754460811615,-0.15821462869644165,0.005392961669713259
1761475670737155600,9.857155517578125,0.259449303150177,-0.2196952998638153,0.07266893237829208
1761475670747132700,9.867132568359375,0.21446546912193298,-0.2503238916397095,0.1386236697435379
1761475670757110500,9.877110595703124,0.14954079687595367,-0.27670514583587646,0.17597955465316772
1761475670767087600,9.887087646484375,0.06648093461990356,-0.3216498792171478,0.1751047670841217
1761475670777064400,9.897064453125,-0.017549527809023857,-0.3679095208644867,0.15546901524066925
1761475670787041800,9.907041748046876,-0.08680840581655502,-0.36539211869239807,0.11820076406002045
1761475670797019000,9.917018798828124,-0.12928983569145203,-0.3196144998073578,0.08462656289339066
1761475670806995700,9.92699560546875,-0.13532721996307373,-0.2543795704841614,0.06107329577207565
1761475670816972800,9.936972900390625,-0.12090512365102768,-0.11654394119977951,0.05497412383556366
1761475670826949600,9.94694970703125,-0.11308553814888,0.023230895400047302,0.04837212339043617
1761475670836926700,9.9569267578125,-0.11358354985713959,0.11957394331693649,0.027513446286320686
1761475670846903600,9.966903564453125,-0.10988309979438782,0.1568995714187622,-0.00008406912093050778
1761475670856880600,9.976880615234375,-0.12270435690879822,0.11760038137435913,-0.028085077181458473
1761475670866857700,9.986857666015625,-0.1595032662153244,0.01836828701198101,-0.040850069373846054
1761475670876834600,9.99683447265625,-0.2117912322282791,-0.04609166085720062,-0.020838012918829918
1761475670886811600,10.006811767578125,-0.2622102200984955,-0.04860078915953636,0.037675123661756516
1761475670896788500,10.01678857421875,-0.277116984128952,0.0002684849314391613,0.12128134071826935
1761475670906765800,10.026765869140625,-0.2697715163230896,0.04150359332561493,0.22054807841777802
1761475670916743700,10.03674365234375,-0.24785901606082916,0.02898886427283287,0.2915476858615875
1761475670926720500,10.046720458984375,-0.26632755994796753,-0.03852818161249161,0.3037354350090027
1761475670936697600,10.056697509765625,-0.3245146870613098,-0.0923812985420227,0.2568986713886261
1761475670946674700,10.0666748046875,-0.41051456332206726,-0.19873833656311035,0.15728089213371277
1761475670956651800,10.07665185546875,-0.5354112386703491,-0.3678056597709656,0.006553978659212589
1761475670966628900,10.08662890625,-0.6948487162590027,-0.5912845134735107,-0.1930810511112213
1761475670976605700,10.096605712890625,-0.8228959441184998,-0.6721223592758179,-0.35818880796432495
1761475670986582800,10.106582763671875,-0.8973624110221863,-0.5921946167945862,-0.45272088050842285
1761475670996559600,10.1165595703125,-0.8952292203903198,-0.34283646941185,-0.4622321128845215
1761475671006536700,10.12653662109375,-0.8242759704589844,-0.02446115016937256,-0.4054764211177826
1761475671016513500,10.136513427734375,-0.7377413511276245,0.2891329824924469,-0.3271816074848175
1761475671026490600,10.14649072265625,-0.6075474619865417,0.5144341588020325,-0.2121310979127884
1761475671036467700,10.1564677734375,-0.4397589862346649,0.7043116688728333,-0.05491937696933746
1761475671046444500,10.166444580078124,-0.28631117939949036,0.8357025384902954,0.098617784678936
1761475671056421600,10.176421630859375,-0.19417698681354523,0.8165522813796997,0.2134130895137787
1761475671066398700,10.186398681640625,-0.17799878120422363,0.6776679158210754,0.28700098395347595
1761475671076376600,10.19637646484375,-0.1843986213207245,0.44850853085517883,0.3478909730911255
1761475671086353700,10.206353759765625,-0.18933247029781342,0.23787598311901093,0.4061577022075653
1761475671096330800,10.216330810546875,-0.2245088368654251,0.05937521532177925,0.45574522018432617
1761475671106307800,10.226307861328126,-0.31446099281311035,-0.042035724967718124,0.4833720624446869
1761475671116284700,10.23628466796875,-0.41681426763534546,-0.12146823108196259,0.4801270067691803
1761475671126261800,10.24626171875,-0.5064650774002075,-0.2134646773338318,0.44044116139411926
1761475671136238600,10.256238525390625,-0.5946007966995239,-0.2927403450012207,0.35802483558654785
1761475671146215700,10.266215576171875,-0.6777622103691101,-0.3429209887981415,0.2342197597026825
1761475671156192800,10.27619287109375,-0.7457231879234314,-0.37879881262779236,0.0928431823849678
1761475671166169600,10.286169677734375,-0.7763025164604187,-0.3578769862651825,-0.03781166672706604
1761475671176146700,10.296146728515625,-0.7867701053619385,-0.2856472432613373,-0.16444258391857147
1761475671186123500,10.30612353515625,-0.7682464718818665,-0.2072615921497345,-0.2835668921470642
1761475671196100600,10.3161005859375,-0.7278580069541931,-0.11218300461769104,-0.40675994753837585
1761475671206077700,10.32607763671875,-0.6514236927032471,-0.014562232419848442,-0.5099725127220154
1761475671216054800,10.3360546875,-0.5526366829872131,0.0791674554347992,-0.5950794219970703
1761475671226031900,10.346031982421875,-0.43680980801582336,0.14943745732307434,-0.6494359970092773
1761475671236009500,10.356009521484374,-0.35156309604644775,0.1920376420021057,-0.6792173385620117
1761475671245986800,10.36598681640625,-0.3082990348339081,0.19869385659694672,-0.681908905506134
1761475671255963600,10.375963623046875,-0.28653913736343384,0.19947202503681183,-0.644926905632019
1761475671265940700,10.385940673828125,-0.2581137418746948,0.24234279990196228,-0.5665566921234131
1761475671275917800,10.395917724609374,-0.21517318487167358,0.2870391607284546,-0.46964484453201294
1761475671285894700,10.405894775390625,-0.1703486293554306,0.28596094250679016,-0.35532012581825256
1761475671295871700,10.415871826171875,-0.13180069625377655,0.22310662269592285,-0.24965627491474152
1761475671305848600,10.4258486328125,-0.10407251119613647,0.15104974806308746,-0.14843988418579102
1761475671315825700,10.43582568359375,-0.09139879792928696,0.0581754595041275,-0.06520278751850128
1761475671325802500,10.445802490234374,-0.08758704364299774,-0.01753959432244301,0.017462311312556267
1761475671335779600,10.455779541015625,-0.1148516908288002,-0.06892049312591553,0.0843912735581398
1761475671345756700,10.465756591796875,-0.1564732939004898,-0.10692934691905975,0.1359095275402069
1761475671355733800,10.475733642578126,-0.18760564923286438,-0.10729846358299255,0.16307669878005981
1761475671365710800,10.4857109375,-0.20266595482826233,-0.07022091001272202,0.16195237636566162
1761475671375687700,10.495687744140625,-0.21244321763515472,-0.02471042424440384,0.12096446752548218
1761475671385664800,10.505664794921875,-0.21362458169460297,-0.01161203719675541,0.03602851554751396
1761475671395643000,10.515642822265624,-0.2076931893825531,0.008047417737543583,-0.058533675968647
1761475671405619700,10.52561962890625,-0.17832402884960175,0.0840594619512558,-0.14468319714069366
1761475671415596800,10.5355966796875,-0.13848073780536652,0.18093568086624146,-0.2109072208404541
1761475671425573600,10.54557373046875,-0.08535502105951309,0.2907533049583435,-0.25099900364875793
1761475671435550700,10.55555078125,-0.028840873390436172,0.3894452452659607,-0.2664453387260437
1761475671445527800,10.56552783203125,0.02082524634897709,0.41407981514930725,-0.27763283252716064
1761475671455504600,10.575504638671875,0.054317161440849304,0.38167208433151245,-0.2807958424091339
1761475671465481700,10.585481689453125,0.09927068650722504,0.29028773307800293,-0.27400559186935425
1761475671475458600,10.59545849609375,0.14594551920890808,0.22240909934043884,-0.23136037588119507
1761475671485435600,10.605435546875,0.1652492880821228,0.17949837446212769,-0.17945140600204468
1761475671495412500,10.61541259765625,0.18384107947349548,0.08387651294469833,-0.10613484680652618
1761475671505389600,10.6253896484375,0.2050371766090393,0.05091589689254761,-0.0003226663975510746
1761475671515367000,10.635366943359376,0.22482074797153473,-0.023179901763796806,0.11049093306064606
1761475671525343700,10.64534375,0.24207942187786102,-0.05028197914361954,0.23000817000865936
1761475671535320800,10.65532080078125,0.25588762760162354,-0.054373398423194885,0.33276864886283875
1761475671545297700,10.665297607421875,0.248316690325737,-0.07342107594013214,0.39629536867141724
1761475671555275800,10.67527587890625,0.19926418364048004,-0.12964999675750732,0.4057011008262634
1761475671565252900,10.6852529296875,0.1193230077624321,-0.17510110139846802,0.3660048246383667
1761475671575229700,10.695229736328125,0.015316452831029892,-0.23265492916107178,0.2679126262664795
1761475671585206800,10.705206787109375,-0.0845889002084732,-0.3588217794895172,0.13973796367645264
1761475671595183600,10.71518359375,-0.19496279954910278,-0.4794597625732422,-0.004272471647709608
1761475671605160700,10.72516064453125,-0.2791050672531128,-0.4818204641342163,-0.1134115532040596
1761475671615137500,10.735137451171875,-0.29699885845184326,-0.372836709022522,-0.18080124258995056
1761475671625114600,10.745114501953125,-0.24685679376125336,-0.2475212961435318,-0.21787412464618683
1761475671635091700,10.755091796875,-0.14689716696739197,-0.16632391512393951,-0.23217211663722992
1761475671645068500,10.765068603515624,-0.03673899546265602,-0.09256861358880997,-0.2363002598285675
1761475671655045600,10.775045654296875,0.045018717646598816,-0.03525925427675247,-0.21940143406391144
1761475671665022700,10.785022705078125,0.13914193212985992,0.0528121180832386,-0.16234226524829865
1761475671674999800,10.794999755859376,0.20887094736099243,0.16605184972286224,-0.06545806676149368
1761475671684976600,10.8049765625,0.2660321891307831,0.3036677837371826,0.03891058638691902
1761475671694953700,10.81495361328125,0.3236920237541199,0.44321131706237793,0.15061154961585999
1761475671704930800,10.824930908203125,0.40369415283203125,0.49616068601608276,0.25480419397354126
1761475671714908700,10.83490869140625,0.4576311707496643,0.4811963737010956,0.34751787781715393
1761475671724885800,10.8448857421875,0.45644479990005493,0.43625304102897644,0.4012845456600189
1761475671734862600,10.854862548828125,0.4144725799560547,0.36872538924217224,0.41607415676116943
1761475671744839700,10.864839599609375,0.3531692922115326,0.1732885241508484,0.4066614806652069
1761475671754816800,10.874816650390626,0.30240944027900696,-0.04960021749138832,0.4007817506790161
1761475671764793600,10.884793701171875,0.2540189027786255,-0.17894361913204193,0.41271263360977173
1761475671774770700,10.894770751953125,0.23152077198028564,-0.21666835248470306,0.4145249128341675
1761475671784747500,10.90474755859375,0.24897918105125427,-0.23927119374275208,0.3883877992630005
1761475671794724600,10.914724609375,0.27539241313934326,-0.2106214463710785,0.3064870536327362
1761475671804701400,10.924701416015624,0.2994878590106964,-0.16228485107421875,0.20880980789661407
1761475671814678800,10.9346787109375,0.1789635717868805,-0.23762407898902893,0.38003215193748474
1761475671824656000,10.94465576171875,0.14054811000823975,-0.41075441241264343,0.3535681664943695
1761475671834632700,10.9546328125,0.12921583652496338,-0.38193368911743164,0.23821042478084564
1761475671844609800,10.96460986328125,0.16266542673110962,-0.46958813071250916,0.0732286125421524
1761475671854586600,10.974586669921875,0.2083735316991806,-0.3353498876094818,-0.10208621621131897
1761475671864563700,10.984563720703125,0.18175016343593597,-0.059111274778842926,-0.24086910486221313
1761475671874540500,10.99454052734375,0.19161690771579742,0.28844720125198364,-0.3569626808166504
1761475671884518700,11.0045185546875,0.3154485523700714,0.6168992519378662,-0.4384993314743042
