time,seconds_elapsed,z,y,x
1761476024594101800,0.120101806640625,0.07369476628601551,-0.10651873913183808,0.33769429695867
1761476024604137700,0.1301376953125,0.08887246167361736,-0.0897172419346869,0.31611930174939334
1761476024614173700,0.140173583984375,0.05097440043389797,-0.0914252148963511,0.32148959661088883
1761476024624209700,0.150209716796875,-0.003949029886722564,-0.1213094810284674,0.33087219585366545
1761476024634247000,0.160246826171875,0.020875614768266677,-0.13836582976952194,0.300776478927955
1761476024644283000,0.170282958984375,0.009492050966620445,-0.10314458652362227,0.2453488984774798
1761476024654318800,0.18031884765625,0.01852525224983692,-0.04305047556683421,0.20958711861409246
1761476024664354800,0.190354736328125,0.08620002759397029,-0.022336042709648608,0.19006481815092263
1761476024674391800,0.200391845703125,0.13414543559551237,-0.04223126813843846,0.1434475900132209
1761476024684427800,0.210427734375,0.10276830055713652,-0.06353899071365594,0.10524177799858152
1761476024694463700,0.220463623046875,0.03512099774181843,-0.09343845441490412,0.0442730030991137
1761476024704499700,0.230499755859375,0.052070378977060315,-0.10017126980125904,-0.041652226141467685
1761476024714536700,0.24053662109375,-0.013673136043548584,-0.09294920959323644,-0.11873341999538242
1761476024724572700,0.25057275390625,0.014030863440036774,-0.07713233951926231,-0.16714125787690282
1761476024734608600,0.260608642578125,0.07585106753706931,-0.05695888167098164,-0.235473766477406
1761476024744644600,0.27064453125,0.1738730503499508,-0.03601341653689742,-0.3168929164703935
1761476024754681900,0.280681884765625,0.18130816878676415,-0.027453824114799498,-0.36693748870827253
1761476024764717800,0.2907177734375,0.08430325406193732,-0.01152721005603671,-0.40737105977497995
1761476024774753800,0.30075390625,-0.007478957578539848,-0.03068184625059366,-0.4504759689427912
1761476024784789800,0.310789794921875,0.012118892338871956,-0.05853460655510425,-0.46435281086489555
1761476024794826800,0.32082666015625,0.05527823510766029,-0.06388795028179883,-0.5267675467889755
1761476024804862700,0.33086279296875,-0.03448328436017036,-0.07943316380754113,-0.5787755280543119
1761476024814898700,0.340898681640625,-0.19940204388201235,-0.12382643228545784,-0.5408307781286538
1761476024824935700,0.350935791015625,-0.3371171546578407,-0.1507642697021365,-0.4740256252259016
1761476024834971600,0.3609716796875,-0.36672611097991464,-0.1655595416434109,-0.523380680829659
1761476024845007600,0.371007568359375,-0.4579600410878658,-0.12848653305098415,-0.6255559108644724
1761476024855043600,0.381043701171875,-0.4355430420964956,-0.09979454544335603,-0.7520910175867378
1761476024865080600,0.39108056640625,-0.2772743881136179,-0.0847648802243173,-0.8441869713515042
1761476024875116800,0.40111669921875,-0.1886941873848438,-0.057448272623121736,-0.8852429121002554
1761476024885152800,0.41115283203125,-0.2013783123910427,-0.052247635240107775,-0.9601830753374844
1761476024895188700,0.421188720703125,-0.16657178742587567,-0.11881284190714358,-0.8944182983331381
1761476024905224700,0.431224609375,-0.11495265934765338,-0.19443872238621115,-0.7236528586097061
1761476024915261700,0.44126171875,-0.03974222780168056,-0.22382409908547996,-0.5757267349429428
1761476024925297700,0.451297607421875,0.03582885375022888,-0.2156112742744386,-0.49562283226698634
1761476024935333600,0.461333740234375,0.10555237831771373,-0.1681084954738617,-0.4863974694125354
1761476024945369600,0.47136962890625,0.14594400993883608,-0.12826222277581692,-0.49527387269884343
1761476024955406600,0.481406494140625,0.2442255204707384,-0.1398695123307407,-0.5149452993091196
1761476024965442600,0.491442626953125,0.37186698099970816,-0.14735080799683928,-0.5631725199267268
1761476024975478500,0.501478515625,0.42178105872571464,-0.13324527188539503,-0.6160802995759993
1761476024985514800,0.5115146484375,0.417604649823904,-0.11683116657063364,-0.5848834895405918
1761476024995551700,0.5215517578125,0.33815117388069627,-0.09380977194532751,-0.5144118865521624
1761476025005587700,0.531587646484375,0.28396774827241894,-0.06254559576213359,-0.4549370400048792
1761476025015623700,0.541623779296875,0.214964354673028,-0.02456438628360629,-0.37548067798484114
1761476025025660000,0.551659912109375,0.10424129571914673,-0.015352029041200876,-0.31423885829765347
1761476025035696600,0.561696533203125,0.02374970889985561,-0.035032150414586065,-0.3152945048304274
1761476025045732900,0.57173291015625,0.016393500918149947,-0.04985051097050309,-0.3571712969753891
1761476025055768800,0.581768798828125,-0.03419277698099613,-0.05368994300290942,-0.4522372429942712
1761476025065804800,0.5918046875,-0.011373042407631873,-0.04701733337119222,-0.5328401081683114
1761476025075841800,0.601841796875,-0.07671732897758483,-0.019504764806479214,-0.5701643150428309
1761476025085877800,0.611877685546875,-0.13856091395020484,-0.011923369766771793,-0.5650590643256902
1761476025095913700,0.621913818359375,-0.10687456683218478,-0.023904607200622558,-0.5094388839125633
1761476025105949700,0.63194970703125,-0.09616495676934718,-0.04840469607636332,-0.4396764886394143
1761476025115987000,0.641987060546875,-0.09132686908841132,-0.04574745956584811,-0.3979588691115379
1761476025126023000,0.65202294921875,-0.027632103291153905,-0.029497166510671375,-0.36906014341805127
1761476025136059000,0.662058837890625,0.042494156858325,-0.03638341889306903,-0.2924111852352507
1761476025146094800,0.6720947265625,0.03605155659019947,-0.08444222414121032,-0.18905089186802507
1761476025156131800,0.6821318359375,-0.010026888495683669,-0.12018076925948261,-0.03983520331475884
1761476025166167800,0.692167724609375,-0.04114332677125931,-0.11762392438352107,0.09789415518213063
1761476025176208400,0.70220849609375,-0.09560089314579963,-0.055921355316787956,0.1615021560113877
1761476025186244600,0.71224462890625,0.03342822234928608,0.005295476059615611,0.1664472477307543
1761476025196281300,0.72228125,0.1722375581026077,0.01175268937498331,0.16825026029841975
1761476025206317300,0.7323173828125,0.19369418762922286,-0.023135668654739854,0.2234689472385682
1761476025216353500,0.742353515625,0.14640519770979882,-0.08522533734291791,0.32022593335062266
1761476025226389800,0.7523896484375,0.21720131994485853,-0.15744184776991604,0.42002793144807216
1761476025236426500,0.762426513671875,0.28749007717967034,-0.21122765236273408,0.5146940279617905
1761476025246462500,0.77246240234375,0.28861352825164793,-0.27691344584673644,0.6272592076510191
1761476025256498700,0.782498779296875,0.38214053773283957,-0.31223712655380365,0.7255234017219394
1761476025266534700,0.79253466796875,0.4283838179916143,-0.36445261308997867,0.8342057486284524
1761476025276571400,0.8025712890625,0.3877420110017061,-0.4407221983000636,0.9394015685934572
1761476025286607600,0.812607666015625,0.2593354113191366,-0.5214233362168074,1.004394703638181
1761476025296643600,0.8226435546875,0.2638227858662605,-0.5798422074377536,1.0634764957472682
1761476025306679600,0.832679443359375,0.3500526240766048,-0.6437441862449049,1.132063928956911
1761476025316716500,0.842716552734375,0.2861626279681921,-0.7476270239152014,1.2263330620422959
1761476025326752500,0.85275244140625,0.15934826591312884,-0.8811838459677994,1.3207815702825785
1761476025336788700,0.862788818359375,0.10672317566275596,-0.9939123995251953,1.3569769192576409
1761476025346824700,0.87282470703125,0.04679857605397701,-1.0764387070424855,1.383795368078351
1761476025356861700,0.88286181640625,0.0006172551155090331,-1.1097016558274626,1.4035057384595273
1761476025366897700,0.892897705078125,-0.03577390869259834,-1.142052165942639,1.3883859107390046
1761476025376933600,0.90293359375,-0.07202128011584281,-1.1790215680301188,1.3879007575705646
1761476025386969600,0.912969482421875,-0.11888649166524409,-1.2633290598757565,1.3990483206592499
1761476025397006600,0.923006591796875,-0.2574719555348158,-1.3303586691841482,1.4290616199985147
1761476025407042600,0.93304248046875,-0.30196751534342764,-1.3833321344807743,1.4197478482082486
1761476025417078500,0.94307861328125,-0.28024785096645355,-1.3624002594806253,1.3571063908562064
1761476025427114500,0.953114501953125,-0.28367373376190663,-1.3065676053605972,1.2746432117030024
1761476025437151500,0.9631513671875,-0.25565116984844205,-1.223265929556638,1.219901056233421
1761476025447187700,0.973187744140625,-0.27677169928848744,-1.1724572410784662,1.1481439800117164
1761476025457223700,0.9832236328125,-0.28331074566841125,-1.1556040136940777,1.0893664315462113
1761476025467259600,0.993259765625,-0.21054069301187991,-1.1532459062606095,1.069745200753212
1761476025477295600,1.003295654296875,-0.21971417954862116,-1.1657456146106122,1.0733207211524247
1761476025487332600,1.01333251953125,-0.24689094028770922,-1.1852253911063075,1.0620341879844666
1761476025497368600,1.02336865234375,-0.26230361347496506,-1.2077756610885262,0.9838636645238846
1761476025507404500,1.033404541015625,-0.1653898841649294,-1.2210264800667763,0.8924818503778428
1761476025517440500,1.0434404296875,-0.10925006379187106,-1.1886803538657724,0.8075485547840595
1761476025527477500,1.0534775390625,-0.12024667410254478,-1.1352123830504715,0.7514547655098139
1761476025537513500,1.063513427734375,-0.08123100700974464,-1.1044938580513,0.724103378856182
1761476025547549400,1.073549560546875,0.0024257658421993253,-1.0162694850228726,0.6535510022491217
1761476025557585400,1.08358544921875,0.03840075006484985,-0.8892349043458699,0.5390592384114861
1761476025567622700,1.09362255859375,-0.12200725403428077,-0.8048635534837841,0.5138359498277306
1761476025577658600,1.10365869140625,-0.399350031208992,-0.8643982769921421,0.6319649011239409
1761476025587694600,1.113694580078125,-0.6627683279275893,-1.0027753588080406,0.7599034449033438
1761476025597730600,1.12373046875,-0.7285755558341741,-1.004101785106212,0.6626809419050812
1761476025607767600,1.133767578125,-0.7073772849828004,-0.7791684096045791,0.39291897524818775
1761476025617803500,1.143803466796875,-0.9558575402885675,-0.48214331909939645,0.16889891519919037
1761476025627839500,1.153839599609375,-1.3469237272769212,-0.328079715590924,0.19719240500852464
1761476025637875500,1.16387548828125,-1.6133037964105605,-0.3181767457358539,0.3534121636375785
1761476025647912400,1.173912353515625,-1.6093746402680873,-0.34472163831219077,0.43567967408820985
1761476025657948400,1.183948486328125,-1.4298247133255004,-0.29345410015061496,0.4340370214477181
1761476025667984400,1.193984375,-1.214486264643073,-0.0933377705194056,0.38776130022406574
1761476025678020400,1.204020263671875,-1.0244061758577823,0.131238608238101,0.32253494094535706
1761476025688057600,1.2140576171875,-0.7722627218693494,0.26565789233893156,0.2939418836675584
1761476025698093600,1.224093505859375,-0.37704292233288283,0.2983015401817858,0.2594809572696686
1761476025708129500,1.234129638671875,-0.12708148855865,0.307313844807446,0.16157193331196903
1761476025718165800,1.244165771484375,-0.1286287180006504,0.2607942318253219,0.0253819862768054
1761476025728201700,1.25420166015625,-0.09096972621381283,0.166579532340914,-0.029947540626674887
1761476025738238500,1.264238525390625,-0.09593757775425911,0.10224120794311166,0.028061580749601123
1761476025748274700,1.274274658203125,-0.0819172357082367,0.14794336706250905,0.08942907264307141
1761476025758310700,1.284310546875,-0.06667465839087963,0.29675621043592687,0.01715790941938758
1761476025768346600,1.2943466796875,-0.11798106725811958,0.4039674618765712,-0.10244520608261228
1761476025778383600,1.304383544921875,-0.053011459219455714,0.43025750290900466,-0.2569331724829972
1761476025788419600,1.314419677734375,-0.03579553600251675,0.4171759030178189,-0.3900878434754908
1761476025798455600,1.32445556640625,0.017581833919882772,0.3993931396983564,-0.5123946649782359
1761476025808491500,1.334491455078125,0.07831424278020858,0.44003436216637487,-0.5874224334336817
1761476025818528800,1.34452880859375,0.15930091964006424,0.5511433516979217,-0.6123669050760567
1761476025828564700,1.354564697265625,0.27861411228477956,0.6541957298934459,-0.5667467251516878
1761476025838600700,1.3646005859375,0.26307752045691013,0.6837171540625393,-0.4929572663195431
1761476025848636700,1.37463671875,0.2269371165394783,0.5995161913312971,-0.4003403574205935
1761476025858673700,1.384673583984375,0.26683950333893297,0.5172768840618431,-0.31649200751930473
1761476025868709600,1.394709716796875,0.2688280468076467,0.4734242983318865,-0.336713834553957
1761476025878745600,1.40474560546875,0.14634849908649922,0.48889849244803185,-0.42996684939935803
1761476025888781600,1.414781494140625,0.2124754604667425,0.525891567672044,-0.508480852535367
1761476025898817500,1.424817626953125,0.2591173846542835,0.5218811629869043,-0.581508971606195
1761476025908854500,1.4348544921875,0.17739888638854026,0.509983950574696,-0.6415734180770815
1761476025918890500,1.444890380859375,0.04862812956869602,0.4610289271391928,-0.6836779910959303
1761476025928926500,1.454926513671875,0.010602058035135269,0.4200821458533406,-0.7068300263635814
1761476025938962400,1.46496240234375,-0.0011298808127641678,0.38647184493541714,-0.7463171103604137
1761476025948999700,1.474999755859375,-0.06416822852790355,0.37982144713550803,-0.7603323378399014
1761476025959035600,1.48503564453125,-0.07153320433795451,0.40289661777466534,-0.7734092615559697
1761476025969071600,1.495071533203125,-0.06351414853334426,0.42163361307904124,-0.8277491929002105
1761476025979107600,1.505107666015625,-0.12150573425292968,0.4221569063007831,-0.8964026040181517
1761476025989144600,1.51514453125,-0.1431342132151127,0.4539692178860307,-0.9275508987367153
1761476025999180500,1.5251806640625,-0.14996318245232104,0.49539004642441864,-0.8893357343718409
1761476026009216500,1.535216552734375,-0.15178338361680507,0.5153277958206832,-0.8599003810510039
1761476026019252500,1.54525244140625,-0.15196575444638727,0.5481856709361076,-0.8410311376690864
1761476026029289500,1.55528955078125,-0.10384732796549796,0.570787817236036,-0.8508245096698402
1761476026039325400,1.565325439453125,-0.1002858360916376,0.5821976845227181,-0.8543690504088998
1761476026049361400,1.575361328125,0.021046879681944845,0.596487783420831,-0.8216291025847197
1761476026059397400,1.5853974609375,0.21813421688079832,0.6243146786317229,-0.7555750603102147
1761476026069434600,1.5954345703125,0.3106581867992878,0.6717271488003432,-0.696504154921323
1761476026079470600,1.605470703125,0.33922903224527834,0.6736443805985153,-0.6306796836189925
1761476026089506600,1.615506591796875,0.38400866969227787,0.6255620483443141,-0.5131155265986919
1761476026099542500,1.62554248046875,0.4983189394831657,0.585935409746319,-0.3825342132255435
1761476026109579500,1.63557958984375,0.5206213721841574,0.5878980881214142,-0.34654783082604407
1761476026119615500,1.645615478515625,0.5336638091087341,0.597538607648015,-0.36860228011533613
1761476026129651500,1.6556513671875,0.4997428348064422,0.577137332393229,-0.40125615709125995
1761476026139687400,1.6656875,0.5075210675925016,0.5227291581183672,-0.38540786896571516
1761476026149724400,1.675724365234375,0.7021569199860096,0.492690724337846,-0.3302722571991384
1761476026159760400,1.685760498046875,0.7717062570303678,0.49620413928627966,-0.26347280338481066
1761476026169796400,1.69579638671875,0.7211123803466558,0.46804976568669077,-0.1783133708849549
1761476026179832300,1.705832275390625,0.7322101129442453,0.4177192161142826,-0.0972350702188909
1761476026189868300,1.715868408203125,0.7316355279266834,0.33385201538205145,-0.0534717702075839
1761476026199905300,1.7259052734375,0.6944546750456094,0.2533411393404007,-0.029634675285220145
1761476026209941500,1.73594140625,0.7029781732410192,0.19832725425735115,0.01276478902697563
1761476026219977500,1.7459775390625,0.6856815860033035,0.19147797288447618,0.02282908692359924
1761476026230013400,1.756013427734375,0.6646271075367927,0.21608882865831255,-0.0420735933586955
1761476026240050400,1.766050537109375,0.6186123753368854,0.22860797236114738,-0.12350056133195757
1761476026250086400,1.77608642578125,0.6201911689609289,0.20273484156653285,-0.14166136418357492
1761476026260122400,1.786122314453125,0.6242869138419628,0.18149273157343268,-0.12885054405778645
1761476026270158300,1.796158447265625,0.5975836158335208,0.18837518456354735,-0.06961231927797198
1761476026280195300,1.8061953125,0.47577451471984383,0.1618456356868148,0.04622632912397384
1761476026290231300,1.816231201171875,0.3488724743813276,0.10718801669552921,0.13717223607078194
1761476026300267300,1.826267333984375,0.40845337511897084,0.03394976200535893,0.1773964021705091
1761476026310303200,1.83630322265625,0.4293856885105371,-0.027618659287691114,0.17969547289311885
1761476026320340500,1.846340576171875,0.3472656237065792,-0.1037618416391313,0.18596973085701465
1761476026330376400,1.85637646484375,0.3125274878025055,-0.19842238519489763,0.21609482000768182
1761476026340412400,1.866412353515625,0.34491467666625975,-0.2633493231356144,0.283237534301728
1761476026350448400,1.876448486328125,0.40147418375611305,-0.28550898636505007,0.3582305237047374
1761476026360485400,1.8864853515625,0.44245150631070135,-0.30304961149170995,0.4309733960933983
1761476026370521300,1.896521240234375,0.5397282237142325,-0.3461471410706639,0.5090511997692286
1761476026380557300,1.906557373046875,0.5882441250801086,-0.4095345944844186,0.5628117237903177
1761476026390593300,1.91659326171875,0.6290712255090475,-0.4851137132123112,0.5307146039143205
1761476026400630300,1.92663037109375,0.7793950579673051,-0.5439983022488654,0.4804783084966242
1761476026410666200,1.936666259765625,0.8884288486599922,-0.577725799805671,0.45470293898805975
1761476026420702200,1.9467021484375,0.9126596190750599,-0.5938897297516464,0.4921384972825646
1761476026430738200,1.95673828125,0.9111199884176254,-0.5944662144653499,0.5312899195842444
1761476026440774100,1.966774169921875,0.9484446336835622,-0.5990116028100252,0.5581323338024318
1761476026450811400,1.976811279296875,1.0178963555723428,-0.6078988197512925,0.5949135198414325
1761476026460847400,1.986847412109375,1.071167927032709,-0.6142088796809315,0.6364341554924845
1761476026470883300,1.99688330078125,1.0850409695625305,-0.6370772757016122,0.696963004604727
1761476026480919300,2.006919189453125,1.0274562110781669,-0.6872384600564837,0.7448163504086435
1761476026490956300,2.016956298828125,0.9346130922079086,-0.7486250950418413,0.8061207139380275
1761476026500992300,2.0269921875,0.8265934469938278,-0.8142547744244336,0.8591447403781115
1761476026511028200,2.0370283203125,0.8337842352807522,-0.8425411038406193,0.9124920074231923
1761476026521064200,2.047064208984375,0.8495189800292253,-0.830790168031305,0.9111977298289536
1761476026531101200,2.05710107421875,0.8135469184160232,-0.8054743788585066,0.9225658038005232
1761476026541137200,2.06713720703125,0.8075602452218532,-0.8204517293684184,0.9677649818338453
1761476026551173000,2.077173095703125,0.8533627959758043,-0.8421803077042103,1.0366814278021454
1761476026561209000,2.087208984375,0.9070032007485628,-0.8887591035276651,1.0787702187299728
1761476026571246300,2.097246337890625,0.9727741882979869,-0.9169396344818175,1.0971825121246277
1761476026581282300,2.1072822265625,1.0133294860482216,-0.9220536164946853,1.0947728206343947
1761476026591318300,2.117318359375,1.023834513449669,-0.9116169781543314,1.1011547767564653
1761476026601354200,2.127354248046875,0.9898790523558855,-0.8858867629617452,1.0905606097668408
1761476026611391200,2.13739111328125,0.9291706088930368,-0.9117093326129019,1.092555144584924
1761476026621427200,2.14742724609375,0.7546154214978218,-0.983850293585658,1.1366980915635823
1761476026631463200,2.157463134765625,0.5586375068455934,-1.0558952468380332,1.1276514462769032
1761476026641499400,2.16749951171875,0.47314124360680576,-1.0901549515753983,1.066395598064363
1761476026651536100,2.1775361328125,0.36459962034523485,-1.0912842478662728,0.9608533027492463
1761476026661572000,2.187572021484375,0.21339315983355045,-1.1240842553146182,0.8408512510575353
1761476026671608300,2.1976083984375,0.08391162439584732,-1.1606989987455307,0.7766672404386102
1761476026681644300,2.207644287109375,-0.07360708800256252,-1.2159357327990232,0.7929534815900027
1761476026691681300,2.217681396484375,-0.2400648936599493,-1.282380674087256,0.8238318733260035
1761476026701717500,2.227717529296875,-0.3787333596378565,-1.3187442192360759,0.8667964241750538
1761476026711753500,2.23775341796875,-0.386800346237421,-1.3075652380958198,0.8247089484214782
1761476026721789400,2.24778955078125,-0.3666723349660635,-1.2716584968037903,0.7016410794183612
1761476026731825400,2.257825439453125,-0.38118425992131233,-1.2198587514616548,0.5785584512375295
1761476026741862400,2.2678623046875,-0.39514205812513825,-1.1587332516305149,0.5077333951689302
1761476026751898400,2.2778984375,-0.257947171831131,-0.9727999072611332,0.3229308083951473
1761476026761934300,2.287934326171875,-0.11879822885990142,-0.6503735412567854,0.05028013455942273
1761476026771970300,2.29797021484375,-0.15011106649041175,-0.3880808875672519,-0.10354220753908157
1761476026782007300,2.30800732421875,-0.2682090381264686,-0.3559747076019645,-0.12694953274205326
1761476026792043300,2.318043212890625,-0.4494184227138757,-0.5546794168695807,-0.10122501663789152
1761476026802079200,2.328079345703125,-0.5474567721396685,-0.7614179411195218,-0.07103387651368975
1761476026812115200,2.338115234375,-0.6716863783985376,-0.8680895327255129,-0.015410481230169533
1761476026822152400,2.34815234375,-0.9021353024512528,-0.8907669362187385,0.05505436322391033
1761476026832188400,2.3581884765625,-1.2462182044684886,-0.9060476535893977,0.12471461329683661
1761476026842224400,2.368224365234375,-1.5469038633078336,-0.9821781225897371,0.16990590028464794
1761476026852260400,2.37826025390625,-1.6299813749670982,-1.014884022013843,0.17755612277686594
1761476026862297300,2.38829736328125,-1.6226228288978337,-0.878221927422285,0.11547332222089171
1761476026872333300,2.398333251953125,-1.5564643033355474,-0.5816121397197246,-0.05357888384386897
1761476026882369300,2.408369384765625,-1.5231699364989995,-0.31406521876379845,-0.12817951292842625
1761476026892405200,2.4184052734375,-1.3992548030167817,-0.07806421354189515,-0.1628632882967591
1761476026902442200,2.428442138671875,-1.2978180433243511,0.0782961226016283,-0.18680866589918732
1761476026912478200,2.438478271484375,-1.2212491829067469,0.183939978595078,-0.18756342978924512
1761476026922514200,2.44851416015625,-1.0283581283539533,0.22586831826418638,-0.22333500039428472
1761476026932550100,2.458550048828125,-0.8248217611461878,0.22548194929510354,-0.2713226401023567
1761476026942587400,2.46858740234375,-0.7036164711445569,0.23113749083876609,-0.245984931358695
1761476026952623400,2.478623291015625,-0.5505500619798899,0.29381109689474105,-0.2240362805314362
1761476026962659300,2.488659423828125,-0.4060895685970783,0.393996541351825,-0.23226006512790917
1761476026972695300,2.4986953125,-0.25231062724888326,0.5173403046868741,-0.25169702539518474
1761476026982732300,2.508732177734375,-0.10375555802881717,0.6197415254972874,-0.30074433022402225
1761476026992768300,2.518768310546875,0.08746376391947269,0.6820860457293689,-0.32260208789743483
1761476027002804200,2.52880419921875,0.2125800898849964,0.7551143109306693,-0.31817981447577476
1761476027012840200,2.538840087890625,0.2571668351083994,0.7975929779589176,-0.3029631022520363
1761476027022877200,2.548877197265625,0.30407120962440964,0.8073379807732999,-0.264534806593135
1761476027032913200,2.5589130859375,0.29551380915939807,0.8085811127021908,-0.20815116752684115
1761476027042949000,2.56894921875,0.2709434315264225,0.8151179671250284,-0.2186653280828148
1761476027052985000,2.578985107421875,0.2315034015417099,0.8177149978809058,-0.2502124859258532
1761476027063022300,2.589022216796875,0.15551906301379204,0.8252489005170762,-0.2775499171193689
1761476027073058300,2.599058349609375,0.04587444694638252,0.8407374154195189,-0.2923926083989441
1761476027083094300,2.60909423828125,-0.05192249493896961,0.8926341913953423,-0.32720782812722027
1761476027093130200,2.619130126953125,-0.08422317456305027,0.967624842710793,-0.3911364026803523
1761476027103166500,2.62916650390625,-0.21283552595078944,1.0451713159888982,-0.432093413099274
1761476027113203200,2.639203125,-0.29319150369167324,1.0797332185432313,-0.4362546244319528
1761476027123239200,2.6492392578125,-0.26364976738691326,1.060467523189634,-0.35297472206838426
1761476027133275400,2.659275390625,-0.26805472434759137,1.0239332976490259,-0.2614615366276353
1761476027143311400,2.669311279296875,-0.2868149543970823,0.9993651119731366,-0.20324352174103258
1761476027153348000,2.67934814453125,-0.2501134094655514,0.9738640293613076,-0.13919548552669583
1761476027163384300,2.68938427734375,-0.19967150847315787,0.9278172945879399,-0.05144947059974074
1761476027173415700,2.699415771484375,-0.23758009110689163,0.844032657572627,0.06086933311298489
1761476027183451600,2.70945166015625,-0.2965244475066662,0.7761823795311152,0.13641886042021215
1761476027193488600,2.719488525390625,-0.4248492141246795,0.7283778413049876,0.16935601131692526
1761476027203524600,2.729524658203125,-0.5041612357705831,0.7108472991809248,0.15257131912410257
1761476027213560600,2.739560546875,-0.47050329631865023,0.6952329659417271,0.14953341273292897
1761476027223596500,2.749596435546875,-0.5303472319066524,0.7002014020040631,0.20999562634974717
1761476027233633500,2.759633544921875,-0.6158060857445001,0.7019932538568973,0.1910346860963851
1761476027243669500,2.76966943359375,-0.6152987207442522,0.6698765524975955,0.20226795470714568
1761476027253705500,2.77970556640625,-0.5998983225166797,0.5791176925554872,0.23047895386479794
1761476027263741400,2.789741455078125,-0.6588140373438597,0.48932694699317214,0.25437735052034255
1761476027273778400,2.7997783203125,-0.6652443626523018,0.41155002596005796,0.24825265709497032
1761476027283814400,2.809814453125,-0.6227671569287777,0.366450362778455,0.21189137696847318
1761476027293850600,2.8198505859375,-0.6308487565755844,0.3316016061067581,0.17389628509506583
1761476027303886600,2.829886474609375,-0.719213268727064,0.24552681232765317,0.13809936085306107
1761476027313923600,2.839923583984375,-0.754033237695694,0.11658829772546887,0.09851151989549398
1761476027323959600,2.84995947265625,-0.6637801353186369,0.03697641635015607,0.02515299982652068
1761476027333995500,2.85999560546875,-0.5293500375628472,0.02220554819777608,-0.07121741638705134
1761476027344031500,2.870031494140625,-0.43073359598815436,0.0033285599008202552,-0.16356544521674513
1761476027354068500,2.880068359375,-0.3209568779736757,-0.007991144884377717,-0.20749971788078544
1761476027364104400,2.8901044921875,-0.15795768833756446,-0.03590338029116392,-0.1857324149698019
1761476027374140400,2.900140380859375,0.05749415759146213,-0.017799129932373762,-0.1318355512179434
1761476027384176400,2.91017626953125,0.19995500158965587,0.021231588599085808,-0.10761749415397644
1761476027394213400,2.92021337890625,0.2919914802521467,0.014107728068530558,-0.050019876188039776
1761476027404249300,2.930249267578125,0.405092374253273,-0.019681582678109405,0.04532046632543206
1761476027414285600,2.94028564453125,0.5859329255282879,-0.03771086810454726,0.0876502264022827
1761476027424321500,2.950321533203125,0.6620178018212318,-0.03783025670051574,0.07082301024198531
1761476027434358500,2.960358642578125,0.6499614533245563,-0.034328239928931,0.0453686893813312
1761476027444394500,2.97039453125,0.7044862397164106,-0.045665480370819564,0.019575930346548556
1761476027454430500,2.980430419921875,0.7643827822744846,-0.019792495706677436,0.008510054191946982
1761476027464466700,2.990466796875,0.813491388836503,0.03925225232765078,0.01002250458151102
1761476027474503400,3.00050341796875,0.844405582538247,0.07818827831298113,0.02393573299124837
1761476027484539400,3.010539306640625,0.8417588674217462,0.09295929259583353,0.04726882391422987
1761476027494575600,3.02057568359375,0.7989245188236236,0.07011193936318158,0.0991401731878519
1761476027504611600,3.030611572265625,0.7116565697371959,0.01897007340788841,0.14449687987044452
1761476027514648300,3.0406484375,0.6783546041160822,-0.0026185119353234767,0.12815598592236638
1761476027524684500,3.0506845703125,0.6773112325429916,0.011430033291876316,0.09088058662563561
1761476027534720800,3.060720703125,0.6325304260522127,0.04915229957327246,0.08750789532214402
1761476027544756700,3.0707568359375,0.5343792639017105,0.042696985954046245,0.09708616326749324
1761476027554793500,3.08079345703125,0.4771890576928854,0.03811243464276194,0.11625059020370244
1761476027564829700,3.09082958984375,0.5197387441307306,0.05297901825457811,0.10438859523534774
1761476027574865700,3.10086572265625,0.5196791228979826,0.05884893320128321,0.0986230174459517
1761476027584901600,3.110901611328125,0.48935412726104255,0.018125439277291298,0.1041311133429408
1761476027594938600,3.120938720703125,0.4534013548702001,-0.04422463391274214,0.1369227913543582
1761476027604974600,3.130974609375,0.4716442830473184,-0.10643018406555056,0.1543430049717426
1761476027615010600,3.141010498046875,0.4846253451734781,-0.1535483474627137,0.14215236257091163
1761476027625046500,3.151046630859375,0.4687947388350963,-0.1870123717777431,0.1188088963843882
1761476027635083500,3.16108349609375,0.5742126771181821,-0.17102876683473586,0.09452829547822475
1761476027645119500,3.171119384765625,0.6688947018533945,-0.1702817478597164,0.08082257233932613
1761476027655155700,3.18115576171875,0.6453098281264305,-0.1944998049236834,0.1172264494985342
1761476027665191700,3.191191650390625,0.5956669685572386,-0.2436125031389296,0.17871449903175235
1761476027675228700,3.201228759765625,0.6109259124875068,-0.2967825139209628,0.20991379328519105
1761476027685264600,3.2112646484375,0.5796259343385696,-0.35238808128684757,0.23801775187179444
1761476027695300600,3.221300537109375,0.4917570967495441,-0.4162592265643179,0.2958352961987257
1761476027705336600,3.231336669921875,0.3858393922507763,-0.4684824580155313,0.3383930198125541
1761476027715373600,3.24137353515625,0.3464847024619579,-0.4870461425796151,0.3530632040694356
1761476027725409500,3.251409423828125,0.3258236072272062,-0.4805006664589047,0.32319501228928565
1761476027735445500,3.261445556640625,0.258495453363657,-0.484477315004915,0.27198782601282
1761476027745481500,3.2714814453125,0.17103870370686053,-0.5210619555585086,0.2670562148295343
1761476027755518500,3.2815185546875,0.10473521671593189,-0.6042414662875235,0.29329160306528207
1761476027765554400,3.291554443359375,0.05923252569139004,-0.7025263378202915,0.3693997141033411
1761476027775590700,3.301590576171875,-0.037355040404200554,-0.767119806022942,0.4521574922889471
1761476027785626600,3.311626708984375,-0.029893033960461616,-0.8056259161584078,0.4844761459611356
1761476027795663600,3.32166357421875,-0.02049509101808071,-0.7984343972191215,0.46572526826187965
1761476027805699600,3.331699462890625,-0.07132219193577766,-0.7004929322965443,0.4027997332714498
1761476027815735600,3.341735595703125,-0.13965280084013937,-0.4953150814920664,0.2818262061990797
1761476027825771500,3.351771484375,-0.34085751022994515,-0.30626462801545856,0.2462825991310179
1761476027835808500,3.36180859375,-0.6067471654981375,-0.22889204999953508,0.2163815279945731
1761476027845844500,3.371844482421875,-0.862335791504383,-0.3078390377253294,0.06674597006142138
1761476027855880400,3.38188037109375,-1.0674117893695831,-0.3932186888471246,-0.04375014826878905
1761476027865916400,3.39191650390625,-1.346446757414937,-0.4492426277555525,-0.08490238899886608
1761476027875953400,3.401953369140625,-1.7348019318789243,-0.5279983306929469,0.06112564596161246
1761476027885989400,3.4119892578125,-2.051242209210992,-0.5897855093032122,0.2483678809724748
1761476027896025600,3.422025634765625,-2.126440950319171,-0.6097384562686086,0.365852543015778
1761476027906061600,3.4320615234375,-1.9623434440523384,-0.4872948566436767,0.3755874628275633
1761476027916098600,3.4420986328125,-1.7391063510745763,-0.24896146295145152,0.32631796661540863
1761476027926134500,3.452134521484375,-1.5440087263882158,-0.03860518659576773,0.2890453437976539
1761476027936170500,3.46217041015625,-1.464206875398755,0.030907179439067838,0.30566037851199507
1761476027946206500,3.47220654296875,-1.434053729197383,-0.030440877101570365,0.32005247647985813
1761476027956243500,3.482243408203125,-1.2935539561390876,-0.041578064926713704,0.2363872280605137
1761476027966279400,3.492279541015625,-1.1542162125974893,0.039032033705711365,0.0495657026797533
1761476027976315400,3.5023154296875,-1.0902981594383716,0.13014262969493864,-0.17581629337221383
1761476027986351600,3.5123515625,-0.9071429014801978,0.19991452344879507,-0.4277309070408344
1761476027996388400,3.522388427734375,-0.6815647983342409,0.252206582352519,-0.626347353503108
1761476028006424300,3.53242431640625,-0.6041209086477756,0.28582535883784294,-0.6638606532089412
1761476028016460500,3.54246044921875,-0.56836044395864,0.27832316651418804,-0.6796148333102464
1761476028026496800,3.552496826171875,-0.4331599463522434,0.2794368268445134,-0.7088852053277194
1761476028036533500,3.562533447265625,-0.2749859849154949,0.30912820075303316,-0.7274209789715707
1761476028046569500,3.572569580078125,-0.19356325472593305,0.3085961397029459,-0.6697704617746174
1761476028056605700,3.582605712890625,-0.09340484440624713,0.27895284271985293,-0.5543148213408887
1761476028066641700,3.5926416015625,-0.013425298762321472,0.2767418886721134,-0.49742608229666946
1761476028076678400,3.602678466796875,0.06580781242847442,0.28820874684304,-0.47680941072553396
1761476028086714600,3.612714599609375,0.4516629867702722,0.4036028663478792,-0.5733876244708895
1761476028096750600,3.62275048828125,0.56343701608181,0.4584548388674855,-0.6298747969768941
1761476028106786600,3.63278662109375,0.6133429105013608,0.5257675029009581,-0.6367218863926828
1761476028116823600,3.642823486328125,0.6883353153824806,0.5446607116803527,-0.6411974243715405
1761476028126859500,3.652859619140625,0.7092500931173562,0.531384027608484,-0.6063153499521314
1761476028136895700,3.662895751953125,0.7619038249403238,0.4934909348048269,-0.5370647035934031
1761476028146931700,3.672931640625,0.8144453285604715,0.4425564279899001,-0.45445393266305323
1761476028156968700,3.68296875,0.8283230472654104,0.42162835238203406,-0.3792756498210132
1761476028167004700,3.693004638671875,0.8297007653594016,0.4704769928336143,-0.36771731397435065
1761476028177044700,3.703044677734375,0.8627537246555089,0.5578052938051521,-0.4178568710193038
1761476028187080700,3.713080810546875,0.9832038123756647,0.667700962024182,-0.4968000593528151
1761476028197117700,3.72311767578125,1.073245902350545,0.7835724897824228,-0.5684411079794168
1761476028207154000,3.73315380859375,1.0337100107759236,0.8812821917757392,-0.6226843009509145
1761476028217190000,3.74318994140625,1.0144295562446117,0.9766399238154292,-0.628277737043798
1761476028227226600,3.7532265625,1.0932879889041185,1.0408137053012847,-0.5856289741456508
1761476028237262800,3.763262939453125,1.0270067137449979,1.0624746252283452,-0.5716492563709616
1761476028247298800,3.773298828125,0.8889958348929882,1.0650906529456377,-0.5702404124863445
1761476028257334800,3.783334716796875,0.8263233978807926,1.101945927134156,-0.6062317633219063
1761476028267371800,3.793371826171875,0.7905021429151297,1.2066098321795462,-0.664801879581809
1761476028277407700,3.80340771484375,0.6704805097401142,1.2979241340473293,-0.7016931018665432
1761476028287443700,3.813443603515625,0.5208090037107468,1.3275076636672019,-0.7036522731103002
1761476028297479700,3.823479736328125,0.3943108679980039,1.3348337687715888,-0.6848965731054544
1761476028307517000,3.833516845703125,0.4505933117121458,1.3037047632753849,-0.6883592807799578
1761476028317553000,3.843552978515625,0.5703279446393251,1.2458555086359382,-0.6648471800282597
1761476028327588900,3.8535888671875,0.5973696808218956,1.175394025182724,-0.5896767882317304
1761476028337624800,3.863624755859375,0.560014640417695,1.0856880352944136,-0.5097802446961403
1761476028347661800,3.873661865234375,0.6080260993927716,0.9810369897305965,-0.4518842283055186
1761476028357697800,3.88369775390625,0.6722422587156296,0.8707216347947716,-0.413321711807698
1761476028367733800,3.893733642578125,0.6965998703807592,0.7445128374174237,-0.37675811404213305
1761476028377769700,3.903769775390625,0.7183142740607261,0.6471990028738975,-0.3556536589540541
1761476028387806700,3.913806640625,0.6888163768976926,0.5752282839015126,-0.37602570811435576
1761476028397842700,3.9238427734375,0.7378922502338886,0.5156248790711164,-0.4206052929446101
1761476028407878700,3.933878662109375,0.8003641962379217,0.4271989921212196,-0.45112844150215387
1761476028417914600,3.94391455078125,0.8440764967143535,0.31017654076218604,-0.48440088876783843
1761476028427951900,3.953951904296875,0.8580307877868414,0.22746757015436886,-0.4559869874492287
1761476028437987800,3.96398779296875,0.8821230265140533,0.1691495289593935,-0.41718379406332967
1761476028448023800,3.97402392578125,0.9213596428811549,0.10689473283737898,-0.3768158355787396
1761476028458060800,3.984060791015625,0.9329325917750596,0.03032061172276735,-0.39472149462550876
1761476028468096800,3.9940966796875,0.8714496568083763,-0.037836686441302295,-0.4256410951547324
1761476028478132700,4.0041328125,0.7310942606568336,-0.03902998787909746,-0.40803368840217585
1761476028488168700,4.014168701171875,0.5868050321877002,-0.0148161685988307,-0.4009121659591794
1761476028498200600,4.02420068359375,0.4562006301999092,-0.06965016707032919,-0.3550323121853173
1761476028508236500,4.034236572265625,0.3056774757772684,-0.16933292270228265,-0.25353753869533535
1761476028518273500,4.0442734375,0.11433598875403403,-0.3092262543000281,-0.1682774222999811
1761476028528309800,4.054309814453125,0.07233984454572201,-0.37794527800008654,-0.06541764406710862
1761476028538345700,4.064345703125,0.0676776979535818,-0.34602161499485373,0.00670505059659481
1761476028548381700,4.074381591796875,0.038697687184810634,-0.28282237762957807,0.007085720477253198
1761476028558418700,4.084418701171875,0.04603869759738445,-0.26181802191510795,0.057915451743453736
1761476028568454700,4.09445458984375,0.053075172105431556,-0.3150480923213064,0.12690437842607497
1761476028578490600,4.10449072265625,0.06441255867779254,-0.3940479792781174,0.13907003251612185
1761476028588526800,4.11452685546875,0.11366145049333572,-0.4896015261508524,0.1765033988535404
1761476028598563600,4.1245634765625,0.22732757716178892,-0.5360862139500677,0.25996830239519475
1761476028608599600,4.134599609375,0.31637247279286385,-0.5155446534417569,0.2917855824165046
1761476028618635800,4.1446357421875,0.3863222073316574,-0.4717500815093517,0.282137171844393
1761476028628671700,4.154671630859375,0.4578735318481922,-0.4486676043465733,0.2934899021163583
1761476028638708500,4.16470849609375,0.5082394449949265,-0.4794209083981812,0.28493454747796054
1761476028648744700,4.17474462890625,0.528046553748846,-0.516077006752789,0.24960107602924106
1761476028658781000,4.184781005859375,0.538375055539608,-0.5281326245971024,0.2378613922663033
1761476028668817000,4.19481689453125,0.5136088630735874,-0.510934237036854,0.261322785744071
1761476028678853600,4.204853515625,0.46022214080095286,-0.48021527364626526,0.28158962096422907
1761476028688889900,4.214889892578125,0.3347428267419338,-0.4727661266840994,0.2826784391142428
1761476028698925800,4.22492578125,0.2226315283000469,-0.48219051924198864,0.287964416693151
1761476028708961800,4.2349619140625,0.0785229170948267,-0.5007704242885113,0.30246976577714085
1761476028718998800,4.244998779296875,-0.08465688980519771,-0.5644710353046656,0.3318963512696326
1761476028729034800,4.25503466796875,-0.17074118206501007,-0.6464473077237606,0.38694983771070834
1761476028739070700,4.26507080078125,-0.22518705800175665,-0.7217917409129441,0.4568834978975355
1761476028749107700,4.275107666015625,-0.253027251085639,-0.7748509847968816,0.5104517142169177
1761476028759143700,4.285143798828125,-0.19661387446820736,-0.8090167276404797,0.5109862594850361
1761476028769180000,4.295179931640625,-0.11152326942086219,-0.7844801061466335,0.4940129128523171
1761476028779216000,4.3052158203125,-0.009791910696029662,-0.7472153743743896,0.49149216220304365
1761476028789252900,4.3152529296875,0.09430617716014385,-0.7465884746477007,0.5176227748900651
1761476028799288800,4.325288818359375,0.18051847971379756,-0.7841619801081716,0.5376107931688427
1761476028809324800,4.33532470703125,0.2602431738138199,-0.8138108300492167,0.5395834084160626
1761476028819360800,4.34536083984375,0.3073509619474411,-0.8244898988433181,0.5397255933657288
1761476028829397800,4.355397705078125,0.3518628883689642,-0.8318100125983356,0.5193059056714177
1761476028839433700,4.365433837890625,0.37846272600293157,-0.82692969321087,0.49839405054599045
1761476028849469700,4.3754697265625,0.4174304623007774,-0.8092530206143855,0.4799591069281101
1761476028859505700,4.385505615234375,0.38742052396237847,-0.7462099967241287,0.4328954501971602
1761476028869542700,4.395542724609375,0.392199574932456,-0.6742020144812763,0.4156286735758185
1761476028879579000,4.405578857421875,0.4230570700109005,-0.6359529478468,0.4075330454036593
1761476028889614800,4.41561474609375,0.49941082637310025,-0.5578869807392358,0.3941831499651074
1761476028899650800,4.42565087890625,0.5337205077320337,-0.4914459849737584,0.3634441666997969
1761476028909687800,4.435687744140625,0.5619195972561836,-0.4759058860145509,0.3240641963392496
1761476028919723800,4.445723876953125,0.5476227763563394,-0.5543080993391573,0.3345700274582952
1761476028929759700,4.455759765625,0.505666379636526,-0.645364773184061,0.37631789599396287
1761476028939795700,4.465795654296875,0.47835050268769264,-0.6961351754784584,0.4371317725926637
1761476028949832700,4.475832763671875,0.4102244764447212,-0.7063949959471821,0.47191922753117976
1761476028959868700,4.48586865234375,0.3541267416477203,-0.680255469301343,0.46342305573411285
1761476028969904600,4.495904541015625,0.30779286049604415,-0.6872206321388483,0.43869456492997705
1761476028979940600,4.505940673828125,0.2756429875195026,-0.7098422137916087,0.4000839715067297
1761476028989977600,4.5159775390625,0.2507037765741348,-0.6634625938020646,0.33814152926951646
1761476029000013800,4.526013916015625,0.24225801979005335,-0.4880054891310632,0.17359211451672016
1761476029010049800,4.5360498046875,0.29981589026749134,-0.27244097660779953,0.047987128251418466
1761476029020085800,4.546085693359375,0.17245967642068863,-0.19445713482573626,0.06526749500669539
1761476029030122800,4.556122802734375,-0.15274726021289825,-0.3418427218750119,0.19791224371567367
1761476029040158700,4.56615869140625,-0.33054011435508723,-0.5592502319164574,0.24117183198854325
1761476029050194700,4.576194580078125,-0.4668324988514185,-0.6902960940614342,0.19893354958742857
1761476029060230700,4.586230712890625,-0.720296972310543,-0.6888618234746158,0.14386713059954345
1761476029070267600,4.596267578125,-1.0288859516203404,-0.6816659206211566,0.1720239884171635
1761476029080303600,4.6063037109375,-1.2331611544966696,-0.7416675309889018,0.18322496219351886
1761476029090342000,4.616341796875,-1.3714748156875372,-0.7855081340201199,0.20520371589809655
1761476029100377900,4.6263779296875,-1.4402671968847511,-0.7462200797267258,0.14349310965538023
1761476029110413800,4.636413818359375,-1.4032389042168856,-0.6445983188562094,0.04598587143160403
1761476029120450800,4.646450927734375,-1.1914584402769803,-0.4995394211888313,-0.01831131723821163
1761476029130486800,4.65648681640625,-0.9464724568277597,-0.32135552190244193,-0.05449702160209417
1761476029140522800,4.666522705078125,-0.6867687967181205,-0.12506269608214496,-0.0405134313698858
1761476029150558700,4.676558837890625,-0.4068395101815462,0.05273030419051647,-0.022744038988649844
1761476029160595700,4.686595703125,-0.155576930680871,0.145337130086869,-0.0449750869538635
1761476029170631700,4.696631591796875,0.055365913391113276,0.1829546208195388,-0.07125913663692772
1761476029180663800,4.706663818359375,0.18826456379592418,0.17567820007577536,-0.061813883954100306
1761476029190699800,4.71669970703125,0.22411504485607145,0.1653717639863491,-0.03067954469565302
1761476029200737000,4.726737060546875,0.18888941769599912,0.22983473767712712,-0.05131919528357684
1761476029210773000,4.73677294921875,0.18725860162377356,0.38962095661610363,-0.14054985927771776
1761476029220809000,4.74680908203125,0.19942074858248232,0.5616894417621195,-0.26006284881085157
1761476029230845000,4.756844970703125,0.08408931905031204,0.6390170115925371,-0.34021742222812024
1761476029240882000,4.7668818359375,-0.09284253434836864,0.587267973524332,-0.374879679884389
1761476029250918000,4.77691796875,-0.24818740983903406,0.484377507892251,-0.4210225685086101
1761476029260953900,4.786953857421875,-0.38270284779071806,0.46743192604929207,-0.5149706894787028
1761476029270989800,4.79698974609375,-0.47817514612078665,0.5038784733064472,-0.6387214627120643
1761476029281026800,4.80702685546875,-0.5271335305571556,0.5862919680990278,-0.7521369025550783
1761476029291062800,4.817062744140625,-0.6584270838528871,0.6434709222614765,-0.8002310713775456
1761476029301098800,4.8270986328125,-0.7876572748780251,0.6786503721922635,-0.8432460372395812
1761476029311134700,4.837134765625,-0.8415221360564231,0.7704258618310094,-0.928495559175685
1761476029321172000,4.847171875,-0.8541635909646749,0.8739515566267073,-1.042031629723683
1761476029331208000,4.8572080078125,-0.7438964590847492,0.9080205610975622,-1.15083460733518
1761476029341244000,4.867243896484375,-0.5036263982415199,0.9189727477446198,-1.2005625148393213
1761476029351279900,4.87727978515625,-0.4488514364808798,0.9446044709987937,-1.2209313491292297
1761476029361316900,4.88731689453125,-0.41039574135839935,0.959622884171456,-1.2012599225189535
1761476029371352800,4.897352783203125,-0.2903606641799211,0.9048781714186072,-1.1459192896995694
1761476029381388800,4.907388916015625,-0.14519582192003727,0.8276805115781724,-1.1066658683281392
1761476029391424800,4.9174248046875,-0.04076631015241146,0.7966293936237693,-1.0941859606571496
1761476029401461800,4.927461669921875,0.0064963762819767,0.7784313275016844,-1.0798671471212058
1761476029411497700,4.937497802734375,-0.0011684592574834824,0.7748182515710592,-1.015108551484719
1761476029421533700,4.94753369140625,-0.0008504793494939803,0.7364495040796697,-0.9666898999482393
1761476029431570000,4.95756982421875,0.033626959791779515,0.6742214498341084,-0.9516615499034523
1761476029441607000,4.96760693359375,0.029638182416558263,0.6255960967443883,-0.972259224513173
1761476029451643000,4.977642822265625,-0.004423077139258384,0.6106839204251766,-1.0089433068532496
1761476029461679000,4.98767919921875,0.07049743154942989,0.6454848924323916,-1.0492219065539539
1761476029471715800,4.9977158203125,0.13129764494895935,0.7203932722918689,-1.0606894223120062
1761476029481751800,5.007751708984375,0.04671206681430339,0.7591649014957249,-1.026883014300093
1761476029491788000,5.0177880859375,-0.07643442038297653,0.7214118016846478,-0.9160797297168523
1761476029501824000,5.027823974609375,-0.17290800471007822,0.6436439407408238,-0.7803028935272246
1761476029511860700,5.03786083984375,-0.2873462847948074,0.5625767459906638,-0.7377825793143361
1761476029521897000,5.04789697265625,-0.49279111597239966,0.4802199498213827,-0.7524493295051157
1761476029531933000,5.057932861328125,-0.6930465618133544,0.39165991509780285,-0.793445356760174
1761476029541969000,5.067968994140625,-0.792853089955449,0.3365330711595714,-0.863557442253828
1761476029552006000,5.078005859375,-0.9712193600714206,0.36727278507724404,-0.9168763599872588
1761476029562042000,5.0880419921875,-1.0807768823772668,0.43018809093460436,-0.968293389622122
1761476029572078000,5.098078125,-0.9704822779685258,0.4617763845056295,-0.9951401146892458
1761476029582114000,5.108114013671875,-0.9513801026135682,0.49206864691674707,-0.9724815620269626
1761476029592151000,5.118151123046875,-0.9997925436049699,0.4716128649957478,-0.8787133642010391
1761476029602187000,5.12818701171875,-0.9611480479121207,0.4282296503432095,-0.7586021530464291
1761476029612223000,5.138222900390625,-0.9199602974772453,0.40259310478344557,-0.6684459351725875
1761476029622259000,5.148259033203125,-0.8663590556710958,0.3432052423998713,-0.6582644406370818
1761476029632296000,5.1582958984375,-0.7788993834048509,0.25012962994799015,-0.7040260748587548
1761476029642332000,5.168331787109375,-0.6506535272419453,0.14803382182493804,-0.7524293096303939
1761476029652368000,5.178367919921875,-0.48380292287468907,0.09798837280422448,-0.7769290331799537
1761476029662403800,5.18840380859375,-0.3384194694280624,0.09864011471122502,-0.7783852964028716
1761476029672441000,5.198441162109375,-0.19595687186419963,0.14924568183273076,-0.7584023196253925
1761476029682477000,5.20847705078125,-0.09371990170478821,0.2480431790627539,-0.7257210431858897
1761476029692513000,5.218512939453125,-0.03750058635473251,0.35062107161432504,-0.6858943519711495
1761476029702549000,5.228549072265625,0.02251461414694786,0.4003551165983081,-0.6337406786248088
1761476029712586000,5.2385859375,0.07472294028997421,0.40642961420640344,-0.5731934901382774
1761476029722622000,5.2486220703125,0.09185293878912926,0.41581791253760453,-0.5761841598542407
1761476029732658000,5.258657958984375,0.17627251270711422,0.42071079914569853,-0.6064437986373901
1761476029742694000,5.26869384765625,0.2686100201427936,0.42415173337981105,-0.6012569340514019
1761476029752731000,5.27873095703125,0.29930443361401554,0.44017187094092364,-0.5530376044793054
1761476029762766800,5.288766845703125,0.28124095365703106,0.47576852337047454,-0.46897656167540697
1761476029772802800,5.298802734375,0.2803232542902231,0.5191670817226172,-0.495293125388585
1761476029782838800,5.3088388671875,0.29668168389499183,0.5418063451625407,-0.5118140155460685
1761476029792876000,5.3188759765625,0.27481413547992706,0.5442793111473322,-0.5110640008963644
1761476029802912000,5.328912109375,0.20269524020850657,0.5071177474886178,-0.4883209117557853
1761476029812948000,5.338947998046875,0.20355039573311803,0.49408451678380366,-0.4281871629083529
1761476029822984000,5.34898388671875,0.21025018563270567,0.515966824376583,-0.38299251491967584
1761476029833021000,5.35902099609375,0.21172785696983337,0.5553435798667371,-0.33768432355392725
1761476029843057000,5.369056884765625,0.228317757242918,0.5951433830745518,-0.27163101193178446
1761476029853092900,5.3790927734375,0.27718144913315773,0.618596300984919,-0.20785971029959618
1761476029863128800,5.38912890625,0.3113303869724274,0.6515177428558468,-0.13546700305547565
1761476029873165800,5.399165771484375,0.330042686226964,0.6842997762560844,-0.0659818538211286
1761476029883201800,5.409201904296875,0.35030922918617724,0.7381402336455881,-0.03975716964248568
1761476029893237800,5.41923779296875,0.3645335693717003,0.7655646855354309,-0.036192828224413096
1761476029903273700,5.429273681640625,0.33728783504962917,0.7981680013678968,-0.038328561611473556
1761476029913311000,5.43931103515625,0.3023345950901508,0.8232889986209571,-0.05332406883258372
1761476029923347000,5.449346923828125,0.30491701279878614,0.8800295613661407,-0.041068179175816476
1761476029933383000,5.4593828125,0.2934334957540035,0.9349436393365264,0.003281505888700485
1761476029943419000,5.4694189453125,0.1898275753289461,0.9925276671685278,0.08119754313156008
1761476029953455900,5.479455810546875,0.16546470296680926,1.0448527515590191,0.11213153751231729
1761476029963491800,5.489491943359375,0.1854839931666851,1.0903967975072562,0.1267486033424735
1761476029973527800,5.49952783203125,0.14397066403925418,1.1190177657052873,0.15004896103963256
1761476029983563800,5.509563720703125,0.04721943181455135,1.1306078118644654,0.20478475983366368
1761476029993600800,5.519600830078125,0.011799158865213393,1.170133766566962,0.2846769925203174
1761476030003636700,5.52963671875,0.018861352336406706,1.2159513687595724,0.32659342255592344
1761476030013672700,5.539672607421875,-0.05643792653679847,1.2262497676730155,0.3650163113873452
1761476030023709000,5.549708984375,-0.11200257737040518,1.199725041101873,0.4513111776579171
1761476030033746000,5.559745849609375,-0.16644494617581365,1.1823755546331405,0.5242074870426208
1761476030043782000,5.569781982421875,-0.1694108102440834,1.1674220233902335,0.575611730261147
1761476030053818000,5.579818115234375,-0.17527414931952953,1.137629234933853,0.6097072574127466
1761476030063854000,5.58985400390625,-0.2830465417742729,1.038249553901702,0.620008578935638
1761476030073890800,5.599890869140625,-0.3793897777199745,0.926593598011881,0.6178014242801815
1761476030083927000,5.609927001953125,-0.401121717056632,0.8317787406772374,0.557067407984659
1761476030093963000,5.619962890625,-0.40474867538213727,0.7630195310972631,0.44485213771164417
1761476030103999700,5.629999755859375,-0.36936931896507735,0.7052629231773316,0.29039442031905055
1761476030114036000,5.640035888671875,-0.3221042944431305,0.6677576606474817,0.13268442313224077
1761476030124072000,5.650072021484375,-0.2837614120453596,0.6907780323594808,-0.07245185355283319
1761476030134108000,5.66010791015625,-0.3147802351653576,0.7817249622195959,-0.3119724842682481
1761476030144145000,5.670144775390625,-0.38814123945236206,0.8787678708672523,-0.483964397046715
1761476030154181000,5.68018115234375,-0.5115741423755884,0.9040034344106912,-0.5359791733790189
1761476030164217000,5.690217041015625,-0.6281184548288583,0.8525766140341758,-0.5487222620308398
1761476030174253000,5.700253173828125,-0.7049713928848504,0.7779176788911223,-0.6339952379077672
1761476030184288800,5.710288818359375,-0.7552186480879783,0.6990779509320855,-0.6555361847169697
1761476030194324700,5.72032470703125,-0.8456441844224929,0.6569324613809585,-0.5900722172901034
1761476030204360700,5.730360595703125,-0.927200770124793,0.693830697928369,-0.5269247101120651
1761476030214396700,5.740396728515625,-0.852369108763337,0.7129878183409571,-0.4753874150983989
1761476030224434000,5.750433837890625,-0.6278612651973963,0.7071224334388971,-0.42781756241098046
1761476030234470000,5.760469970703125,-0.37750527914762494,0.7297682727500796,-0.3504251106508076
1761476030244505900,5.770505859375,-0.24778467425704,0.7875877167731523,-0.2407642741009593
1761476030254541800,5.780541748046875,-0.16520459072589874,0.7635296725764871,-0.07214753684401512
1761476030264578800,5.790578857421875,-0.044730537608265876,0.6449287198543548,0.12676876934766768
1761476030274614800,5.80061474609375,0.19433540814220904,0.5111810514047742,0.26150851757451893
1761476030284650800,5.810650634765625,0.36798517113029955,0.4635343340888619,0.2786535675123334
1761476030294686700,5.820686767578125,0.48132104293107986,0.48531245065480466,0.22900047881007193
1761476030304723700,5.8307236328125,0.4979243872076273,0.5244049823760986,0.21553309447169303
1761476030314759700,5.840759765625,0.45272097139060496,0.5053758722573518,0.2689138984601945
1761476030324795600,5.850795654296875,0.415364761942625,0.4644268990144133,0.3505334663961083
1761476030334831600,5.86083154296875,0.4585889866411686,0.42140038884505626,0.35004875161908566
1761476030344868900,5.870868896484375,0.5778530794471501,0.3998065428048372,0.2774291402839124
1761476030354904800,5.88090478515625,0.6395943730890751,0.39579087742269037,0.24423611492998898
1761476030364940800,5.89094091796875,0.5894897412270307,0.4120801873140037,0.2465330667607486
1761476030374976800,5.900976806640625,0.543423571100831,0.38513767372220753,0.2507974462069571
1761476030385013800,5.911013671875,0.5001151752501726,0.3631953065052628,0.26580489959418774
1761476030395049700,5.9210498046875,0.4525368469953537,0.34654899986982346,0.28519714393690226
1761476030405085700,5.931085693359375,0.39377427690327166,0.3033107466459274,0.29579394127503034
1761476030415122000,5.941121826171875,0.34872342129945755,0.26890257334858175,0.3266578660942614
1761476030425158700,5.95115869140625,0.26704876217544077,0.25362697054445743,0.3094843207143247
1761476030435194600,5.961194580078125,0.15909166080355644,0.24384967289566992,0.2738577115379274
1761476030445230800,5.97123095703125,0.1139583876132965,0.2448236324943602,0.23823285592719912
1761476030455266800,5.981266845703125,0.05585574273467064,0.24899580361247062,0.21181012842580674
1761476030465303800,5.9913037109375,-0.07220365094542502,0.24427608161419628,0.1971414054736495
1761476030475339800,6.00133984375,-0.14509294606745243,0.22256036275997756,0.18428879203274845
1761476030485376000,6.0113759765625,-0.14110183060467243,0.16899609196335078,0.1693326304413378
1761476030495412700,6.021412841796875,-0.09926701443791389,0.12007613984122871,0.19302403328269718
1761476030505448700,6.03144873046875,-0.14994447775185107,0.06851531782150268,0.1879312401883304
1761476030515485000,6.04148486328125,-0.1306067400753498,0.03893675663769245,0.18125307759866116
1761476030525521000,6.05152099609375,-0.04946633395850658,0.015981997507810593,0.11255480442568659
1761476030535557600,6.0615576171875,-0.00812719235420227,0.021701982589811087,0.06229702782854438
1761476030545593900,6.07159375,-0.05164017086625099,-0.0019759762480854987,0.05669833103865385
1761476030555629800,6.0816298828125,-0.08701660467386245,-0.05415288433954119,0.10219722267091273
1761476030565665800,6.091665771484375,-0.13962006761431695,-0.08213014780655503,0.10844400810599326
1761476030575702800,6.101702880859375,-0.08559504743814468,-0.09303235783204436,0.04810585926026106
1761476030585739000,6.111739013671875,-0.009933949515223502,-0.1307438104584813,-0.02891249849051237
1761476030595775000,6.12177490234375,0.06306172859072685,-0.16250366120412946,-0.10185556962639093
1761476030605811000,6.13181103515625,0.11792144602537155,-0.15259952230527996,-0.13692629848569632
1761476030615848000,6.141847900390625,0.07537935837209224,-0.1345268361285329,-0.1324503221154213
1761476030625884000,6.1518837890625,0.05813830071389675,-0.13524053735584018,-0.11928966563865542
1761476030635920000,6.161919921875,0.1340180098235607,-0.13683832794129847,-0.11001140355318784
1761476030645955800,6.171955810546875,0.1781768850237131,-0.12342778835669159,-0.105100542896986
1761476030655992800,6.181992919921875,0.10619067622125149,-0.10984832194596528,-0.09117357822284101
1761476030666028800,6.19202880859375,0.12958908746540546,-0.0710807843953371,-0.10211159021407365
1761476030676064800,6.202064697265625,0.1790969224780798,-0.026685323960334063,-0.10996844119429587
1761476030686100700,6.212100830078125,0.19922434922754764,-0.008481120358407496,-0.14212956621721387
1761476030696138000,6.222137939453125,0.20635025558471679,0.01186550209969282,-0.17790800495445727
1761476030706174000,6.232174072265625,0.14582885912656784,0.031119068624079226,-0.2330534074626863
1761476030716210000,6.2422099609375,0.14165011213719844,0.038030747708678245,-0.2919217760168016
1761476030726247000,6.252246826171875,0.16654840655028819,0.04315115946233272,-0.3048991848811507
1761476030736283000,6.262282958984375,0.1617126569569111,0.028925357972085473,-0.2722223654210567
1761476030746318800,6.27231884765625,0.183074593937397,0.04871113167703151,-0.2727266616813838
1761476030756354800,6.282354736328125,0.24489187542498111,0.07650865466296672,-0.2769675141215324
1761476030766391800,6.292391845703125,0.2572299634724855,0.0896051598623395,-0.2810831327468157
1761476030776427800,6.302427734375,0.21695114457607267,0.0676607468187809,-0.28408596782460804
1761476030786463700,6.312463623046875,0.18542203384637831,0.038462417124211785,-0.2863878150261938
1761476030796499700,6.322499755859375,0.13069149574935435,0.010347206491231917,-0.2832726056151092
1761476030806536700,6.33253662109375,0.08691139073371887,-0.0030626024410128593,-0.30655542765557764
1761476030816573000,6.342572998046875,0.06553659427165985,0.0028629882156848904,-0.2925299710430205
1761476030826609000,6.35260888671875,0.08587094177007674,0.01901011315733194,-0.252755886798352
1761476030836644900,6.362644775390625,0.04001169239282608,0.014324293428659438,-0.24656579998657105
1761476030846681900,6.372681884765625,0.05557575674951076,0.00837765998393297,-0.27983897790461776
1761476030856717800,6.3827177734375,0.21120646344423294,0.0037388942673802373,-0.31039895134121176
1761476030866753800,6.39275390625,0.3624193536967039,-0.010649112047255039,-0.28261268040165305
1761476030876790800,6.402790771484375,0.45598727971017355,-0.04354541947692633,-0.20804580745622514
1761476030886826800,6.41282666015625,0.6274596986591816,-0.0935761093199253,-0.11365312105640768
1761476030896862700,6.42286279296875,0.7517284678846597,-0.12520751138031483,-0.007101794829219579
1761476030906898700,6.432898681640625,0.8181517818629741,-0.16469956381320952,0.05039550456739962
1761476030916935700,6.442935791015625,0.9421732983291149,-0.17564736654609442,0.03995689346566796
1761476030926972000,6.452971923828125,1.1044365749061107,-0.17314093668311833,-0.005605418791621923
1761476030937007900,6.4630078125,1.1533142953217028,-0.19670710570961236,0.006090864221006632
1761476030947043800,6.4730439453125,1.1686229236125945,-0.2634425543770194,0.051624900231882924
1761476030957080800,6.483080810546875,1.2171844176858664,-0.32534254571199417,0.10013948642350733
1761476030967116800,6.49311669921875,1.233798283356428,-0.37373219034969807,0.11835647644177079
1761476030977152800,6.50315283203125,1.1917951248854397,-0.40133535980731244,0.14947328004352747
1761476030987188700,6.513188720703125,1.1602847188562153,-0.4440180249750614,0.15763349788449704
1761476030997225700,6.523225830078125,1.1859528285980223,-0.47024259955585,0.18185433142744004
1761476031007261700,6.53326171875,1.1093880598336459,-0.5129571211665869,0.2359117925684899
1761476031017297700,6.543297607421875,1.0316121617138385,-0.550766042818129,0.27924071975052356
1761476031027334700,6.553334716796875,0.9863789352804422,-0.5876394371852278,0.2984068271871656
1761476031037370600,6.56337060546875,0.9372130455732345,-0.5990399521216749,0.3035757542576641
1761476031047406800,6.57340673828125,0.8584235864967107,-0.5971501928523183,0.31201895375847816
1761476031057442800,6.58344287109375,0.7246604282170533,-0.6486725825577974,0.3469651063900441
1761476031067479800,6.593479736328125,0.6747165398746728,-0.745942870220542,0.38024537163600325
1761476031077515800,6.603515869140625,0.668019088062644,-0.8098051015391945,0.4120863247938454
1761476031087551700,6.6135517578125,0.5667886645972728,-0.8083204159393906,0.45813232891485095
1761476031097587700,6.623587646484375,0.49862172182202336,-0.7885258744060992,0.4717109185427427
1761476031107624700,6.633624755859375,0.5347410829514265,-0.8109367359176277,0.46355420783311124
1761476031117660700,6.64366064453125,0.5537777918547392,-0.8545636961981654,0.44475773742645974
1761476031127696600,6.653696533203125,0.5132517201989889,-0.8961930529206991,0.43935916631855065
1761476031137733600,6.663733642578125,0.5016308405101298,-0.9226566969543695,0.46350423121154305
1761476031147769600,6.67376953125,0.5059475346654653,-0.9258101925492286,0.45286403312310575
1761476031157805600,6.6838056640625,0.47367432757019995,-0.9402505135729908,0.45982473898120224
1761476031167841800,6.693841796875,0.5040747265309095,-1.0084873067140578,0.46812326931431886
1761476031177878800,6.703878662109375,0.5177718279719352,-1.0460244256868958,0.4642212203744799
1761476031187919000,6.713919189453125,0.4826601825803518,-1.0275450584053993,0.46120925214216113
1761476031197955000,6.723955078125,0.42193069632947444,-0.9639750880315899,0.4860943948127329
1761476031207991000,6.733990966796875,0.3890156841993332,-0.8739331441871822,0.4713856321111321
1761476031218028000,6.744028076171875,0.4332698364675045,-0.682267685906589,0.3265751927794888
1761476031228064000,6.75406396484375,0.489474538770318,-0.37188100952506065,0.08551262985169887
1761476031238100000,6.764099853515625,0.45290334222018713,-0.11141586352363228,-0.08308613335713744
1761476031248137200,6.77413720703125,0.008346972584724426,-0.1284837565720081,0.019285642163082956
1761476031258173200,6.784173095703125,-0.7045055289387703,-0.5203606754213571,0.16840784374661744
1761476031268209200,6.794209228515625,-1.3355191206872463,-1.1678669906787573,0.35074893577769395
1761476031278245000,6.8042451171875,-1.600003585332632,-1.6742796586379407,0.527380783316493
1761476031288282000,6.8142822265625,-1.7811691307783126,-1.6435406753726303,0.655788259781897
1761476031298318000,6.824318115234375,-1.7694062122702598,-1.108166116823256,0.4987078657355159
1761476031308354000,6.83435400390625,-1.5271592983961104,-0.5450529258683323,0.23900734743103383
1761476031318391000,6.84439111328125,-1.111204169344902,-0.11239771416783333,-0.03916954248026013
1761476031328427000,6.854427001953125,-0.763169899353385,0.18212810686752198,-0.26237492514550687
1761476031338463000,6.864462890625,-0.6784878751069306,0.33237902022004123,-0.34732582946121693
1761476031348499000,6.8744990234375,-0.6005640929490328,0.280942555232346,-0.286792304173857
1761476031358536200,6.8845361328125,-0.4233136751204729,0.12727554982602596,-0.06280950739532709
1761476031368572200,6.894572265625,-0.2746720966607332,0.07036036116629839,0.06203216634728014
1761476031378608000,6.904608154296875,-0.2054343097835779,0.12664558135941623,-0.0032793869968503714
1761476031388645000,6.91464501953125,-0.17812836970686913,0.26244331420660016,-0.12069902097992598
1761476031398681000,6.92468115234375,-0.027940730848908423,0.376457962051779,-0.23519582631886005
1761476031408717000,6.934717041015625,0.027891046488285064,0.4695471646375954,-0.2673329859443009
1761476031418753000,6.9447529296875,-0.07115151154398917,0.5566989399984479,-0.22036540999896823
1761476031428790000,6.9547900390625,-0.1322147597938776,0.6617930531546473,-0.2112365663215518
1761476031438826000,6.964825927734375,-0.1916746645003557,0.7483323957055806,-0.2625584650188684
1761476031448862000,6.974862060546875,-0.40184360159039495,0.7884215372487903,-0.2676680631175637
1761476031458898200,6.984898193359375,-0.616811463394761,0.7557828578419983,-0.2295046289399266
1761476031468935200,6.99493505859375,-0.6440875928550959,0.6748394356019795,-0.13460099734328687
1761476031478971100,7.00497119140625,-0.7517413273662328,0.6073781568780541,0.009323197205737233
1761476031489007400,7.01500732421875,-0.9105541712284088,0.5791973336629569,0.09140651019588113
1761476031499044000,7.025044189453125,-0.9533423425972462,0.5915941661603749,0.10752645486965774
1761476031509080000,7.035080078125,-0.934528336533904,0.6332626858495175,0.10394187438115476
1761476031519116300,7.0451162109375,-0.9969272173017263,0.6892321180917322,0.13612528430111706
1761476031529152300,7.05515234375,-1.1473387280434368,0.7286769703820347,0.1684224567938596
1761476031539189000,7.06518896484375,-1.052305405652523,0.7743516569726169,0.1512112097520381
1761476031549225200,7.07522509765625,-0.8551812435746192,0.8080490516521036,0.11946852933689951
1761476031559261200,7.08526123046875,-0.8229255721360444,0.7768596942707896,0.12737988698333502
1761476031569298200,7.095298095703125,-0.8402133915454149,0.7482080386735498,0.21579123395122587
1761476031579334100,7.105334228515625,-0.823951992574334,0.7334018069468439,0.32715317533053456
1761476031589370400,7.115370361328125,-0.7265133626073599,0.7508968393661082,0.32740802687443793
1761476031599406300,7.12540625,-0.6582143178850411,0.7546876099511981,0.2973820872493088
1761476031609443000,7.135443115234375,-0.6882815393686295,0.7190927110873162,0.3205645176552236
1761476031619479300,7.145479248046875,-0.6157201610267162,0.6739834032945334,0.36441045444868503
1761476031629515300,7.155515380859375,-0.5140396557062864,0.6713906103223561,0.37361608968935905
1761476031639552000,7.165552001953125,-0.4746867194831371,0.6628674043878913,0.309394669669494
1761476031649588200,7.175588134765625,-0.5314560699313878,0.6359769132442772,0.29630342516712843
1761476031659624200,7.185624267578125,-0.5580781193971633,0.6198797649241984,0.3034117228023708
1761476031669660200,7.19566015625,-0.5220341615915298,0.6184859724782407,0.20235614444725214
1761476031679697200,7.205697265625,-0.4724310495108366,0.6323480552226305,0.13626140483617782
1761476031689733400,7.2157333984375,-0.4037590798228979,0.6472191688790917,0.11907836097553372
1761476031699769300,7.225769287109375,-0.34520167691409587,0.6338339098662138,0.11833879465460777
1761476031709806000,7.23580615234375,-0.40536417693197724,0.5738536345474422,0.11135222370289266
1761476031719842300,7.24584228515625,-0.4051882358431816,0.5038933786146342,0.05411861674375832
1761476031729878300,7.255878173828125,-0.4044494001746177,0.5178080683290958,0.09032733665704727
1761476031739915000,7.2659150390625,-0.3314613208532333,0.6458588403113186,0.10673618127480149
1761476031749951200,7.275951171875,-0.19737959814369677,0.7482661986015736,-0.013114113921299577
1761476031759987200,7.2859873046875,-0.2977203792929649,0.7327484576046467,-0.06832132961936295
1761476031770023200,7.296023193359375,-0.7526485053390264,0.6383036026261747,-0.03575060088224709
1761476031780060200,7.30606005859375,-0.7473813785910606,0.5634726719170808,-0.007512056130543351
1761476031790096400,7.316096435546875,-0.38526889888644217,0.5174379198424518,-0.08665215527564286
1761476031800132400,7.32613232421875,-0.01686345651745796,0.5188676603846252,-0.1478061505489051
1761476031810169300,7.33616943359375,0.27536884675323964,0.6261725814580917,-0.08589782977700233
1761476031820205300,7.346205322265625,0.33100130212605,0.6368250545062124,-0.07606449109204114
1761476031830241300,7.3562412109375,0.28849019413292404,0.557554680044949,-0.0016718787349760532
1761476031840277200,7.36627734375,0.37306934252679347,0.472533779232949,0.07570340269468724
1761476031850314200,7.376314208984375,0.6148813721150159,0.45982846530824895,0.02056274942681193
1761476031860350200,7.38635009765625,0.8015215495795011,0.48121714416518807,-0.008770897085219621
1761476031870386200,7.39638623046875,0.9331927040159702,0.4953938458167016,0.08697013518363236
1761476031880423200,7.406423095703125,0.9660977792739868,0.5347147794663906,0.1893839962799102
1761476031890459100,7.416459228515625,0.9209200824201107,0.585821720238775,0.12826762960329652
1761476031900495000,7.4264951171875,0.9368909740120172,0.591718961583823,-0.010011398665606975
1761476031910532400,7.436532470703125,1.0685019226938486,0.5767440952919424,-0.11798742393366991
1761476031920568300,7.446568359375,1.178137186411023,0.5825207789972424,-0.20943912497814743
1761476031930604300,7.456604248046875,1.1361579933375119,0.5903668163225054,-0.26659685368947683
1761476031940640300,7.46664013671875,1.05387776953578,0.6209538238964974,-0.23911953910123557
1761476031950677200,7.47667724609375,1.0129302575975656,0.6691201811723411,-0.21278251712191848
1761476031960713200,7.486713134765625,1.0498258637964726,0.6897361220911145,-0.23753420613855122
1761476031970749200,7.496749267578125,1.0937094291865825,0.701039021871984,-0.29013328516483305
1761476031980786200,7.5067861328125,1.1120365285158156,0.6989023021042347,-0.27289146032165734
1761476031990822100,7.516822265625,1.0315314976930618,0.6966437095224857,-0.2060485692244023
1761476032000858000,7.526858154296875,0.9810814133942126,0.7085157874934375,-0.15763400934115052
1761476032010895400,7.536895263671875,0.8215268112540245,0.719223643990606,-0.11947521480601281
1761476032020931300,7.546931396484375,0.6623650078237057,0.6918069370158016,-0.11886186868064105
1761476032030967300,7.55696728515625,0.7223118192642927,0.5970090308159589,-0.1678178054315969
1761476032041003300,7.567003173828125,0.6999532724618911,0.5143263636931776,-0.21876294323839246
1761476032051040300,7.577040283203125,0.47221477641165255,0.44981122142374513,-0.22788674541451034
1761476032061076200,7.587076171875,0.31838848879039283,0.38065950539484616,-0.22398791134506463
1761476032071112200,7.5971123046875,0.2710439692914486,0.3149870097838342,-0.1846861207872629
1761476032081149200,7.607149169921875,0.31141280455887316,0.26193214981406926,-0.17404424219839273
1761476032091185200,7.61718505859375,0.27444237955808637,0.22212328651696442,-0.1736706596456468
1761476032101221000,7.62722119140625,0.22050679123103617,0.15281754897013305,-0.1459860224496573
1761476032111258400,7.63725830078125,0.16040391244590282,0.06172931094318628,-0.07324468443095683
1761476032121294300,7.64729443359375,0.0846919611185789,-0.03913680925443768,0.04006276499293744
1761476032131330300,7.657330322265625,-0.011897358542680739,-0.08336480416804552,0.15084960989803076
1761476032141366300,7.6673662109375,0.03056289604604244,-0.07700958992242812,0.14903766510523855
1761476032151403300,7.6774033203125,0.1343839205265045,-0.07655410123988986,0.11110833194442092
1761476032161439200,7.687439208984375,0.25288521226644517,-0.09860299757122992,0.0915454072099179
1761476032171475200,7.69747509765625,0.36992870641350745,-0.18272315015122292,0.05559168497100472
1761476032181512700,7.7075126953125,0.5115121830552816,-0.31471330740898845,0.051688320856913925
1761476032191548700,7.717548583984375,0.6756815855145454,-0.4222914924658835,0.05911730181388557
1761476032201584600,7.727584716796875,0.7787818945050239,-0.5262120317980646,0.1126933361135423
1761476032211621600,7.73762158203125,0.8258785767227411,-0.6482999498531222,0.24265834421925245
1761476032221657600,7.74765771484375,0.830638338470459,-0.7688435610756278,0.36337643522582946
1761476032231693600,7.757693603515625,0.8844242891937494,-0.8730246510401367,0.41795813943669197
1761476032241729500,7.7677294921875,0.9774988787323236,-0.9908487741708755,0.43404535088464613
1761476032251766500,7.7777666015625,1.0448878228724001,-1.1327826716855167,0.43210568805895744
1761476032261802500,7.787802490234375,0.9646879124760627,-1.2357153690241276,0.46603163079731164
1761476032271838500,7.79783837890625,0.8560697168469429,-1.2963324809417127,0.5094309198018163
1761476032281875700,7.807875732421875,0.7703571805089712,-1.3190522622719407,0.4652839542351663
1761476032291911700,7.81791162109375,0.6469499965488911,-1.33284493304193,0.40810711896456775
1761476032301947600,7.82794775390625,0.4349439071595669,-1.400788442324847,0.40247773477546867
1761476032311984600,7.837984619140625,0.2876180874735117,-1.5060715021818876,0.44422574944160875
1761476032322020600,7.8480205078125,0.20893033520579338,-1.5652496673375367,0.4653190986137837
1761476032332056600,7.858056640625,0.11124912865459918,-1.5263193404406308,0.49002903084792193
1761476032342093600,7.868093505859375,-0.033091537740826606,-1.4668375161632894,0.540975374231115
1761476032352129500,7.878129638671875,-0.18685937317311763,-1.444799871878326,0.5858998269762844
1761476032362165500,7.88816552734375,-0.297781754091382,-1.4512933255508542,0.5956603926859796
1761476032372201500,7.898201416015625,-0.3725888655334711,-1.4287252276509999,0.5397805384233594
1761476032382238700,7.90823876953125,-0.42926235439181326,-1.3093436459451913,0.40908312438987193
1761476032392274700,7.918274658203125,-0.5216781877607107,-1.0907457570753991,0.32327808746285736
1761476032402310700,7.928310546875,-0.7990513600736856,-1.001876510272175,0.4324982675731182
1761476032412347600,7.93834765625,-1.2343027257472277,-1.165822479239106,0.6439563676908612
1761476032422383600,7.948383544921875,-1.336470722323656,-1.2879660730041562,0.6466045441120862
1761476032432419600,7.958419677734375,-1.163566224744916,-1.074635018621385,0.37597207823097706
1761476032442456600,7.96845654296875,-1.1739414882868529,-0.6007413492120802,0.12546820814311505
1761476032452492500,7.978492431640625,-1.404194597506523,-0.19475275677144527,0.05903218081369996
1761476032462528500,7.988528564453125,-1.6120295386910437,-0.06578297024816274,0.17261603602617978
1761476032472565800,7.998565673828125,-1.7131728683948515,-0.13674904222264886,0.35540976719558237
1761476032482601700,8.008601806640625,-1.6508178267687559,-0.2132598888427019,0.4524325098380446
1761476032492637700,8.0186376953125,-1.3785533757716417,-0.18200287305265664,0.41532969062924385
1761476032502672400,8.02867236328125,-0.998141853788495,-0.07681114474087954,0.38520182499960065
1761476032512708400,8.038708251953125,-0.5327805965334177,0.055649552638083695,0.3532701248183846
1761476032522745600,8.04874560546875,-0.08615794201791285,0.1704166262857616,0.28258725369945165
1761476032532781600,8.058781494140625,0.24496844779253005,0.27026743196099995,0.26211262094751
1761476032542817500,8.068817626953125,0.7973930714726447,0.33852658306434746,0.29444208827465773
1761476032552854500,8.0788544921875,1.4818693733394146,0.38851314150467514,0.3272488177247345
1761476032562890500,8.088890380859375,2.092475552353263,0.45617169636636967,0.2866341910026967
1761476032572926500,8.098926513671875,2.455897945612669,0.5361547491416335,0.23360198125615714
1761476032582962400,8.10896240234375,2.5671254469573497,0.6588987930178641,0.14324059619903565
1761476032592999400,8.11899951171875,2.3096359557658435,0.8077432005733252,-0.11072568930238484
1761476032603035400,8.129035400390626,1.8402841675698756,0.9359022552356123,-0.4762758883707225
1761476032613071400,8.1390712890625,2.0886936957269904,1.097502830120176,-0.7806921120405197
1761476032623108600,8.149108642578126,2.564517894807458,1.2648258743047713,-0.7835672290854155
1761476032633144600,8.15914453125,2.6488936295837164,1.6368366476893423,-0.7784934329524635
1761476032643180500,8.1691806640625,2.231395947265625,2.0830127274811265,-0.992685780339688
1761476032653217500,8.179217529296874,1.790754705247283,2.286476906235516,-1.1658594502486288
1761476032663253500,8.18925341796875,1.4030132787674665,2.274436778221279,-1.198339139701426
1761476032673289500,8.19928955078125,0.889527749812603,2.1375236314781008,-1.2630169251866639
1761476032683326500,8.209326416015625,0.35765491577386854,1.8811504309654234,-1.3473160875953734
1761476032693362400,8.219362548828125,0.3975526263982057,1.6346701173052192,-1.2513497221380472
1761476032703398400,8.2293984375,0.7755465658456087,1.495128667885065,-1.0501936741955578
1761476032713435600,8.239435546875,0.8888765924274921,1.4314768644466995,-0.8073112388968468
1761476032723471600,8.2494716796875,0.7669710452020168,1.4491931384012102,-0.8802863126061856
1761476032733507600,8.259507568359375,0.5229816715747118,1.3623910532608627,-1.1157254461616277
1761476032743543600,8.26954345703125,0.5470166271567344,1.3270830085143446,-1.3096747775956987
1761476032753580500,8.27958056640625,0.5326905801624059,1.3550640713736415,-1.443195943813026
1761476032763616500,8.289616455078125,0.46061610855460167,1.4240692185387014,-1.36151047103405
1761476032773652500,8.299652587890625,0.19027122744321823,1.4430553662985564,-1.1196025798559188
1761476032783689500,8.309689453125,-0.027731472012400626,1.3506331031888723,-0.895271846422553
1761476032793725400,8.319725341796875,-0.017536825734376905,1.1985448914065957,-0.6873544876515865
1761476032803761400,8.329761474609375,-0.06404080275595188,1.0992597567901015,-0.5733528454184532
1761476032813798400,8.33979833984375,-0.10222644876539706,1.060061718867719,-0.49218730486035345
1761476032823834600,8.349834716796876,-0.26706162165701386,1.1037059225440025,-0.47932957685291766
1761476032833870600,8.35987060546875,-0.6257447114348411,1.1882898932434618,-0.508588989084959
1761476032843907600,8.369907470703126,-0.9670137250751256,1.1528420016348362,-0.48165451266914605
1761476032853943600,8.379943603515626,-1.0568208372503518,1.0373867995925248,-0.4844526189550757
1761476032863979500,8.3899794921875,-1.073807043364644,0.9673312665916979,-0.5300038252964615
1761476032874016500,8.4000166015625,-1.0433879397034644,0.9605877836808562,-0.5809440311998129
1761476032884052500,8.410052490234374,-0.9407692767500877,0.8518575059793889,-0.5020522807925939
1761476032894088400,8.42008837890625,-0.8243459603279829,0.6885723390087485,-0.4096870085671544
1761476032904125400,8.43012548828125,-0.6020160453230142,0.5259533808618784,-0.28153263007998464
1761476032914161400,8.440161376953125,-0.38778760370910165,0.3728691437795758,-0.06287994228303433
1761476032924197400,8.450197265625,-0.3345651320874691,0.21223799844905733,0.2083776697590947
1761476032934233300,8.4602333984375,-0.2813701329946518,0.14514073073193431,0.43631636455655093
1761476032944270600,8.4702705078125,-0.2096171484261751,0.08495616501271724,0.597434270490706
1761476032954306600,8.480306640625,-0.18239596402347086,-0.014919775103777646,0.6030731531605125
1761476032964342500,8.490342529296875,-0.17618249633610247,-0.052548664013296366,0.4912634680137038
1761476032974379500,8.500379638671875,-0.04592997652590274,-0.008485650403052568,0.4316436965703964
1761476032984415500,8.51041552734375,0.17300386629998682,0.05220145801082253,0.5443327949002384
1761476032994451500,8.520451416015625,-0.2304565228372812,0.0880775119036436,0.32031185806840656
1761476033004488400,8.530488525390625,-0.6389116515219211,-0.02078881326764822,0.23203385515660047
1761476033014524400,8.5405244140625,-0.30410628093779085,-0.26752807012498375,0.2678112709805369
1761476033024560400,8.550560302734375,-0.2641659002155065,-0.46246202868223185,0.25737258681356906
1761476033034597600,8.56059765625,-0.4952180508583784,-0.5231735408850013,0.38439854579269883
1761476033044633600,8.570633544921876,-0.6421797134071588,-0.41899011283293364,0.5814169094085693
1761476033054669600,8.580669677734376,-0.7685176901221275,-0.2745537309780717,0.6641422466292977
1761476033064706600,8.59070654296875,-0.7773223433464765,-0.19726956189796327,0.6168479960128664
1761476033074742500,8.600742431640626,-0.7799532763719558,-0.24183453368097543,0.602352145409584
1761476033084780500,8.610780517578124,-0.8732412164002656,-0.3611132395341992,0.61324208047539
1761476033094816500,8.62081640625,-0.8331085279762744,-0.45874271589815613,0.6388552451595664
1761476033104852500,8.6308525390625,-0.9687930097073316,-0.47622700772769744,0.5961486145943403
1761476033114889700,8.6408896484375,-1.0347785167902708,-0.42812436333782966,0.5388660539269448
1761476033124925700,8.65092578125,-0.865150264403224,-0.37532567008621986,0.40954906140118835
1761476033134961700,8.660961669921875,-0.7001584396451711,-0.4221674276947975,0.429167661845684
1761476033144998700,8.67099853515625,-0.7847738283962011,-0.5015427238352597,0.5660217718780041
1761476033155034600,8.68103466796875,-0.7695137154221534,-0.60994552314803,0.6905009689837693
1761476033165070600,8.691070556640625,-0.6674830814898014,-0.6807869458295405,0.730123662059009
1761476033175107600,8.701107666015625,-0.5794476551622152,-0.6487004204127937,0.6635758449181914
1761476033185143300,8.711143310546875,-0.4372743959337473,-0.5757035001978278,0.5235495345905423
1761476033195179300,8.72117919921875,-0.3674164313316345,-0.5323916702810675,0.4143208058476448
1761476033205216500,8.731216552734375,-0.2841489500582218,-0.5476003453288227,0.3272361043736338
1761476033215252500,8.74125244140625,-0.15234744724035262,-0.5469041797582059,0.25760025808960196
1761476033225288400,8.751288330078125,-0.0823439366877079,-0.5273742805104702,0.2754980260908603
1761476033235325400,8.761325439453126,-0.012289572730660437,-0.4643381247524172,0.33885172336548564
1761476033245361400,8.771361328125,0.0265168355256319,-0.3921862770594656,0.39758711318969725
1761476033255397400,8.7813974609375,0.0713946726500988,-0.3585415624152869,0.4396440476745367
1761476033265434400,8.791434326171874,0.20379355683922767,-0.363590808628872,0.43014293661862607
1761476033275470300,8.80147021484375,0.20273907935023305,-0.38381190501116214,0.38686961208134885
1761476033285506300,8.81150634765625,0.1782335836470127,-0.38230668807998297,0.33908523986041544
1761476033295543300,8.821543212890624,0.22514789503514765,-0.353476461045444,0.33575375735014673
1761476033305579300,8.831579345703124,0.1303624099254608,-0.3574043020136654,0.31050065815001726
1761476033315615200,8.841615234375,0.11102701033651828,-0.4057384901370853,0.27958383409976956
1761476033325652500,8.851652587890625,0.23156886799335477,-0.476529059414193,0.32225948500484225
1761476033335688400,8.8616884765625,0.28812019177675247,-0.5325158081173896,0.41265111906975505
1761476033345724400,8.871724365234375,0.23638532836437223,-0.5968519405581056,0.508721383292973
1761476033355761400,8.881761474609375,0.21947978627085685,-0.6622638124715536,0.572208059297502
1761476033365797400,8.89179736328125,0.21552432664334772,-0.7332593297362328,0.601900894510746
1761476033375833300,8.901833251953125,0.13610884462296963,-0.8160694226309657,0.5946595450803637
1761476033385870300,8.911870361328125,-0.045347208201885224,-0.9146263891033828,0.5461331223204732
1761476033395906300,8.92190625,-0.11917173834741115,-1.017082701101899,0.5575020730748772
1761476033405942300,8.9319423828125,-0.2427607086151838,-1.0747818066809325,0.594241319668293
1761476033415979300,8.941979248046875,-0.4428671013742685,-1.045666113768518,0.4809463643997907
1761476033426015500,8.952015380859375,-0.669634122043848,-0.8809678651295602,0.2620081376597285
1761476033436051500,8.962051513671875,-0.9640385086566209,-0.6743153386626393,0.05864771154075861
1761476033446088200,8.972088134765626,-1.1336480563431977,-0.6071379914466292,-0.09622340895831584
1761476033456124400,8.98212451171875,-1.408804721650481,-0.6305302652109414,-0.29435177964270115
1761476033466160400,8.992160400390626,-1.7372165918052196,-0.4578729473263025,-0.6788736595541238
1761476033476197000,9.002197021484376,-1.9645196190476417,-0.07627261741738765,-0.9412783953160047
1761476033486233300,9.0122333984375,-2.201294823512435,0.2228914578778669,-1.0013999788016081
1761476033496269300,9.022269287109374,-2.343078206640482,0.228253642498143,-0.9344722224324941
1761476033506305300,9.03230517578125,-2.289115730306506,-0.06019137905249372,-0.7516945656150579
1761476033516342500,9.042342529296874,-2.050191238853335,-0.5155074997691438,-0.4969155024260282
1761476033526378500,9.05237841796875,-1.8696634067893028,-0.9354202438723296,-0.21564649171829223
1761476033536414500,9.06241455078125,-1.7750164533674715,-1.1499296943847088,0.007983692230284214
1761476033546451500,9.072451416015625,-1.3915952281743287,-1.1453783877559005,0.10190583850890397
1761476033556487400,9.0824873046875,-1.0736655890673399,-1.0136940815769135,0.12456599860638379
1761476033566523400,9.0925234375,-0.9179302529543638,-0.8872689380351454,0.17844518057107925
1761476033576560400,9.102560302734375,-0.8709685952931642,-0.7685259464938193,0.20712387030571697
1761476033586596400,9.112596435546875,-0.8268997364640236,-0.6412695397596806,0.23385434858202933
1761476033596632300,9.12263232421875,-0.6634300067067146,-0.5098666808705776,0.13221768240332601
1761476033606669300,9.13266943359375,-0.6050584817588329,-0.3744453801203519,-0.017278467059135435
1761476033616705300,9.142705322265625,-0.5733791489034891,-0.297972381292656,-0.07417962719351053
1761476033626741500,9.152741455078125,-0.48118017315566536,-0.20810035065505653,-0.10775865619033574
1761476033636778200,9.1627783203125,-0.36931846556067466,-0.08799233610453083,-0.24032909755408763
1761476033646814500,9.172814453125,-0.4059732487410307,0.011601882727444172,-0.3407806456014514
1761476033656850400,9.182850341796875,-0.4200900368988514,0.07724617515727877,-0.4003136155441403
1761476033666887200,9.19288720703125,-0.3188514301270246,0.1369912717469968,-0.3713178226843476
1761476033676923400,9.20292333984375,-0.29531331815123557,0.2571484774678014,-0.3775400582000613
1761476033686959400,9.21295947265625,-0.25913258222341534,0.35755350122600793,-0.3968015157699585
1761476033696996000,9.22299609375,-0.14281214165389536,0.3828736012477427,-0.2962184502974152
1761476033707032300,9.2330322265625,-0.04460778801143169,0.4264545304294675,-0.24060119249373674
1761476033717068300,9.243068359375,-0.015119243198633192,0.4593904392171651,-0.26213351760506626
1761476033727105300,9.253105224609374,-0.17290683566629886,0.4155831174010411,-0.2268710655659437
1761476033737141200,9.263141357421874,-0.33187399330735207,0.33171471109241246,-0.21053747814148663
1761476033747177500,9.273177490234374,-0.41019174321889873,0.2974396443891339,-0.22922201260626315
1761476033757213400,9.28321337890625,-0.4083165969967842,0.31237047060988843,-0.30657413235604764
1761476033767250200,9.293250244140625,-0.44853930179178714,0.375238722455129,-0.32378654844164845
1761476033777286400,9.303286376953125,-0.45260172892510886,0.45136214066017416,-0.267592952054739
1761476033787322400,9.313322265625,-0.35515023947656155,0.5252611608140171,-0.14898293924331665
1761476033797359000,9.323359130859375,-0.25581775858700273,0.5731726665459573,-0.06421323671340942
1761476033807395300,9.333395263671875,-0.20009002614617347,0.5810376277673989,0.0010536007061600684
1761476033817431300,9.343431396484375,-0.0974713631927967,0.5958822552757337,0.07667056722640991
1761476033827468300,9.35346826171875,-0.024691958186030386,0.6468656792663038,0.09581044424325227
1761476033837504500,9.36350439453125,-0.04865151044428348,0.6393135103210806,0.13023498415350912
1761476033847540500,9.37354052734375,0.03944645972549915,0.6675861765380948,0.15311784709095955
1761476033857577200,9.3835771484375,0.09568681786358356,0.6972307156302034,0.14375088380873202
1761476033867613400,9.393613525390625,0.12330197001993655,0.719490478233248,0.11495265934765338
1761476033877649400,9.4036494140625,0.1633580860763788,0.7052407844107598,0.12041589318960905
1761476033887686100,9.41368603515625,0.13871113607585428,0.6777058578837662,0.15176292535066604
1761476033897722400,9.423722412109376,0.07405600081384181,0.683643212043494,0.18427490963786838
1761476033907758300,9.43375830078125,0.06902677447497844,0.7301372521929442,0.20323387712985275
1761476033917795000,9.443795166015626,0.024247137027978895,0.7606706298835575,0.1562722194686532
1761476033927831300,9.453831298828124,-0.11831892091035842,0.76286667862311,0.07045914536565542
1761476033937867500,9.463867431640624,-0.1424748725235462,0.7778845072738826,-0.005759878700971603
1761476033947904300,9.473904296875,-0.16026713432371614,0.8285719074599445,-0.11077420461922884
1761476033957940200,9.483940185546874,-0.22937807995080947,0.8384023966006934,-0.19313976861685514
1761476033967976400,9.4939765625,-0.13302023095786572,0.8336735414478927,-0.22600305055975914
1761476033978012400,9.504012451171874,-0.0060644146054983136,0.7990780288849025,-0.29678017583340405
1761476033988049200,9.514049072265625,0.06546177546977996,0.7550253174729645,-0.2914358921959996
1761476033998085400,9.52408544921875,0.06483341443836689,0.7234864160016179,-0.1878779025658965
1761476034008121300,9.534121337890625,0.027139935860037802,0.682838179270923,-0.12719400902241468
1761476034018158000,9.544157958984375,-0.010592705684900283,0.6264679111428558,-0.082200144302845
1761476034028194300,9.5541943359375,-0.0018915128350257872,0.6384272290058434,-0.059762394784390924
1761476034038230300,9.564230224609375,-0.023980595046281812,0.6919430575508624,-0.1015124552771449
1761476034048267300,9.574267333984375,-0.03469605032801628,0.7044990261327475,-0.1854056672334671
1761476034058303200,9.58430322265625,-0.028484920728206634,0.7029260777276009,-0.22389073458090422
1761476034068339500,9.59433935546875,-0.1763777266472578,0.6539363483048976,-0.2782765508934855
1761476034078376200,9.604376220703125,-0.2014870334625244,0.6481964894786477,-0.35750557043105363
1761476034088412200,9.614412109375,-0.1545277138888836,0.701915147119388,-0.4083205425195396
1761476034098448400,9.624448486328125,-0.019257658177614212,0.7222749213200063,-0.4037717931739986
1761476034108485000,9.634485107421876,0.013583704194426536,0.7272049250680953,-0.33359088022783395
1761476034118521000,9.64452099609375,-0.039058921712636946,0.6570773497443646,-0.25201325173750516
1761476034128557300,9.654557373046876,0.03437339424490928,0.6104609253242611,-0.2396045826718211
1761476034138593300,9.66459326171875,0.10391747059226035,0.66445496584028,-0.3100065910227597
1761476034148630300,9.67463037109375,0.14657646262347698,0.7124345683723687,-0.33721608498767014
1761476034158666500,9.68466650390625,0.1392471426486969,0.7242010670769959,-0.3414730117797851
1761476034168702500,9.694702392578124,0.12358721670210361,0.6904158479835838,-0.36896541433930397
1761476034178739200,9.7047392578125,0.20755495519936085,0.6649288669623434,-0.3397122857175767
1761476034188771300,9.714771240234375,0.2891764228314161,0.6240500363461673,-0.3176442462943494
1761476034198807300,9.724807373046875,0.268454537320137,0.5492343032062054,-0.2986205430030823
1761476034208844300,9.73484423828125,0.18388298771083353,0.46350488879866897,-0.26285014144182206
1761476034218880300,9.74488037109375,0.1785603313833475,0.48878889459371566,-0.2294432541415095
1761476034228916500,9.75491650390625,0.17638941708505151,0.5293213959902525,-0.26065146235376596
1761476034238953500,9.764953369140626,0.19399463188052177,0.48249914679974315,-0.28213337245211
1761476034248989400,9.774989501953126,0.266977450504899,0.4224168724112212,-0.2625616798892617
1761476034259025400,9.785025390625,0.22788871817588804,0.3687489220444113,-0.2869716062635183
1761476034269061400,9.795061279296876,0.1927823334813118,0.3206767458580434,-0.33861002356410025
1761476034279098400,9.805098388671874,0.2752005044490099,0.2989773936167359,-0.3454430844545364
1761476034289134300,9.81513427734375,0.33169805221855636,0.32259412378668784,-0.370993559166044
1761476034299170300,9.82517041015625,0.3035083150446415,0.21593977557644248,-0.3571687396921217
1761476034309207300,9.835207275390625,0.243968915361166,0.005415741438418627,-0.324130539573729
1761476034319243300,9.8452431640625,0.3019125702857971,-0.05782499698102474,-0.3627976854898035
1761476034329279200,9.855279296875,0.39117724614739413,-0.035994127314537765,-0.39540991528108715
1761476034339316500,9.86531640625,0.417809817007184,0.007279489483684301,-0.383587960062176
1761476034349352400,9.8753525390625,0.5259814379125833,0.02937865469753742,-0.317294409943372
1761476034359388400,9.885388427734375,0.6588555383980274,0.056179567861557006,-0.23291195316538213
1761476034369424400,9.89542431640625,0.726585843321681,0.05951587267741561,-0.18356486167237163
1761476034379461400,9.90546142578125,0.863988234886527,0.06454100736305117,-0.15445742513164876
1761476034389497300,9.915497314453125,0.827736187288165,0.01225070202499628,-0.09377367771863937
1761476034399533300,9.925533203125,0.8224123619168996,-0.09345248294025658,-0.03188464616909623
1761476034409570300,9.9355703125,0.8866524866372346,-0.14741744349226354,-0.005690174465626478
1761476034419606300,9.945606201171875,0.8910913458675146,-0.12730170718058942,0.010096884991973637
1761476034429642200,9.955642333984375,0.9095236591368913,-0.12003946109265089,0.00883205268792808
1761476034439679500,9.965679443359376,0.8131798386693,-0.1465204946525395,0.004574687504395842
1761476034449715500,9.975715576171876,0.7667243769645691,-0.16241481387689707,0.0034985096402466295
1761476034459751400,9.98575146484375,0.8759189111769199,-0.19491028542071578,-0.031798356125131245
1761476034469788400,9.995788330078126,1.0339385588347911,-0.26558453484177585,-0.03179433753713965
1761476034479824400,10.005824462890626,0.9632283613175153,-0.33620603116229175,0.06968479999229311
1761476034489860400,10.0158603515625,0.7940186266034841,-0.31116628245189787,0.16816840896755456
1761476034499896300,10.025896240234376,0.7641916436165571,-0.22543284945636988,0.13851868224367497
1761476034509933300,10.035933349609374,0.8188251510798931,-0.208031194408983,0.041515959475934505
1761476034519969300,10.04596923828125,0.8060802357971668,-0.27452348197028037,-0.014932415389642118
1761476034530005200,10.056005126953124,0.7249696402966975,-0.314343012791872,0.02726648484915495
1761476034540042500,10.06604248046875,0.6024158582955599,-0.3074417089708149,0.05075630070380866
1761476034550078500,10.076078369140625,0.3988783220440149,-0.27116949536725876,0.03619615269266069
1761476034560114400,10.086114501953125,0.3191676564693451,-0.3040865533240139,-0.00832775642760098
1761476034570151400,10.0961513671875,0.2589519649595022,-0.3670361998423934,-0.030559900371357796
1761476034580187400,10.1061875,0.15220599294304846,-0.4137416907854378,-0.010565306221321225
1761476034590223400,10.116223388671875,0.013836802172660827,-0.4233239042535424,-0.015373510220646857
1761476034600259300,10.12625927734375,-0.04580956501662731,-0.3466796405121684,-0.16325228761434554
1761476034610296300,10.13629638671875,-0.038670214655995364,-0.09730974289029837,-0.48537367932274933
1761476034620332300,10.146332275390625,-0.05241290880441665,0.30719620977714657,-0.81321724807024
1761476034630368300,10.1563681640625,-0.2556330496698618,0.5841119937114417,-0.8522543963424861
1761476034640405200,10.1664052734375,-0.698901717582345,0.5078396320223808,-0.6354188409700989
1761476034650441500,10.17644140625,-0.9527665885359048,0.19321561033204196,-0.6344976344719528
1761476034660477400,10.1864775390625,-0.8854220680594443,0.11178674266263842,-1.041921812673658
1761476034670514400,10.196514404296876,-0.9440952063024044,0.39682431212365626,-1.4550259362079203
1761476034680550400,10.20655029296875,-1.2552245177447796,0.6933402840629219,-1.4004064572699366
1761476034690586400,10.21658642578125,-1.582839684563875,0.7137804300233721,-0.9485787814572453
1761476034700622300,10.226622314453126,-1.6366951933920382,0.48009720022454855,-0.534312190014869
1761476034710659300,10.236659423828126,-1.4916034163683651,0.1808279840543866,-0.278682209084928
1761476034720695300,10.2466953125,-1.3029215039432047,0.0506593431353569,-0.14065744783803819
1761476034730731300,10.256731201171876,-1.023750342297554,0.1721726761728525,-0.21111425511613488
1761476034740768300,10.266768310546874,-0.6220487795263528,0.4393764827795326,-0.39704482300654054
1761476034750804200,10.27680419921875,-0.31174013681709767,0.623230975048244,-0.37867914523258805
1761476034760840200,10.286840087890624,-0.20635960793495178,0.6033847033277153,-0.10971709678173064
1761476034770877400,10.29687744140625,0.008384381985664368,0.5124605698212981,0.13481836642101405
1761476034780913400,10.306913330078125,0.21007307550013063,0.4328616940580308,0.22160408494845033
1761476034790949400,10.316949462890625,0.3133873195022344,0.37295652980208394,0.18844912658259272
1761476034800986400,10.326986328125,0.38773441221714017,0.4633195222944021,0.08128829015493393
1761476034811022300,10.337022216796875,0.25409575709998605,0.5906513323523104,-0.029695319431275128
1761476034821058300,10.347058349609375,0.288518251183629,0.5589364897921681,-0.151498136934638
1761476034831094300,10.35709423828125,0.3127408382922411,0.6143010880090296,-0.3658516662329435
1761476034841131300,10.36713134765625,0.2085275996237993,0.7668015338540076,-0.6091838911257684
1761476034851167200,10.377167236328125,0.12597674218714236,0.8913625640243291,-0.7639004055850207
1761476034861203200,10.387203125,0.09963117157518864,0.8518420161493122,-0.8281712177045643
1761476034871240400,10.397240478515625,0.14947393763065336,0.6955548913724721,-0.8954333205945789
1761476034881276400,10.4072763671875,0.18904256243109702,0.5625577490292489,-0.9464033371143042
1761476034891312400,10.4173125,0.1703735177963972,0.4897290980532765,-0.9839666134417057
1761476034901349400,10.427349365234376,0.2664934663802385,0.48199601958319543,-1.0002363418497144
1761476034911385300,10.43738525390625,0.25118659165501594,0.4755455282695591,-1.0026147614188492
1761476034921421300,10.44742138671875,0.11101999607384204,0.46527372510209675,-0.9827534382596611
1761476034931457300,10.457457275390626,0.04794891513288021,0.4873939331039786,-0.9498549388729035
1761476034941494300,10.467494384765626,-0.07727087120711804,0.5229506919145583,-0.950763432019949
1761476034951530200,10.4775302734375,-0.17257891888618468,0.5427322278358042,-1.0076176842726767
1761476034961566200,10.487566162109376,-0.23302608106434344,0.4990924080736935,-1.0737881925337016
1761476034971603500,10.497603515625,-0.3413280503511429,0.42953766420185563,-1.141832093451172
1761476034981639400,10.507639404296874,-0.3356915057688951,0.35639980114623904,-1.168107375305891
1761476034991675400,10.51767529296875,-0.2889846996515989,0.31366335996463895,-1.1996350247308611
1761476035001711400,10.52771142578125,-0.27687632870674134,0.2876807774461806,-1.1731037222884595
1761476035011748400,10.537748291015625,-0.21158348006308078,0.25044059559330345,-1.0917810914725063
1761476035021784300,10.547784423828125,-0.07488543737530708,0.18852832929864524,-1.0858037706285715
1761476035031820300,10.5578203125,0.04868658175766468,0.09126476363763213,-1.1392188422128557
1761476035041857300,10.567857177734375,0.09074351624250411,0.017665712811052798,-1.2189883983679115
1761476035051893200,10.577893310546875,0.05324585249722004,0.002525426824390888,-1.3067580133661627
1761476035061929200,10.58792919921875,0.07121756251752376,0.13432342251092194,-1.3504717751473188
1761476035071966500,10.597966552734375,0.12756079650819302,0.2507651513725519,-1.389489195805788
1761476035082002400,10.60800244140625,0.10657646066844463,0.24062062784656882,-1.3845115535236894
1761476035092038400,10.618038330078125,0.24030922380983827,0.1428648947544396,-1.367109021693468
1761476035102074400,10.628074462890625,0.4282978932738304,0.11335545328408479,-1.3429226749420164
1761476035112111400,10.638111328125,0.2819499787092209,0.11541223968341946,-1.3040538689740002
1761476035122147300,10.648147216796875,0.2484434304267168,0.1360081607274711,-1.1559290078647435
1761476035132183300,10.658183349609375,0.35930092941522596,0.21114508864581583,-1.0251368282198905
1761476035142220300,10.66822021484375,0.35903614099919795,0.30085970023199915,-0.9452376543357968
1761476035152256300,10.67825634765625,0.34759295596480366,0.374124842929095,-0.9007555385306477
1761476035162292200,10.688292236328126,0.3997960214108228,0.3977928648948669,-0.8873616578198968
1761476035172328200,10.698328125,0.4882376904517412,0.40724180737212295,-0.8740409884758293
1761476035182365700,10.70836572265625,0.5370914454698562,0.401683150331676,-0.8537900814771652
1761476035192401700,10.718401611328124,0.5490531014204025,0.3755211195930838,-0.7734400950856506
1761476035202437600,10.728437744140624,0.5550958887159824,0.35662133494243026,-0.6720186790928244
1761476035212474600,10.738474609375,0.4703133267045021,0.3172802352875471,-0.5826869293443858
1761476035222510600,10.748510498046874,0.2642331202328205,0.3065036974683404,-0.5213825658150016
1761476035232546600,10.758546630859374,0.1266121174812317,0.3551721590474248,-0.5561107648469508
1761476035242582500,10.76858251953125,0.23032909706532953,0.400693700902909,-0.6240539818689227
1761476035252619800,10.778619873046875,0.3598714227795601,0.3791756965778768,-0.6174706579558551
1761476035262655700,10.78865576171875,0.29899288344681263,0.31392332607507706,-0.5603947257764638
1761476035272691700,10.798691650390625,0.28015140485465523,0.2583651049822569,-0.5275796668894589
1761476035282728700,10.808728759765625,0.3357984732747078,0.25905864020437,-0.4845018649242818
1761476035292764700,10.8187646484375,0.4408604377269745,0.28500264427810906,-0.4282264354728162
1761476035302800600,10.828800537109375,0.4775187280386686,0.29272827009409663,-0.3744318630516529
1761476035312836600,10.838836669921875,0.4826087446540594,0.27028131435588,-0.2990114420168102
1761476035322873600,10.84887353515625,0.47848026654720305,0.2559716339744627,-0.23689181658178565
1761476035332909600,10.85890966796875,0.4639648344606161,0.22937530347183346,-0.24521233955100177
1761476035342945500,10.868945556640625,0.46789282155930995,0.20459332891479134,-0.2855956417351961
1761476035352982800,10.878982666015625,0.38435529117286205,0.19903730222284793,-0.3281182940356433
1761476035363018800,10.889018798828126,0.29712241339981554,0.16307050130665302,-0.3798733234532177
1761476035373054700,10.8990546875,0.22832301793992518,0.14302344631701708,-0.3390424236319959
1761476035383090700,10.909090576171875,0.21980711852908133,0.1791146042652428,-0.3013518676631152
1761476035393127700,10.919127685546876,0.24475392825901507,0.1969509974680841,-0.31334874105751515
1761476035403163600,10.92916357421875,0.3488514315932989,0.10910641753748059,-0.3444192943647504
1761476035413199600,10.93919970703125,0.4076397206485271,0.015403174706548452,-0.3595518354363739
1761476035423236600,10.949236572265624,0.47951253220438955,0.004143237284570932,-0.36120603238418697
1761476035433272600,10.9592724609375,0.5981383271068335,0.0633740094102919,-0.3025140433102846
1761476035443308500,10.96930859375,0.6038315703123808,0.13559446536004544,-0.24710735951736568
1761476035453344500,10.979344482421874,0.3986614644229412,0.1568818757995963,-0.17725509400367737
1761476035463381800,10.9893818359375,0.29412790775895115,0.14812617628350852,-0.14218370755724608
1761476035473417700,10.999417724609375,0.44699148782789705,0.1948684921056032,-0.23445815969407557
1761476035483453700,11.00945361328125,0.4838502691477537,0.1922444272123277,-0.26651041751503945
1761476035493490700,11.01949072265625,0.3332359293103218,0.19146160627156494,-0.36192331380806864
1761476035503526700,11.029526611328125,0.40681086860895155,0.1624817416332662,-0.508668703257665
1761476035513562600,11.039562744140625,0.36366204723417755,0.1372933782324195,-0.5670617093849927
1761476035523598600,11.0495986328125,0.10409282715916633,0.2466591773584485,-0.5144629226196556
1761476035533635600,11.059635498046875,0.10523673649728298,0.42882425523549317,-0.5686269859403371
1761476035543671600,11.069671630859375,0.21461773319244384,0.5517278735876083,-0.6641754182465374
1761476035553707500,11.07970751953125,0.23752573057115076,0.5309554269328713,-0.6779738611701875
