time,seconds_elapsed,z,y,x
1761475969387147800,0.086147705078125,0.03665080666542053,0.540829062461853,0.1224951297044754
1761475969397184800,0.096184814453125,0.02844913676381111,0.5304769277572632,0.2196626216173172
1761475969407222000,0.106221923828125,0.045008137822151184,0.4953029751777649,0.3340512216091156
1761475969417259000,0.116259033203125,-0.01695956289768219,0.47026073932647705,0.46943843364715576
1761475969427296000,0.1262958984375,-0.054118379950523376,0.34836331009864807,0.646803081035614
1761475969437333000,0.1363330078125,-0.08657403290271759,0.12576456367969513,0.7814375162124634
1761475969447370000,0.146369873046875,-0.14721980690956116,-0.3137589991092682,0.8018951416015625
1761475969457407000,0.156406982421875,-0.27834728360176086,-0.8576654195785522,0.7332654595375061
1761475969467444000,0.16644384765625,-0.39427894353866577,-1.2947111129760742,0.6483862400054932
1761475969477481000,0.17648095703125,-0.43035146594047546,-1.618225336074829,0.569993257522583
1761475969487518000,0.18651806640625,-0.44096842408180237,-1.825960636138916,0.5275149941444397
1761475969497555000,0.196554931640625,-0.4431888461112976,-1.8744710683822632,0.5588713884353638
1761475969507592000,0.206592041015625,-0.4299215078353882,-1.7966902256011963,0.6406086087226868
1761475969517629000,0.21662890625,-0.4478597044944763,-1.5511271953582764,0.758965790271759
1761475969527666000,0.226666015625,-0.4598460793495178,-1.2165956497192383,0.8870097398757935
1761475969537703000,0.236702880859375,-0.42488929629325867,-0.9532436728477478,1.0125677585601807
1761475969547740000,0.246739990234375,-0.3854180574417114,-0.784288763999939,1.1180654764175415
1761475969557777000,0.25677685546875,-0.3645555377006531,-0.6140013933181763,1.1469392776489258
1761475969567814000,0.26681396484375,-0.34693580865859985,-0.4980471134185791,1.0654349327087402
1761475969577851100,0.27685107421875,-0.28796443343162537,-0.4588346779346466,0.8356359601020813
1761475969587888000,0.28688818359375,-0.17245835065841675,-0.36722540855407715,0.5135849714279175
1761475969597924900,0.2969248046875,0.00010303594172000885,-0.17877747118473053,0.18630774319171906
1761475969607961900,0.3069619140625,0.21762390434741974,0.06691325455904007,-0.1062982901930809
1761475969617999000,0.3169990234375,0.44290298223495483,0.21714450418949127,-0.3438270688056946
1761475969628036000,0.3270361328125,0.6702865958213806,0.2340822070837021,-0.5024694204330444
1761475969638073000,0.337072998046875,0.8925764560699463,0.40091148018836975,-0.5716389417648315
1761475969648109800,0.34710986328125,1.066379427909851,0.659307062625885,-0.594477653503418
1761475969658146800,0.357146728515625,1.1921502351760864,0.47824835777282715,-0.6330010890960693
1761475969668184000,0.36718408203125,1.2972962856292725,0.4245249330997467,-0.654763400554657
1761475969678221000,0.377220947265625,1.357442021369934,0.4735082685947418,-0.683716893196106
1761475969688258000,0.387258056640625,1.435167908668518,0.35316428542137146,-0.6590566039085388
1761475969698294800,0.397294677734375,1.4621422290802002,0.1557115763425827,-0.5785980820655823
1761475969708332000,0.40733203125,1.335442066192627,-0.07597491890192032,-0.49166634678840637
1761475969718369000,0.417369140625,1.0465316772460938,-0.2548775374889374,-0.43875375390052795
1761475969728406000,0.427406005859375,0.7271555662155151,-0.5389409065246582,-0.4976831078529358
1761475969738443000,0.437443115234375,0.5571633577346802,-0.9033191800117493,-0.5879327654838562
1761475969748480000,0.44747998046875,0.539765477180481,-1.0579029321670532,-0.7223307490348816
1761475969758517000,0.45751708984375,0.6331903338432312,-1.0527182817459106,-0.8874050378799438
1761475969768554000,0.467553955078125,0.7728363871574402,-0.9767869114875793,-1.057236671447754
1761475969778591000,0.477591064453125,0.8996290564537048,-0.865837812423706,-1.1992037296295166
1761475969788628000,0.4876279296875,1.0667983293533325,-0.7526031136512756,-1.2302052974700928
1761475969798665000,0.4976650390625,1.1567891836166382,-0.5771409273147583,-1.1834412813186646
1761475969808702000,0.507701904296875,1.1409680843353271,-0.4425484836101532,-1.128553867340088
1761475969818739000,0.517739013671875,1.0491671562194824,-0.37546804547309875,-1.0643099546432495
1761475969828776000,0.52777587890625,0.9386851787567139,-0.4249551594257355,-0.9743363857269287
1761475969838813200,0.537813232421875,0.8426480293273926,-0.46992579102516174,-0.8800178170204163
1761475969848850000,0.547849853515625,0.798241138458252,-0.4702152609825134,-0.7522715330123901
1761475969858887000,0.557886962890625,0.7794357538223267,-0.3993185758590698,-0.5725316405296326
1761475969868924000,0.567923828125,0.7617864608764648,-0.28286972641944885,-0.35265231132507324
1761475969878961000,0.5779609375,0.6819942593574524,-0.15372218191623688,-0.11490136384963989
1761475969888998100,0.587998046875,0.5116206407546997,-0.11745978146791458,0.0940244197845459
1761475969899035000,0.598034912109375,0.29144808650016785,-0.1580025553703308,0.23085373640060425
1761475969909072000,0.60807177734375,0.04938405752182007,-0.1888243854045868,0.30815064907073975
1761475969919108900,0.61810888671875,-0.198240727186203,-0.20402313768863678,0.3142876625061035
1761475969929146000,0.62814599609375,-0.4299086034297943,-0.1816464513540268,0.28112995624542236
1761475969939183000,0.63818310546875,-0.5055673122406006,-0.07979178428649902,0.22223220765590668
1761475969949219800,0.6482197265625,-0.3387055993080139,0.05583954602479935,0.16493774950504303
1761475969959256800,0.6582568359375,-0.11085178703069687,0.14166702330112457,0.1255999505519867
1761475969969294000,0.668294189453125,-0.041095610707998276,0.19605544209480286,0.04595465585589409
1761475969979331000,0.6783310546875,-0.07166382670402527,0.23496884107589722,-0.0062800743617117405
1761475969989368000,0.6883681640625,-0.10383028537034988,0.2604217231273651,-0.003991087898612022
1761475969999404800,0.69840478515625,-0.09860294312238693,0.25007984042167664,0.0725092887878418
1761475970009441800,0.70844189453125,-0.10120644420385361,0.08273425698280334,0.22243726253509521
1761475970019479000,0.71847900390625,-0.1842084527015686,-0.2695346772670746,0.3747405707836151
1761475970029516000,0.72851611328125,-0.3812272548675537,-0.5286181569099426,0.4816816747188568
1761475970039553000,0.738552978515625,-0.4964631199836731,-0.6330980658531189,0.6131224632263184
1761475970049591000,0.748591064453125,-0.5601121187210083,-0.659622848033905,0.6805576682090759
1761475970059627000,0.758626953125,-0.6056082248687744,-0.6338662505149841,0.6613269448280334
1761475970069664000,0.7686640625,-0.6426264047622681,-0.613406240940094,0.5658688545227051
1761475970079701000,0.778700927734375,-0.6336596608161926,-0.6446831822395325,0.4268963932991028
1761475970089738000,0.788738037109375,-0.5857762694358826,-0.7150241732597351,0.2846686840057373
1761475970099775000,0.79877490234375,-0.6000785231590271,-0.7480010390281677,0.15958461165428162
1761475970109812000,0.80881201171875,-0.655235767364502,-0.7711620330810547,0.08611331135034561
1761475970119848000,0.818847900390625,-0.7206010222434998,-0.8325710296630859,0.05925862118601799
1761475970129886200,0.82888623046875,-0.7652784585952759,-0.8969758749008179,0.07263115048408508
1761475970139922200,0.838922119140625,-0.7896578907966614,-0.9638689756393433,0.10972347855567932
1761475970149959200,0.848959228515625,-0.7737907767295837,-1.024775743484497,0.15567311644554138
1761475970159996200,0.85899609375,-0.735270082950592,-1.1130810976028442,0.1798761934041977
1761475970170033000,0.869032958984375,-0.697760283946991,-1.2276153564453125,0.19086572527885437
1761475970180070100,0.879070068359375,-0.6968627572059631,-1.2886310815811157,0.18789905309677124
1761475970190107100,0.889107177734375,-0.655103325843811,-1.1395457983016968,0.22445173561573029
1761475970200144100,0.89914404296875,-0.6867891550064087,-0.9823801517486572,0.2004154622554779
1761475970210181000,0.90918115234375,-0.7391266226768494,-0.9392329454421997,0.11373969912528992
1761475970220218000,0.919218017578125,-0.7269850373268127,-0.8586438298225403,0.032069869339466095
1761475970230255000,0.929255126953125,-0.678030788898468,-0.7090647220611572,-0.052344877272844315
1761475970240292000,0.9392919921875,-0.6317881941795349,-0.5993283987045288,-0.14144733548164368
1761475970250329000,0.9493291015625,-0.5823766589164734,-0.5790449976921082,-0.16429618000984192
1761475970260366000,0.959365966796875,-0.5020359754562378,-0.6113198399543762,-0.13330256938934326
1761475970270403000,0.969403076171875,-0.4377574026584625,-0.6457014679908752,-0.10323788225650787
1761475970280440000,0.979440185546875,-0.38858911395072937,-0.6537474393844604,-0.10249752551317215
1761475970290477000,0.98947705078125,-0.3180600702762604,-0.7182838320732117,-0.10446080565452576
1761475970300514000,0.99951416015625,-0.2689845561981201,-0.7852045893669128,-0.12669706344604492
1761475970310551000,1.009551025390625,-0.27641555666923523,-0.8038126230239868,-0.19857311248779297
1761475970320588000,1.019588134765625,-0.34189650416374207,-0.7593176364898682,-0.3181746304035187
1761475970330625000,1.029625,-0.44339704513549805,-0.6513120532035828,-0.44856804609298706
1761475970340662000,1.039662109375,-0.5241700410842896,-0.5232321619987488,-0.5693909525871277
1761475970350699300,1.04969921875,-0.5412124395370483,-0.517618715763092,-0.6971699595451355
1761475970360736300,1.059736328125,-0.5529356002807617,-0.607302725315094,-0.7700517773628235
1761475970370773000,1.06977294921875,-0.5441908836364746,-0.80112224817276,-0.7426484227180481
1761475970380810000,1.07981005859375,-0.5385175347328186,-0.8900919556617737,-0.6416134834289551
1761475970390847200,1.08984716796875,-0.5035707354545593,-0.9435269832611084,-0.5267190933227539
1761475970400884200,1.09988427734375,-0.47267255187034607,-1.0603861808776855,-0.40993398427963257
1761475970410921200,1.109921142578125,-0.41310882568359375,-1.1468236446380615,-0.32335329055786133
1761475970420958000,1.1199580078125,-0.3590213358402252,-1.3296014070510864,-0.2645024061203003
1761475970430995000,1.129994873046875,-0.2677103281021118,-1.564496397972107,-0.2010246366262436
1761475970441032200,1.1400322265625,-0.14513927698135376,-1.8248144388198853,-0.138197660446167
1761475970451069200,1.150069091796875,-0.009481316432356834,-2.0612714290618896,-0.07028624415397644
1761475970461106200,1.160106201171875,0.12289061397314072,-2.2334601879119873,-0.026580845937132835
1761475970471143000,1.170142822265625,0.2138221263885498,-2.295785903930664,-0.006767460145056248
1761475970481180200,1.18018017578125,0.26608535647392273,-2.2691030502319336,-0.016853200271725655
1761475970491217200,1.190217041015625,0.30548095703125,-2.206726312637329,-0.05503653734922409
1761475970501254100,1.200254150390625,0.31860899925231934,-2.0812594890594482,-0.14149145781993866
1761475970511291100,1.210291015625,0.2907065153121948,-1.962831974029541,-0.27052611112594604
1761475970521327900,1.220327880859375,0.25389719009399414,-1.8467823266983032,-0.4437340199947357
1761475970531365000,1.230365234375,0.18158411979675293,-1.7551376819610596,-0.6514789462089539
1761475970541402000,1.240402099609375,-0.16278129816055298,-1.6506233215332031,-0.8574497699737549
1761475970551439000,1.250439208984375,-0.39326587319374084,-1.6816872358322144,-1.027850866317749
1761475970561476000,1.26047607421875,-0.4163477122783661,-1.7759438753128052,-1.1060527563095093
1761475970571513000,1.27051318359375,-0.34080955386161804,-1.7910975217819214,-1.040562391281128
1761475970581550000,1.280550048828125,-0.14458979666233063,-1.7657359838485718,-0.8722230792045593
1761475970591587000,1.290587158203125,0.14548863470554352,-1.6809241771697998,-0.6626775860786438
1761475970601624000,1.3006240234375,0.45518484711647034,-1.4506934881210327,-0.42285147309303284
1761475970611661300,1.310661376953125,0.5578888654708862,-1.0727431774139404,-0.13105955719947815
1761475970621698000,1.320697998046875,0.44419097900390625,-0.8618336915969849,-0.037757858633995056
1761475970631735000,1.330735107421875,0.25026729702949524,-0.8124088644981384,-0.15098322927951813
1761475970641772000,1.34077197265625,0.003789244219660759,-0.6638325452804565,-0.29825717210769653
1761475970651809000,1.35080908203125,-0.19020633399486542,-0.5404176712036133,-0.4514075815677643
1761475970661846300,1.36084619140625,-0.2952587902545929,-0.5313306450843811,-0.6132235527038574
1761475970671883000,1.370883056640625,-0.2745111584663391,-0.57212895154953,-0.698645293712616
1761475970681920000,1.380919921875,-0.19881868362426758,-0.6319387555122375,-0.6907453536987305
1761475970691957000,1.39095703125,-0.21307246387004852,-0.6993122100830078,-0.6703082323074341
1761475970701994200,1.400994140625,-0.2762046754360199,-0.7311263084411621,-0.636164665222168
1761475970712030200,1.4110302734375,-0.340188205242157,-0.6312745213508606,-0.6040179133415222
1761475970722067200,1.421067138671875,-0.36184754967689514,-0.40252092480659485,-0.5621750354766846
1761475970732104000,1.43110400390625,-0.3152369260787964,-0.18055416643619537,-0.5452235341072083
1761475970742141000,1.441140869140625,-0.22578895092010498,-0.029331520199775696,-0.5488722920417786
1761475970752178200,1.45117822265625,-0.12556514143943787,0.058166638016700745,-0.5336695909500122
1761475970762215200,1.461215087890625,-0.07568083703517914,0.04884618893265724,-0.4933701157569885
1761475970772252200,1.471252197265625,-0.08922700583934784,-0.025103138759732246,-0.45306718349456787
1761475970782289200,1.4812890625,-0.12236713618040085,-0.0824471190571785,-0.42111676931381226
1761475970792326000,1.491325927734375,-0.15177269279956818,-0.14493632316589355,-0.3857707679271698
1761475970802363100,1.501363037109375,-0.16601601243019104,-0.18653415143489838,-0.3604263365268707
1761475970812400000,1.511400146484375,-0.2115054577589035,-0.09378210455179214,-0.2966257929801941
1761475970822437000,1.52143701171875,-0.28965994715690613,0.03417321667075157,-0.2148083597421646
1761475970832474000,1.53147412109375,-0.26039955019950867,0.21881629526615143,-0.17520315945148468
1761475970842511000,1.541510986328125,-0.1488170027732849,0.4128563106060028,-0.15790699422359467
1761475970852548000,1.551548095703125,-0.020537052303552628,0.5790407657623291,-0.17352057993412018
1761475970862585000,1.561585205078125,0.0818830206990242,0.6478022336959839,-0.24484215676784515
1761475970872622000,1.5716220703125,0.1706264615058899,0.6257147789001465,-0.3359965682029724
1761475970882659000,1.5816591796875,0.21319039165973663,0.5786079168319702,-0.40128982067108154
1761475970892696000,1.591696044921875,0.1811016947031021,0.5503818392753601,-0.3826250433921814
1761475970902733000,1.601733154296875,0.11939330399036407,0.5041393637657166,-0.2994095981121063
1761475970912770000,1.61177001953125,0.06056167185306549,0.4078157842159271,-0.18700236082077026
1761475970922807000,1.62180712890625,0.006434407085180283,0.32068759202957153,-0.05992002785205841
1761475970932844300,1.63184423828125,-0.028514254838228226,0.28316792845726013,0.05417938157916069
1761475970942881000,1.641881103515625,0.014092971570789814,0.19082608819007874,0.11844054609537125
1761475970952918000,1.65191796875,0.04491719976067543,0.21159395575523376,0.1400102823972702
1761475970962955000,1.661955078125,0.11210532486438751,0.29977452754974365,0.1536036878824234
1761475970972992300,1.6719921875,0.2570417523384094,0.3171255588531494,0.13218840956687927
1761475970983029200,1.682029296875,0.42836201190948486,0.20699216425418854,0.06803746521472931
1761475970993066000,1.69206591796875,0.5544413924217224,0.10335472226142883,-0.014402284286916256
1761475971003103000,1.70210302734375,0.6043758988380432,0.14008358120918274,-0.045410171151161194
1761475971013140200,1.71214013671875,0.6019843816757202,0.26845407485961914,0.0031887898221611977
1761475971023176200,1.72217626953125,0.6062735915184021,0.3672162890434265,0.06664738059043884
1761475971033213200,1.732213134765625,0.6204250454902649,0.4130897521972656,0.12882739305496216
1761475971043250200,1.742250244140625,0.6473163366317749,0.45906323194503784,0.17518460750579834
1761475971053287000,1.752286865234375,0.673761785030365,0.5054594874382019,0.20937107503414154
1761475971063324000,1.762323974609375,0.6741634607315063,0.4887518286705017,0.1997414082288742
1761475971073361200,1.772361083984375,0.642431378364563,0.4464794993400574,0.14205814898014069
1761475971083398100,1.782398193359375,0.5949773192405701,0.36885780096054077,0.0501570850610733
1761475971093435100,1.79243505859375,0.5632028579711914,0.2659846842288971,-0.05019056051969528
1761475971103471900,1.802471923828125,0.5554608106613159,0.18993981182575226,-0.11064715683460236
1761475971113509000,1.812509033203125,0.5482862591743469,0.14131875336170197,-0.11586935073137283
1761475971123546400,1.82254638671875,0.5435414910316467,0.07824438810348511,-0.07009901106357574
1761475971133583400,1.832583251953125,0.5531488060951233,0.014604154974222183,-0.005220684222877026
1761475971143620400,1.842620361328125,0.5795599222183228,-0.03470906615257263,0.06381039321422577
1761475971153657000,1.852656982421875,0.602186918258667,-0.05182333663105965,0.17468629777431488
1761475971163694000,1.862694091796875,0.6012874245643616,-0.015662847086787224,0.29363420605659485
1761475971173731300,1.8727314453125,0.5672687292098999,0.07588651031255722,0.38902172446250916
1761475971183768300,1.882768310546875,0.4910513162612915,0.22665689885616302,0.4200146794319153
1761475971193805300,1.892805419921875,0.39986252784729004,0.41771048307418823,0.3797767162322998
1761475971203842000,1.902842041015625,0.32548290491104126,0.591314435005188,0.29118338227272034
1761475971213879300,1.91287939453125,0.28239166736602783,0.7165418863296509,0.18856459856033325
1761475971223916300,1.922916259765625,0.28092917799949646,0.7876276969909668,0.12365376204252243
1761475971233953300,1.932953369140625,0.2884523272514343,0.7960398197174072,0.11778388172388077
1761475971243990300,1.942990234375,0.2797141969203949,0.7479745745658875,0.19176828861236572
1761475971254027300,1.95302734375,0.24582573771476746,0.6550297141075134,0.3197939097881317
1761475971264064300,1.963064208984375,0.18447837233543396,0.564873456954956,0.42370858788490295
1761475971274101200,1.973101318359375,0.13135284185409546,0.4801234006881714,0.4716486632823944
1761475971284138200,1.98313818359375,0.09914080053567886,0.4130116105079651,0.45053955912590027
1761475971294175200,1.99317529296875,0.07795402407646179,0.36973658204078674,0.39580413699150085
1761475971304212200,2.003212158203125,0.07461760938167572,0.336288183927536,0.33066996932029724
1761475971314249200,2.013249267578125,0.08686495572328568,0.2986864745616913,0.28156954050064087
1761475971324286200,2.0232861328125,0.1010236069560051,0.2855627238750458,0.26927560567855835
1761475971334323200,2.0333232421875,0.11959889531135559,0.28854119777679443,0.2924075424671173
1761475971344359200,2.043359130859375,0.1399049609899521,0.30358779430389404,0.30994588136672974
1761475971354396400,2.053396484375,0.15180157124996185,0.3474860191345215,0.3177010118961334
1761475971364433400,2.063433349609375,0.14571358263492584,0.42344680428504944,0.30482426285743713
1761475971374470100,2.07347021484375,0.13996967673301697,0.5129492878913879,0.28468385338783264
1761475971384507100,2.083507080078125,0.1440272033214569,0.5556216835975647,0.24971316754817963
1761475971394544400,2.09354443359375,0.15735498070716858,0.5548818707466125,0.20773400366306305
1761475971404581400,2.103581298828125,0.17956912517547607,0.5213482975959778,0.18237946927547455
1761475971414618400,2.113618408203125,0.19823840260505676,0.44204601645469666,0.1845342367887497
1761475971424655000,2.123655029296875,0.19893385469913483,0.3362424671649933,0.2063879817724228
1761475971434692000,2.133692138671875,0.20115067064762115,0.236261785030365,0.2429230809211731
1761475971444729300,2.143729248046875,0.19765903055667877,0.1896500587463379,0.2669975459575653
1761475971454766300,2.153766357421875,0.2073979377746582,0.1901209056377411,0.2767396569252014
1761475971464803300,2.16380322265625,0.2261601835489273,0.20446336269378662,0.28037333488464355
1761475971474840000,2.173840087890625,0.26258400082588196,0.18805377185344696,0.28961530327796936
1761475971484877300,2.183877197265625,0.3116200566291809,0.1540485918521881,0.29339683055877686
1761475971494914300,2.193914306640625,0.366155207157135,0.10719799995422363,0.2946051061153412
1761475971504951300,2.203951416015625,0.4143475890159607,0.06809823215007782,0.29604026675224304
1761475971514988300,2.21398828125,0.4526638388633728,0.023286553099751472,0.3002110719680786
1761475971525025300,2.224025390625,0.4592342972755432,-0.006519772112369537,0.3084602952003479
1761475971535062300,2.234062255859375,0.4466433823108673,-0.03174363821744919,0.33356350660324097
1761475971545099300,2.244099365234375,0.4317648410797119,-0.057900670915842056,0.3465687930583954
1761475971555136300,2.25413623046875,0.4085303544998169,-0.07867039740085602,0.34330934286117554
1761475971565173200,2.26417333984375,0.3784121870994568,-0.0903644859790802,0.3467596471309662
1761475971575210200,2.274210205078125,0.34910038113594055,-0.0866192877292633,0.33956459164619446
1761475971585247200,2.284247314453125,0.32698819041252136,-0.08084823936223984,0.33211544156074524
1761475971595284200,2.2942841796875,0.30499234795570374,-0.09068223088979721,0.3324185013771057
1761475971605321200,2.3043212890625,0.28605979681015015,-0.11200916767120361,0.3227714002132416
1761475971615358500,2.3143583984375,0.2603493928909302,-0.15817105770111084,0.2838202714920044
1761475971625395200,2.324395263671875,0.22496891021728516,-0.21563176810741425,0.23860520124435425
1761475971635432200,2.33443212890625,0.17058369517326355,-0.2524089515209198,0.22498714923858643
1761475971645469200,2.34446923828125,0.09574265033006668,-0.24286094307899475,0.23005688190460205
1761475971655506400,2.35450634765625,0.022278552874922752,-0.19041530787944794,0.2537776827812195
1761475971665543400,2.36454345703125,-0.019056562334299088,-0.1325332671403885,0.2373977154493332
1761475971675580200,2.374580078125,-0.029266055673360825,-0.0892057716846466,0.18459655344486237
1761475971685616000,2.3846162109375,-0.028794530779123306,-0.07449387013912201,0.12493935972452164
1761475971695653000,2.394653076171875,-0.031993523240089417,-0.08369376510381699,0.07874470204114914
1761475971705690000,2.404690185546875,-0.043492935597896576,-0.09677886217832565,0.0609026700258255
1761475971715727400,2.414727294921875,-0.06134383752942085,-0.10948853194713593,0.07150018960237503
1761475971725764400,2.424764404296875,-0.08941511809825897,-0.10969535261392593,0.09747401624917984
1761475971735801300,2.43480126953125,-0.1057533472776413,-0.11373457312583923,0.11965708434581757
1761475971745838000,2.444838134765625,-0.10902659595012665,-0.12373022735118866,0.12916862964630127
1761475971755875300,2.454875244140625,-0.09696487337350845,-0.1270706206560135,0.13650350272655487
1761475971765912300,2.464912353515625,-0.07529233396053314,-0.12094708532094955,0.13780802488327026
1761475971775949300,2.47494921875,-0.05959753319621086,-0.10977379977703094,0.13488493859767914
1761475971785986300,2.484986328125,-0.049607858061790466,-0.08953610807657242,0.13031023740768433
1761475971796023300,2.495023193359375,-0.04273184388875961,-0.08894462138414383,0.11684689670801163
1761475971806060300,2.505060302734375,-0.03726540505886078,-0.10227256268262863,0.10509845614433289
1761475971816097300,2.51509716796875,-0.04370918869972229,-0.11448954790830612,0.08798737823963165
1761475971826134300,2.52513427734375,-0.06196131557226181,-0.11752934008836746,0.07761907577514648
1761475971836171300,2.535171142578125,-0.08682139217853546,-0.10207048803567886,0.06868390738964081
1761475971846208300,2.545208251953125,-0.10211014747619629,-0.06481416523456573,0.05940386652946472
1761475971856245200,2.555245361328125,-0.10731609165668488,-0.01695316657423973,0.04313408210873604
1761475971866282200,2.5652822265625,-0.10475059598684311,0.02211882546544075,0.02615981735289097
1761475971876319200,2.5753193359375,-0.09414668381214142,0.030047323554754257,0.009047674015164375
1761475971886356500,2.5853564453125,-0.08392098546028137,0.011799764819443226,0.0018312102183699608
1761475971896393200,2.595393310546875,-0.08436493575572968,-0.026874126866459846,-0.001380561850965023
1761475971906430200,2.60543017578125,-0.09160971641540527,-0.09637415409088135,0.00254752766340971
1761475971916467200,2.61546728515625,-0.11042814701795578,-0.15137001872062683,0.009960968978703022
1761475971926504400,2.62550439453125,-0.12271764129400253,-0.18289636075496674,0.003637467510998249
1761475971936541400,2.63554150390625,-0.1234516128897667,-0.18412940204143524,-0.020773865282535553
1761475971946578200,2.645578125,-0.11025956273078918,-0.182386115193367,-0.06419485062360764
1761475971956615200,2.655615234375,-0.09104672074317932,-0.16100414097309113,-0.11231683939695358
1761475971966652200,2.665652099609375,-0.06664543598890305,-0.13281874358654022,-0.15234452486038208
1761475971976689400,2.675689453125,-0.03563132509589195,-0.12616802752017975,-0.17651084065437317
1761475971986726400,2.685726318359375,-0.014225255697965622,-0.13567371666431427,-0.18509648740291595
1761475971996762400,2.695762451171875,-0.0008734967559576035,-0.13556666672229767,-0.17338204383850098
1761475972006799000,2.705799072265625,0.01762421429157257,-0.13652893900871277,-0.15102210640907288
1761475972016836000,2.715836181640625,0.03941739350557327,-0.11755072325468063,-0.12986621260643005
1761475972026873300,2.725873291015625,0.06598847359418869,-0.07590790838003159,-0.12344220280647278
1761475972036910300,2.735910400390625,0.09314099699258804,-0.02995213307440281,-0.13483068346977234
1761475972046947300,2.745947265625,0.10593760013580322,-0.01409653015434742,-0.15760639309883118
1761475972056984000,2.755984130859375,0.10031220316886902,-0.054264191538095474,-0.18637382984161377
1761475972067021300,2.766021240234375,0.07620397955179214,-0.15617592632770538,-0.21249046921730042
1761475972077058300,2.776058349609375,0.04386281967163086,-0.3217041790485382,-0.23489058017730713
1761475972087095300,2.78609521484375,0.020904861390590668,-0.5137411952018738,-0.2491413950920105
1761475972097132300,2.79613232421875,-0.00442606071010232,-0.7019851207733154,-0.259079247713089
1761475972107169000,2.8061689453125,-0.020857933908700943,-0.8481512069702148,-0.24938155710697174
1761475972117209600,2.816209716796875,-0.04274219274520874,-0.9307494163513184,-0.2334747612476349
1761475972127246600,2.82624658203125,-0.058961495757102966,-0.9174416065216064,-0.24168717861175537
1761475972137283800,2.836283935546875,-0.07824011892080307,-0.8381121754646301,-0.2879369556903839
1761475972147320800,2.84632080078125,-0.10339277982711792,-0.7001429200172424,-0.369463175535202
1761475972157357600,2.856357666015625,-0.13074584305286407,-0.5014899969100952,-0.46190041303634644
1761475972167394600,2.86639453125,-0.15371543169021606,-0.29998746514320374,-0.5573956370353699
1761475972177431800,2.876431884765625,-0.16227003931999207,-0.15047360956668854,-0.6438106894493103
1761475972187468800,2.88646875,-0.1586655229330063,-0.08477285504341125,-0.7056141495704651
1761475972197505800,2.896505859375,-0.1401597410440445,-0.0945248231291771,-0.7063779234886169
1761475972207542800,2.906542724609375,-0.09841371327638626,-0.12971659004688263,-0.6435919404029846
1761475972217578800,2.916578857421875,-0.04441173002123833,-0.15804755687713623,-0.5334095358848572
1761475972227615500,2.926615478515625,0.005546369589865208,-0.1893744021654129,-0.39398497343063354
1761475972237652700,2.93665283203125,0.0581725649535656,-0.21796450018882751,-0.25518739223480225
1761475972247689700,2.946689697265625,0.10324171930551529,-0.28543978929519653,-0.1419205218553543
1761475972257726700,2.956726806640625,0.12060099840164185,-0.3860984742641449,-0.06090770289301872
1761475972267763700,2.966763671875,0.10681759566068649,-0.4934863746166229,-0.021630827337503433
1761475972277800700,2.97680078125,0.0621475987136364,-0.5631021857261658,-0.02595606818795204
1761475972287837700,2.986837646484375,-0.004567906726151705,-0.5595240592956543,-0.06001206859946251
1761475972297874700,2.996874755859375,-0.06659212708473206,-0.5219071507453918,-0.10318377614021301
1761475972307911700,3.00691162109375,-0.1146005168557167,-0.4973592460155487,-0.17892149090766907
1761475972317949000,3.016948974609375,-0.16226311028003693,-0.47185495495796204,-0.27088096737861633
1761475972327985700,3.026985595703125,-0.23067662119865417,-0.4088662564754486,-0.34558969736099243
1761475972338022700,3.037022705078125,-0.3153126835823059,-0.30411455035209656,-0.39847317337989807
1761475972348059600,3.0470595703125,-0.38754335045814514,-0.20413005352020264,-0.4329953193664551
1761475972358096600,3.0570966796875,-0.4301307499408722,-0.12170921266078949,-0.47947731614112854
1761475972368134000,3.0671337890625,-0.44554227590560913,-0.08473119884729385,-0.5233771204948425
1761475972378170600,3.077170654296875,-0.4431379735469818,-0.08264408260583878,-0.5546479821205139
1761475972388207600,3.08720751953125,-0.44464924931526184,-0.11001274734735489,-0.5598762035369873
1761475972398244600,3.09724462890625,-0.45904549956321716,-0.15651287138462067,-0.519626796245575
1761475972408281900,3.10728173828125,-0.49538034200668335,-0.19497118890285492,-0.451667845249176
1761475972418317800,3.11731787109375,-0.5376710891723633,-0.1920558214187622,-0.38321423530578613
1761475972428354800,3.127354736328125,-0.5672995448112488,-0.1546659916639328,-0.3317458927631378
1761475972438391800,3.137391845703125,-0.5783228874206543,-0.10896747559309006,-0.29867154359817505
1761475972448428500,3.147428466796875,-0.571520984172821,-0.07840526849031448,-0.29193928837776184
1761475972458465800,3.1574658203125,-0.5528594255447388,-0.05426184833049774,-0.29005563259124756
1761475972468502800,3.167502685546875,-0.5424742698669434,-0.03332389518618584,-0.27674445509910583
1761475972478539800,3.177539794921875,-0.5395697951316833,-0.024890732020139694,-0.2653525173664093
1761475972488576800,3.18757666015625,-0.5413967370986938,-0.030076391994953156,-0.24830842018127441
1761475972498613500,3.197613525390625,-0.5472242832183838,-0.03858412429690361,-0.23443734645843506
1761475972508650800,3.207650634765625,-0.5430603623390198,-0.050221025943756104,-0.21415184438228607
1761475972518687700,3.217687744140625,-0.5310899615287781,-0.05212678387761116,-0.1915953904390335
1761475972528724700,3.227724853515625,-0.5120415091514587,-0.04473887011408806,-0.1650790572166443
1761475972538761700,3.23776171875,-0.4954223334789276,-0.011922333389520645,-0.13030964136123657
1761475972548798700,3.247798828125,-0.48570069670677185,0.060240939259529114,-0.10053002089262009
1761475972558835700,3.257835693359375,-0.47193482518196106,0.13899220526218414,-0.09087260067462921
1761475972568872700,3.267872802734375,-0.4552873969078064,0.17627191543579102,-0.09831510484218597
1761475972578909700,3.27790966796875,-0.44602251052856445,0.18839116394519806,-0.11906086653470993
1761475972588945700,3.287945556640625,-0.443864643573761,0.18997566401958466,-0.1433074176311493
1761475972598983000,3.29798291015625,-0.44528383016586304,0.18305863440036774,-0.15399974584579468
1761475972609019600,3.30801953125,-0.4520057439804077,0.16076549887657166,-0.17114605009555817
1761475972619056600,3.318056640625,-0.451650470495224,0.11809580028057098,-0.19289742410182953
1761475972629093600,3.32809375,-0.4562642276287079,0.0685807392001152,-0.20490293204784393
1761475972639131000,3.338130859375,-0.46839439868927,0.04221571236848831,-0.21937401592731476
1761475972649168000,3.34816796875,-0.4984078109264374,0.0647202879190445,-0.23890717327594757
1761475972659204600,3.35820458984375,-0.5300238132476807,0.11051972955465317,-0.26897984743118286
1761475972669241600,3.36824169921875,-0.5735021233558655,0.15549899637699127,-0.2997491657733917
1761475972679278600,3.378278564453125,-0.6143337488174438,0.1980576366186142,-0.3252691626548767
1761475972689315800,3.38831591796875,-0.6450601816177368,0.23795975744724274,-0.3388262987136841
1761475972699352800,3.398352783203125,-0.675824761390686,0.28009387850761414,-0.3251139223575592
1761475972709389600,3.4083896484375,-0.7044492363929749,0.3183400332927704,-0.2895434498786926
1761475972719426600,3.418426513671875,-0.7477931976318359,0.3574458956718445,-0.26303085684776306
1761475972729463800,3.4284638671875,-0.8004939556121826,0.40383458137512207,-0.26298442482948303
1761475972739499800,3.438499755859375,-0.8528245091438293,0.4745071530342102,-0.2948768436908722
1761475972749536800,3.448536865234375,-0.9009230732917786,0.5617178082466125,-0.3508155941963196
1761475972759573800,3.45857373046875,-0.9410132169723511,0.6656804084777832,-0.4186401963233948
1761475972769610800,3.46861083984375,-0.9687151312828064,0.7557425498962402,-0.4818350076675415
1761475972779647700,3.478647705078125,-0.98622727394104,0.8367511630058289,-0.5373972654342651
1761475972789684700,3.488684814453125,-0.9992997050285339,0.9187474846839905,-0.5834060907363892
1761475972799721700,3.4987216796875,-1.0134085416793823,1.0101559162139893,-0.6169110536575317
1761475972809758700,3.5087587890625,-1.0197449922561646,1.0876866579055786,-0.6490879058837891
1761475972819795700,3.518795654296875,-1.0261797904968262,1.1388965845108032,-0.6788191795349121
1761475972829832700,3.528832763671875,-1.0178626775741577,1.139944076538086,-0.6933665871620178
1761475972839869700,3.53886962890625,-1.0019545555114746,1.0871485471725464,-0.6922858953475952
1761475972849906700,3.54890673828125,-0.9839387536048889,1.0323156118392944,-0.6725984811782837
1761475972859943700,3.558943603515625,-0.9647448062896729,0.9741162061691284,-0.6572940945625305
1761475972869979600,3.568979736328125,-0.9458692669868469,0.9151509404182434,-0.6552143692970276
1761475972880017000,3.579016845703125,-0.9241663813591003,0.8712176084518433,-0.6535030603408813
1761475972890053600,3.5890537109375,-0.901129961013794,0.8216882348060608,-0.6544792056083679
1761475972900090600,3.599090576171875,-0.8799365162849426,0.7709465026855469,-0.6616931557655334
1761475972910127600,3.609127685546875,-0.8507621884346008,0.7137995362281799,-0.674243152141571
1761475972920164900,3.619164794921875,-0.8267058730125427,0.6566818952560425,-0.6796656250953674
1761475972930201900,3.629201904296875,-0.7966827154159546,0.6333426833152771,-0.676856517791748
1761475972940238600,3.639238525390625,-0.7711741924285889,0.6351763010025024,-0.6648789644241333
1761475972950275600,3.649275634765625,-0.7513312697410583,0.6297304630279541,-0.6564269065856934
1761475972960312600,3.6593125,-0.74268639087677,0.5991957187652588,-0.6669415831565857
1761475972970349800,3.669349853515625,-0.7371090650558472,0.5489568710327148,-0.6858587265014648
1761475972980385800,3.6793857421875,-0.7387921810150146,0.497662216424942,-0.6992301940917969
1761475972990422800,3.6894228515625,-0.7430459856987,0.4776960611343384,-0.6952441334724426
1761475973000459800,3.699459716796875,-0.7534304261207581,0.49049946665763855,-0.6661933064460754
1761475973010496500,3.70949658203125,-0.7631872892379761,0.5287574529647827,-0.6352302432060242
1761475973020533800,3.71953369140625,-0.7813513875007629,0.5508987307548523,-0.6237080693244934
1761475973030570800,3.72957080078125,-0.808062732219696,0.5493864417076111,-0.6474465727806091
1761475973040607700,3.739607666015625,-0.8471632599830627,0.5360522866249084,-0.7030946016311646
1761475973050644700,3.749644775390625,-0.8992956876754761,0.5144894123077393,-0.7564491629600525
1761475973060681700,3.759681640625,-0.9523309469223022,0.4549461901187897,-0.7956705689430237
1761475973070718700,3.76971875,-1.002107858657837,0.3662596642971039,-0.8132579922676086
1761475973080755700,3.779755615234375,-1.0381237268447876,0.24780495464801788,-0.7872490286827087
1761475973090791700,3.789791748046875,-1.0553058385849,0.1302727311849594,-0.7418253421783447
1761475973100828700,3.79982861328125,-1.0266963243484497,0.04404570162296295,-0.6845183372497559
1761475973110866000,3.809865966796875,-0.9531984925270081,0.08744753897190094,-0.6139312386512756
1761475973120899300,3.8198994140625,-0.9111596941947937,0.494706928730011,-0.36028701066970825
1761475973130936000,3.82993603515625,-0.8683520555496216,0.4929127097129822,-0.23218150436878204
1761475973140973300,3.839973388671875,-0.8157764673233032,0.2343195080757141,-0.27620911598205566
1761475973151010300,3.85001025390625,-0.7402744293212891,0.019657647237181664,-0.3918626606464386
1761475973161047300,3.86004736328125,-0.7078688144683838,0.15882620215415955,-0.4879457950592041
1761475973171084300,3.870084228515625,-0.7583884000778198,0.43492230772972107,-0.5713364481925964
1761475973181121300,3.880121337890625,-0.8484972715377808,0.5903773903846741,-0.6617220044136047
1761475973191158300,3.890158203125,-0.9360591769218445,0.6020234823226929,-0.7550303339958191
1761475973201194200,3.9001943359375,-1.0030014514923096,0.5546623468399048,-0.8201110363006592
1761475973211231200,3.910231201171875,-1.0465645790100098,0.5110478401184082,-0.8454565405845642
1761475973221268200,3.920268310546875,-1.0662498474121094,0.4508119523525238,-0.8134360313415527
1761475973231305500,3.930305419921875,-1.0694217681884766,0.4125921428203583,-0.7240549325942993
1761475973241342200,3.94034228515625,-1.0568079948425293,0.32680773735046387,-0.6177167892456055
1761475973251379200,3.950379150390625,-1.0358107089996338,0.21887381374835968,-0.5347442030906677
1761475973261411000,3.9604111328125,-1.0059542655944824,0.0986776277422905,-0.48602885007858276
1761475973271448000,3.970447998046875,-0.9948281645774841,0.1355029046535492,-0.39076027274131775
1761475973281485300,3.9804853515625,-1.0064163208007812,0.10041601210832596,-0.2957805097103119
1761475973291522300,3.990522216796875,-1.0210241079330444,0.04830639064311981,-0.27906686067581177
1761475973301559300,4.000559326171875,-1.0391613245010376,0.11414053291082382,-0.38660743832588196
1761475973311596000,4.010595947265625,-1.0463294982910156,0.2515949308872223,-0.5780637264251709
1761475973321632300,4.02063232421875,-1.0111955404281616,0.30724623799324036,-0.6943698525428772
1761475973331669200,4.030669189453125,-0.9725023508071899,0.262911319732666,-0.6941620707511902
1761475973341706200,4.040706298828125,-0.9401489496231079,0.06438065320253372,-0.6000067591667175
1761475973351743200,4.0507431640625,-0.9238279461860657,-0.09842032194137573,-0.4556909501552582
1761475973361780200,4.0607802734375,-0.9310398101806641,-0.05941645801067352,-0.3062862753868103
1761475973371817500,4.0708173828125,-0.9483206868171692,0.10170941054821014,-0.16087250411510468
1761475973381854200,4.080854248046875,-0.969409704208374,0.18215365707874298,-0.06320773810148239
1761475973391891200,4.09089111328125,-0.9903964400291443,0.11526250094175339,-0.05908465012907982
1761475973401928200,4.10092822265625,-0.9972964525222778,-0.003938463982194662,-0.1536862552165985
1761475973411964200,4.110964111328125,-0.9716590642929077,-0.1096850037574768,-0.3309844136238098
1761475973422001400,4.12100146484375,-0.9326373338699341,-0.11342914402484894,-0.5472909212112427
1761475973432038400,4.131038330078125,-0.8947545289993286,0.007910514250397682,-0.7617508172988892
1761475973442075100,4.1410751953125,-0.8775156140327454,0.14544732868671417,-0.9537647366523743
1761475973452112100,4.151112060546875,-0.8732717037200928,0.22051459550857544,-1.120511770248413
1761475973462149000,4.161149169921875,-0.8935585618019104,0.33868545293807983,-1.2204558849334717
1761475973472186400,4.171186279296875,-0.9412349462509155,0.46117228269577026,-1.2306015491485596
1761475973482223400,4.181223388671875,-0.9942805767059326,0.5034965872764587,-1.1663904190063477
1761475973492260000,4.191260009765625,-1.0374515056610107,0.46018701791763306,-1.050890564918518
1761475973502296300,4.20129638671875,-1.0642969608306885,0.36809036135673523,-0.9118375778198242
1761475973512333000,4.2113330078125,-1.0817533731460571,0.2808179259300232,-0.7764747142791748
1761475973522370300,4.221370361328125,-1.0877313613891602,0.22014552354812622,-0.6683034896850586
1761475973532407300,4.2314072265625,-1.065497636795044,0.17040593922138214,-0.6084081530570984
1761475973542444300,4.2414443359375,-1.0001368522644043,0.15459822118282318,-0.5946664810180664
1761475973552481300,4.251481201171875,-0.9136514663696289,0.18698705732822418,-0.57899010181427
1761475973562518300,4.261518310546875,-0.8418758511543274,0.25351014733314514,-0.5722288489341736
1761475973572555300,4.27155517578125,-0.7843391299247742,0.33779841661453247,-0.5745672583580017
1761475973582592300,4.28159228515625,-0.7550872564315796,0.4303909242153168,-0.559299886226654
1761475973592628200,4.291628173828125,-0.7672081589698792,0.48721301555633545,-0.5485410094261169
1761475973602665200,4.301665283203125,-0.820040225982666,0.5506892204284668,-0.5300277471542358
1761475973612702500,4.311702392578125,-0.8914603590965271,0.5760177373886108,-0.5085194110870361
1761475973622739200,4.3217392578125,-0.9539653062820435,0.5328947305679321,-0.5011749267578125
1761475973632776200,4.331776123046875,-1.0164276361465454,0.5376552939414978,-0.49272140860557556
1761475973642813200,4.341813232421875,-1.0985018014907837,0.5935371518135071,-0.4835324287414551
1761475973652850200,4.35185009765625,-1.1801071166992188,0.572790265083313,-0.5034623742103577
1761475973662887400,4.361887451171875,-1.222370982170105,0.3984581232070923,-0.5858789682388306
1761475973672924200,4.371924072265625,-1.259605050086975,0.2834923267364502,-0.7313264608383179
1761475973682960400,4.38196044921875,-1.3077887296676636,0.3341751992702484,-0.8976646065711975
1761475973692997000,4.3919970703125,-1.3705158233642578,0.5791634321212769,-0.9780682921409607
1761475973703034000,4.4020341796875,-1.4098472595214844,0.6660909056663513,-1.0041792392730713
1761475973713071400,4.4120712890625,-1.4295005798339844,0.5554001331329346,-0.970018208026886
1761475973723108400,4.4221083984375,-1.4623188972473145,0.41203391551971436,-0.8661131262779236
1761475973733145300,4.432145263671875,-1.511143445968628,0.3411935567855835,-0.733003556728363
1761475973743182000,4.44218212890625,-1.5736998319625854,0.31042447686195374,-0.6009922623634338
1761475973753218000,4.452218017578125,-1.6295489072799683,0.30478769540786743,-0.49557846784591675
1761475973763255300,4.46225537109375,-1.6864826679229736,0.3188808858394623,-0.39902475476264954
1761475973773292300,4.472292236328125,-1.7554547786712646,0.35150060057640076,-0.3114960491657257
1761475973783329300,4.482329345703125,-1.83835768699646,0.35945892333984375,-0.25360557436943054
1761475973793366300,4.4923662109375,-1.9109997749328613,0.47543400526046753,-0.20356298983097076
1761475973803403300,4.5024033203125,-1.9317572116851807,0.638432502746582,-0.16302143037319183
1761475973813440300,4.512440185546875,-1.8951656818389893,0.7544127106666565,-0.14279130101203918
1761475973823477200,4.522477294921875,-1.8298135995864868,0.8000233173370361,-0.1460624635219574
1761475973833513200,4.53251318359375,-1.7722328901290894,0.8278350830078125,-0.15106673538684845
1761475973843554300,4.54255419921875,-1.7360221147537231,0.8079697489738464,-0.15853449702262878
1761475973853590300,4.55259033203125,-1.7352051734924316,0.7530964612960815,-0.15473757684230804
1761475973863627300,4.562627197265625,-1.7706753015518188,0.6865265369415283,-0.15688541531562805
1761475973873664300,4.572664306640625,-1.817461609840393,0.626905083656311,-0.17634296417236328
1761475973883701200,4.582701171875,-1.8642044067382812,0.5815474390983582,-0.2306338995695114
1761475973893738200,4.59273828125,-1.902227520942688,0.5681983828544617,-0.31497064232826233
1761475973903775200,4.602775146484375,-1.924550175666809,0.5743985176086426,-0.40867239236831665
1761475973913812200,4.612812255859375,-1.9261293411254883,0.5932206511497498,-0.4825285077095032
1761475973923849500,4.622849365234375,-1.9100782871246338,0.6095815300941467,-0.5246986150741577
1761475973933885400,4.632885498046875,-1.8807953596115112,0.6002652645111084,-0.5206458568572998
1761475973943922200,4.642922119140625,-1.8547606468200684,0.5568586587905884,-0.4896906018257141
1761475973953959200,4.652959228515625,-1.8459434509277344,0.5014087557792664,-0.4418646991252899
1761475973963996200,4.66299609375,-1.8538732528686523,0.44915562868118286,-0.3853881061077118
1761475973974033400,4.673033447265625,-1.8701751232147217,0.38279518485069275,-0.3340250551700592
1761475973984070400,4.6830703125,-1.892876148223877,0.3248884677886963,-0.2949785888195038
1761475973994107100,4.693107177734375,-1.9083049297332764,0.27296847105026245,-0.273139625787735
1761475974004143400,4.703143310546875,-1.9234111309051514,0.23907414078712463,-0.26033464074134827
1761475974014180000,4.71318017578125,-1.930021047592163,0.22908036410808563,-0.25091132521629333
1761475974024217300,4.72321728515625,-1.9370903968811035,0.244721919298172,-0.2438765913248062
1761475974034254300,4.73325439453125,-1.9479622840881348,0.27634674310684204,-0.2430446296930313
1761475974044291300,4.743291259765625,-1.953277587890625,0.35453981161117554,-0.24060942232608795
1761475974054328300,4.753328369140625,-1.944502353668213,0.4337640404701233,-0.24849994480609894
1761475974064365000,4.763364990234375,-1.9237653017044067,0.47647130489349365,-0.2683175802230835
1761475974074402300,4.77340234375,-1.899117350578308,0.4762267470359802,-0.301653653383255
1761475974084438300,4.783438232421875,-1.8703070878982544,0.4209320545196533,-0.3425537049770355
1761475974094475300,4.793475341796875,-1.8472743034362793,0.3471032977104187,-0.39294081926345825
1761475974104512300,4.80351220703125,-1.821231484413147,0.2609542906284332,-0.4580892026424408
1761475974114549200,4.81354931640625,-1.7832319736480713,0.16674286127090454,-0.5320486426353455
1761475974124590300,4.82359033203125,-1.725293755531311,0.06468146294355392,-0.6214330792427063
1761475974134627300,4.83362744140625,-1.6431633234024048,-0.0390712171792984,-0.7141099572181702
1761475974144664300,4.843664306640625,-1.5075106620788574,-0.05531010404229164,-0.7828461527824402
1761475974154700300,4.8537001953125,-1.349824070930481,0.01269710436463356,-0.8215619325637817
1761475974164737500,4.863737548828125,-1.226913332939148,0.08725469559431076,-0.8293729424476624
1761475974174774500,4.8737744140625,-1.1620314121246338,0.13279777765274048,-0.7831366062164307
1761475974184811300,4.883811279296875,-1.1470357179641724,0.17816472053527832,-0.6850206851959229
1761475974194848300,4.89384814453125,-1.1494354009628296,0.22249659895896912,-0.5411179661750793
1761475974204885500,4.903885498046875,-1.145302414894104,0.27905789017677307,-0.3745604455471039
1761475974214922500,4.913922607421875,-1.1241272687911987,0.32674694061279297,-0.22054867446422577
1761475974224959500,4.92395947265625,-1.0933536291122437,0.3607027530670166,-0.11372821778059006
1761475974234995500,4.933995361328125,-1.0787383317947388,0.33528944849967957,-0.07877730578184128
1761475974245032200,4.9440322265625,-1.0929303169250488,0.5195642113685608,-0.14184948801994324
1761475974255069400,4.9540693359375,-1.121705174446106,0.6085402965545654,-0.27755340933799744
1761475974265106400,4.9641064453125,-1.1445082426071167,0.4922139644622803,-0.4049246907234192
1761475974275143400,4.974143310546875,-1.170723557472229,0.34959736466407776,-0.4649374783039093
1761475974285180400,4.984180419921875,-1.2166870832443237,0.26694270968437195,-0.42670488357543945
1761475974295217200,4.994217041015625,-1.2945935726165771,0.19148202240467072,-0.3510679006576538
1761475974305253400,5.00425341796875,-1.4300882816314697,0.03200927749276161,-0.27607330679893494
1761475974315290400,5.014290283203125,-1.617081880569458,-0.22731564939022064,-0.17329345643520355
1761475974325327400,5.024327392578125,-1.792312502861023,-0.38305917382240295,-0.04387207701802254
1761475974335364400,5.0343642578125,-1.921534538269043,-0.3438546061515808,0.08217654377222061
1761475974345401300,5.0444013671875,-1.9864197969436646,-0.2776382863521576,0.17474696040153503
1761475974355438600,5.0544384765625,-2.007739543914795,-0.26438528299331665,0.21236751973628998
1761475974365475300,5.064475341796875,-1.9997837543487549,-0.28585729002952576,0.19768205285072327
1761475974375512300,5.07451220703125,-1.9710965156555176,-0.3310320973396301,0.1524471789598465
1761475974385548300,5.08454833984375,-1.9326410293579102,-0.397198885679245,0.08265184611082077
1761475974395585300,5.094585205078125,-1.864395022392273,-0.508878767490387,-0.015415647067129612
1761475974405622500,5.10462255859375,-1.797363519668579,-0.5694705247879028,-0.09905168414115906
1761475974415659500,5.114659423828125,-1.71553373336792,-0.5111629366874695,-0.20450228452682495
1761475974425696300,5.1246962890625,-1.5872458219528198,-0.319135457277298,-0.3577698767185211
1761475974435733200,5.134733154296875,-1.481099009513855,-0.08541028201580048,-0.34450551867485046
1761475974445770200,5.144770263671875,-1.3867030143737793,0.08259949833154678,-0.3157052993774414
1761475974455807500,5.154807373046875,-1.3422437906265259,0.142842635512352,-0.2916715145111084
1761475974465843500,5.164843505859375,-1.345649003982544,0.16527071595191956,-0.2831624448299408
1761475974475880400,5.17488037109375,-1.3762439489364624,0.16571520268917084,-0.2899540066719055
1761475974485917400,5.18491748046875,-1.3855407238006592,0.16197240352630615,-0.3010774850845337
1761475974495954200,5.1949541015625,-1.3543963432312012,0.11341949552297592,-0.363842636346817
1761475974505991400,5.204991455078125,-1.2745945453643799,0.09331183135509491,-0.4235858619213104
1761475974516028400,5.2150283203125,-1.1436374187469482,0.1548236906528473,-0.44673609733581543
1761475974526065400,5.2250654296875,-0.9621720314025879,0.2943858504295349,-0.3842679262161255
1761475974536101400,5.235101318359375,-0.7652241587638855,0.3785741627216339,-0.26850005984306335
1761475974546138400,5.245138427734375,-0.6007324457168579,0.3747437298297882,-0.1525241881608963
1761475974556175400,5.25517529296875,-0.49897363781929016,0.26895564794540405,-0.09248501062393188
1761475974566212400,5.26521240234375,-0.44903188943862915,0.14471468329429626,-0.07563066482543945
1761475974576249300,5.275249267578125,-0.4179381728172302,0.06826597452163696,-0.08649875223636627
1761475974586286300,5.285286376953125,-0.392774760723114,0.0645146444439888,-0.12929469347000122
1761475974596323600,5.295323486328125,-0.3635125756263733,0.06612642109394073,-0.18818901479244232
1761475974606360300,5.3053603515625,-0.3078162968158722,0.02083563804626465,-0.25068357586860657
1761475974616397300,5.315397216796875,-0.23211778700351715,-0.0029131053015589714,-0.26747772097587585
1761475974626433300,5.325433349609375,-0.1405434012413025,-0.00046166544780135155,-0.22173503041267395
1761475974636470300,5.33547021484375,-0.06266898661851883,-0.00879792682826519,-0.13766157627105713
1761475974646507300,5.34550732421875,-0.004982788115739822,-0.03659946471452713,-0.061446160078048706
1761475974656544500,5.35554443359375,0.02753942832350731,-0.08149608224630356,-0.006045972462743521
1761475974666581500,5.36558154296875,0.02405041828751564,-0.17317435145378113,-0.003991876728832722
1761475974676618200,5.3756181640625,-0.020353879779577255,-0.24903537333011627,-0.022379500791430473
1761475974686655200,5.3856552734375,-0.0728977769613266,-0.23306520283222198,-0.02826189063489437
1761475974696691200,5.395691162109375,-0.11957553774118423,-0.15329153835773468,-0.017764508724212646
1761475974706728400,5.405728515625,-0.144504576921463,-0.06264366209506989,0.016804920509457588
1761475974716765400,5.415765380859375,-0.15793609619140625,0.001126452349126339,0.06825713813304901
1761475974726802400,5.425802490234375,-0.1800115704536438,0.021408554166555405,0.09856098145246506
1761475974736839200,5.435839111328125,-0.1922091841697693,0.04184316471219063,0.0888853520154953
1761475974746876400,5.44587646484375,-0.18730977177619934,0.09980952739715576,0.03449162468314171
1761475974756913400,5.455913330078125,-0.1569368988275528,0.20917686820030212,0.0011284640058875084
1761475974766950400,5.465950439453125,-0.08058593422174454,0.3603948652744293,0.023483306169509888
1761475974776986400,5.475986328125,0.0040512895211577415,0.4880048334598541,0.06468193978071213
1761475974787023400,5.4860234375,0.08322573453187943,0.5593067407608032,0.1084456667304039
1761475974797060600,5.496060546875,0.14906418323516846,0.5743684768676758,0.14283981919288635
1761475974807097300,5.506097412109375,0.1882224977016449,0.5518847703933716,0.16226758062839508
1761475974817134300,5.51613427734375,0.2089550495147705,0.4997679591178894,0.18958361446857452
1761475974827171300,5.52617138671875,0.2157844603061676,0.43845134973526,0.2049359381198883
1761475974837208300,5.536208251953125,0.20718105137348175,0.37971484661102295,0.20091372728347778
1761475974847245600,5.54624560546875,0.21399475634098053,0.42560508847236633,0.1684199720621109
1761475974857281500,5.556281494140625,0.23348861932754517,0.6252339482307434,0.10746558755636215
1761475974867318300,5.566318359375,0.23577333986759186,0.7036976218223572,0.06737009435892105
1761475974877355300,5.576355224609375,0.25496360659599304,0.646513819694519,0.06502120941877365
1761475974887392300,5.586392333984375,0.2661789655685425,0.5904183387756348,0.10314356535673141
1761475974897429500,5.596429443359375,0.23546558618545532,0.5488950610160828,0.1672903597354889
1761475974907466500,5.606466552734375,0.14523155987262726,0.3817489743232727,0.23857252299785614
1761475974917503200,5.616503173828125,0.06006483733654022,0.15025034546852112,0.336233913898468
1761475974927540200,5.626540283203125,0.010517260059714317,0.009978980757296085,0.4694066345691681
1761475974937576200,5.636576171875,0.011887873522937298,0.009877543896436691,0.6280355453491211
1761475974947613400,5.646613525390625,0.04308920353651047,0.10807308554649353,0.80467289686203
1761475974957650400,5.656650390625,0.0824010968208313,0.22595706582069397,1.005972981452942
1761475974967687400,5.6666875,0.08899188786745071,0.35624128580093384,1.2408292293548584
1761475974977724400,5.676724365234375,0.07796705514192581,0.5093055963516235,1.4792194366455078
1761475974987761400,5.686761474609375,0.05399727821350098,0.6487143635749817,1.6681885719299316
1761475974997798400,5.69679833984375,0.023195303976535797,0.7060484886169434,1.7658298015594482
1761475975007835400,5.70683544921875,0.007454690523445606,0.6959337592124939,1.7511032819747925
1761475975017871400,5.716871337890625,-0.02464519441127777,0.739054262638092,1.6765085458755493
1761475975027908400,5.726908447265625,-0.09931729733943939,0.8176825046539307,1.5906665325164795
1761475975037945300,5.7369453125,-0.17177025973796844,0.8261054754257202,1.4911710023880005
1761475975047982300,5.746982421875,-0.2298700511455536,0.6840338110923767,1.326291561126709
1761475975058019300,5.757019287109375,-0.2795751094818115,0.4263240694999695,1.1214773654937744
1761475975068056300,5.767056396484375,-0.33692362904548645,0.15113350749015808,0.9073671698570251
1761475975078093300,5.77709326171875,-0.37342050671577454,-0.10714567452669144,0.699531078338623
1761475975088130600,5.787130615234375,-0.38416558504104614,-0.4469623565673828,0.4497326910495758
1761475975098166500,5.79716650390625,-0.3843933939933777,-0.7865427732467651,0.16875295341014862
1761475975108203500,5.80720361328125,-0.43252843618392944,-0.8344093561172485,-0.09469199925661087
1761475975118236000,5.81723583984375,-0.50827956199646,-0.7462648153305054,-0.2678092122077942
1761475975128273000,5.82727294921875,-0.5553125739097595,-0.7132421731948853,-0.35192224383354187
1761475975138310000,5.837309814453125,-0.5260065197944641,-0.7073633670806885,-0.4242306053638458
1761475975148347000,5.847346923828125,-0.4387530982494354,-0.5500205755233765,-0.5507984161376953
1761475975158383900,5.8573837890625,-0.3157694339752197,-0.1633937805891037,-0.6873926520347595
1761475975168419800,5.867419921875,-0.17690050601959229,0.2868780493736267,-0.8332683444023132
1761475975178456800,5.877456787109375,-0.07261253148317337,0.6363624334335327,-1.0003511905670166
1761475975188494000,5.887494140625,-0.09155373275279999,0.7851367592811584,-1.156550407409668
1761475975198530800,5.89753076171875,-0.17052096128463745,0.8148835897445679,-1.2541306018829346
1761475975208567800,5.90756787109375,-0.22616665065288544,0.7863142490386963,-1.2707854509353638
1761475975218604800,5.917604736328125,-0.23853865265846252,0.7158090472221375,-1.2524864673614502
1761475975228642000,5.92764208984375,-0.2375010848045349,0.5776938199996948,-1.2192527055740356
1761475975238679000,5.937678955078125,-0.24902251362800598,0.37709856033325195,-1.1609129905700684
1761475975248715000,5.947715087890625,-0.2334190458059311,0.16746118664741516,-1.0314266681671143
1761475975258751700,5.957751708984375,-0.21884243190288544,0.04696575924754143,-0.8478999137878418
1761475975268788700,5.967788818359375,-0.21102072298526764,0.020492075011134148,-0.6087949275970459
1761475975278826000,5.977825927734375,-0.17957016825675964,0.08258676528930664,-0.3419135808944702
1761475975288863000,5.987863037109375,-0.10706533491611481,0.1681504100561142,-0.08204363286495209
1761475975298900000,5.99789990234375,-0.013044423423707485,0.15849077701568604,0.12743283808231354
1761475975308937000,6.00793701171875,0.06957855075597763,0.10961803793907166,0.2817835509777069
1761475975318973700,6.0179736328125,0.10590004920959473,0.05172651633620262,0.3957274258136749
1761475975329009700,6.028009765625,0.09256374090909958,-0.019290931522846222,0.461845725774765
1761475975339047000,6.038046875,0.03992504999041557,-0.08568274974822998,0.4783075153827667
1761475975349084000,6.048083984375,-0.02256202884018421,-0.1242719441652298,0.46622955799102783
1761475975359121000,6.058120849609375,-0.061064086854457855,-0.13301485776901245,0.42910924553871155
1761475975369158000,6.068157958984375,-0.06278368830680847,-0.1263529658317566,0.3716728687286377
1761475975379195000,6.07819482421875,-0.03141011297702789,-0.1413699835538864,0.32002919912338257
1761475975389231900,6.08823193359375,0.038560979068279266,-0.19513866305351257,0.27836936712265015
1761475975399268900,6.098268798828125,0.08879020810127258,-0.24631604552268982,0.23657400906085968
1761475975409304800,6.108304931640625,0.09283953905105591,-0.2841598093509674,0.20264719426631927
1761475975419341800,6.118341796875,0.06946327537298203,-0.31599321961402893,0.1722729653120041
1761475975429379000,6.128379150390625,0.0350981131196022,-0.34783580899238586,0.1500169336795807
1761475975439415800,6.138415771484375,-0.003914942499250174,-0.357745885848999,0.15847252309322357
1761475975449452800,6.148452880859375,-0.03879862278699875,-0.3314381241798401,0.19599193334579468
1761475975459489800,6.15848974609375,-0.0706595778465271,-0.28230294585227966,0.2492944449186325
1761475975469526800,6.16852685546875,-0.10261537879705429,-0.22179195284843445,0.2810923457145691
1761475975479563000,6.17856298828125,-0.13730773329734802,-0.1384694129228592,0.2858753502368927
1761475975489600000,6.18860009765625,-0.1721876859664917,-0.0510767325758934,0.252978652715683
1761475975499637000,6.198636962890625,-0.20329870283603668,0.029517171904444695,0.21051505208015442
1761475975509673700,6.208673828125,-0.22246865928173065,0.11198835074901581,0.18412445485591888
1761475975519710700,6.218710693359375,-0.23333275318145752,0.21288353204727173,0.20233964920043945
1761475975529748000,6.228748046875,-0.2553275227546692,0.3071676790714264,0.2332637459039688
1761475975539785000,6.238784912109375,-0.28097638487815857,0.34732958674430847,0.24607419967651367
1761475975549822000,6.248822021484375,-0.31200724840164185,0.31422168016433716,0.22046230733394623
1761475975559858000,6.25885791015625,-0.3334595561027527,0.23703758418560028,0.16721995174884796
1761475975569895000,6.26889501953125,-0.34547972679138184,0.13945697247982025,0.07749724388122559
1761475975579932000,6.278931884765625,-0.350782185792923,0.018669433891773224,-0.03222014009952545
1761475975589969000,6.288968994140625,-0.3477081060409546,-0.10396913439035416,-0.13958442211151123
1761475975600006000,6.299005859375,-0.33843380212783813,-0.2299695461988449,-0.21763531863689423
1761475975610043000,6.30904296875,-0.34404802322387695,-0.29233092069625854,-0.2644324004650116
1761475975620079900,6.319079833984375,-0.36488357186317444,-0.2832925617694855,-0.2796134948730469
1761475975630116900,6.329116943359375,-0.3805418908596039,-0.2613462507724762,-0.26368752121925354
1761475975640152800,6.33915283203125,-0.3937912583351135,-0.23219041526317596,-0.1994757354259491
1761475975650189800,6.34918994140625,-0.4160499572753906,-0.18288785219192505,-0.11465805768966675
1761475975660226800,6.359226806640625,-0.4481029808521271,-0.13066299259662628,-0.04937117174267769
1761475975670263800,6.369263916015625,-0.4683060050010681,-0.08680418878793716,-0.017382077872753143
1761475975680301000,6.379301025390625,-0.47546201944351196,-0.060783058404922485,-0.03257306292653084
1761475975690337800,6.389337890625,-0.4784623384475708,-0.06300093978643417,-0.08056322485208511
1761475975700374800,6.399374755859375,-0.49988728761672974,-0.06284747272729874,-0.14375685155391693
1761475975710411800,6.409411865234375,-0.5292395949363708,-0.0256766639649868,-0.2087038904428482
1761475975720447700,6.41944775390625,-0.5505706667900085,0.023506255820393562,-0.2575382590293884
1761475975730485000,6.429485107421875,-0.558912992477417,0.07985608279705048,-0.28933829069137573
1761475975740522000,6.43952197265625,-0.560486376285553,0.13962407410144806,-0.3130044639110565
1761475975750559000,6.44955908203125,-0.5626137256622314,0.20426511764526367,-0.33148548007011414
1761475975760595700,6.459595703125,-0.5613422989845276,0.2654437720775604,-0.33703896403312683
1761475975770633000,6.469633056640625,-0.5520332455635071,0.3182707726955414,-0.339227557182312
1761475975780670000,6.479669921875,-0.5443431735038757,0.35479915142059326,-0.3442370593547821
1761475975790707000,6.48970703125,-0.5443735122680664,0.3663162589073181,-0.3532840609550476
1761475975800743000,6.499742919921875,-0.5515044927597046,0.35160523653030396,-0.36661043763160706
1761475975810780000,6.50977978515625,-0.5644215941429138,0.3263283669948578,-0.38456758856773376
1761475975820817000,6.51981689453125,-0.5803033113479614,0.283529669046402,-0.39458608627319336
1761475975830854000,6.52985400390625,-0.5737876296043396,0.25483277440071106,-0.3943948745727539
1761475975840891000,6.539890869140625,-0.5441715121269226,0.24988581240177155,-0.369589626789093
1761475975850927900,6.549927978515625,-0.49820083379745483,0.2806365191936493,-0.309114545583725
1761475975860964900,6.55996484375,-0.44252240657806396,0.3357754647731781,-0.24097929894924164
1761475975871000800,6.570000732421875,-0.3897548019886017,0.3858623504638672,-0.17645755410194397
1761475975881037800,6.580037841796875,-0.33383798599243164,0.4211140275001526,-0.1349494457244873
1761475975891074800,6.59007470703125,-0.2844475209712982,0.43176746368408203,-0.11692462861537933
1761475975901111800,6.60011181640625,-0.232453390955925,0.3825240731239319,-0.11343353241682053
1761475975911148800,6.610148681640625,-0.1830964982509613,0.30084943771362305,-0.10513192415237427
1761475975921186000,6.62018603515625,-0.13442565500736237,0.20966628193855286,-0.0720178633928299
1761475975931223000,6.63022314453125,-0.09758828580379486,0.11307503283023834,-0.028385963290929794
1761475975941259800,6.640259765625,-0.07113577425479889,0.027694547548890114,0.01595139130949974
1761475975951295700,6.650295654296875,-0.049273088574409485,-0.0558653250336647,0.06655251979827881
1761475975961332700,6.660332763671875,-0.02216469869017601,-0.11545517295598984,0.12884534895420074
1761475975971370000,6.670369873046875,0.0004910789430141449,-0.11193020641803741,0.20735347270965576
1761475975981407000,6.680406982421875,0.02113768458366394,-0.08638846129179001,0.281142920255661
1761475975991444000,6.69044384765625,0.035127803683280945,-0.07111922651529312,0.3497006893157959
1761475976001480700,6.700480712890625,0.037028539925813675,-0.05480257794260979,0.39454105496406555
1761475976011517700,6.710517578125,0.03141885623335838,-0.045587774366140366,0.40543100237846375
1761475976021554000,6.720553955078125,0.014116620644927025,-0.05754382535815239,0.36838117241859436
1761475976031591000,6.7305908203125,-0.015681754797697067,-0.08759573101997375,0.3034572899341583
1761475976041628000,6.7406279296875,-0.050359491258859634,-0.12481838464736938,0.22536632418632507
1761475976051665000,6.750664794921875,-0.09012395143508911,-0.15581198036670685,0.15328973531723022
1761475976061702000,6.760701904296875,-0.12269372493028641,-0.16214729845523834,0.10779361426830292
1761475976071739000,6.77073876953125,-0.14823023974895477,-0.17176423966884613,0.07533474266529083
1761475976081775900,6.78077587890625,-0.1682531088590622,-0.18323013186454773,0.06128930300474167
1761475976091811800,6.790811767578125,-0.1835939884185791,-0.1881266087293625,0.07365009933710098
1761475976101848800,6.800848876953125,-0.20276972651481628,-0.18422898650169373,0.10057155787944794
1761475976111885800,6.8108857421875,-0.22650328278541565,-0.1678188592195511,0.1339942365884781
1761475976121923300,6.82092333984375,-0.24434888362884521,-0.14946185052394867,0.16562962532043457
1761475976131960300,6.830960205078125,-0.2618604898452759,-0.12127762287855148,0.1781957447528839
1761475976141997300,6.840997314453125,-0.2726924419403076,-0.10585305094718933,0.15855009853839874
1761475976152034300,6.851034423828125,-0.2780454158782959,-0.10681631416082382,0.11396878957748413
1761475976162071600,6.861071533203125,-0.2832323908805847,-0.10552522540092468,0.05381456017494202
1761475976172107500,6.871107421875,-0.29626643657684326,-0.10001807659864426,-0.015120035968720913
1761475976182144500,6.88114453125,-0.3149353265762329,-0.10412304103374481,-0.07912543416023254
1761475976192181200,6.89118115234375,-0.3329702615737915,-0.1252504289150238,-0.1322816014289856
1761475976202218200,6.90121826171875,-0.3453436493873596,-0.1410425305366516,-0.17020326852798462
1761475976212255500,6.91125537109375,-0.34617137908935547,-0.16964727640151978,-0.19685699045658112
1761475976222292500,6.92129248046875,-0.3359803557395935,-0.21125830709934235,-0.20277616381645203
1761475976232329500,6.93132958984375,-0.32599374651908875,-0.24818089604377747,-0.18921002745628357
1761475976242365400,6.941365478515625,-0.3169853687286377,-0.27476829290390015,-0.16714222729206085
1761475976252402400,6.95140234375,-0.30356305837631226,-0.31201234459877014,-0.15121811628341675
1761475976262439400,6.961439453125,-0.28344637155532837,-0.34488266706466675,-0.13395673036575317
1761475976272476400,6.971476318359375,-0.2613735496997833,-0.3705720603466034,-0.11554469168186188
1761475976282513400,6.981513427734375,-0.22860537469387054,-0.39818164706230164,-0.1064915582537651
1761475976292550400,6.99155029296875,-0.1817326694726944,-0.4322029948234558,-0.10823806375265121
1761475976302587400,7.00158740234375,-0.12538303434848785,-0.46543899178504944,-0.11939790844917297
1761475976312623400,7.011623291015625,-0.06624168157577515,-0.5008755922317505,-0.1321946680545807
1761475976322660400,7.021660400390625,-0.017039049416780472,-0.5288681387901306,-0.13913126289844513
1761475976332697300,7.031697265625,0.01702597737312317,-0.5513390898704529,-0.13362783193588257
1761475976342734300,7.041734375,0.037294842302799225,-0.5566390752792358,-0.11537978798151016
1761475976352771300,7.051771240234375,0.06037965416908264,-0.5531905889511108,-0.08955937623977661
1761475976362808600,7.06180859375,0.08421846479177475,-0.5449765920639038,-0.05587153881788254
1761475976372844500,7.071844482421875,0.10767371952533722,-0.5153864622116089,-0.028431925922632217
1761475976382881300,7.08188134765625,0.13111279904842377,-0.48210129141807556,0.002521035261452198
1761475976392918300,7.091918212890625,0.13737815618515015,-0.4323664903640747,0.031710878014564514
1761475976402955300,7.101955322265625,0.13599705696105957,-0.37099751830101013,0.042944617569446564
1761475976412992500,7.111992431640625,0.12534920871257782,-0.307533860206604,0.03692640736699104
1761475976423029500,7.122029541015625,0.11247406899929047,-0.2593483626842499,0.01413123868405819
1761475976433066500,7.13206640625,0.09786956012248993,-0.22012561559677124,-0.019995838403701782
1761475976443102500,7.1421025390625,0.08852293342351913,-0.20394887030124664,-0.04241354763507843
1761475976453139200,7.15213916015625,0.076411671936512,-0.2035435289144516,-0.055372223258018494
1761475976463176400,7.162176513671875,0.06961654871702194,-0.22012872993946075,-0.060383617877960205
1761475976473213400,7.17221337890625,0.06818749755620956,-0.2655244469642639,-0.05679607391357422
1761475976483250400,7.18225048828125,0.07354696094989777,-0.303941935300827,-0.0446094311773777
1761475976493287400,7.192287353515625,0.08247227966785431,-0.326546847820282,-0.03887191414833069
1761475976503323400,7.202323486328125,0.08970638364553452,-0.345467746257782,-0.03440983593463898
1761475976513360400,7.2123603515625,0.10184241086244583,-0.34465521574020386,-0.03944321349263191
1761475976523397400,7.2223974609375,0.11764447391033173,-0.3532441556453705,-0.03618548437952995
1761475976533434400,7.232434326171875,0.14611099660396576,-0.3651636838912964,-0.02227339893579483
1761475976543471400,7.242471435546875,0.17255815863609314,-0.3706170916557312,0.0018474403768777847
1761475976553508400,7.25250830078125,0.19205409288406372,-0.37432581186294556,0.031192278489470482
1761475976563545300,7.26254541015625,0.2000320851802826,-0.3721008598804474,0.05343720689415932
1761475976573581600,7.27258154296875,0.2072329968214035,-0.3581911623477936,0.07277815043926239
1761475976583618300,7.282618408203125,0.20153872668743134,-0.3516058921813965,0.08516540378332138
1761475976593655300,7.2926552734375,0.19619561731815338,-0.34887561202049255,0.10021839290857315
1761475976603692300,7.3026923828125,0.178349107503891,-0.3406708538532257,0.11324099451303482
1761475976613729500,7.3127294921875,0.16015705466270447,-0.32751375436782837,0.12350215762853622
1761475976623766500,7.3227666015625,0.1434563845396042,-0.31375816464424133,0.12346166372299194
1761475976633802500,7.332802490234375,0.12321449816226959,-0.3012937605381012,0.11350490152835846
1761475976643839200,7.342839111328125,0.10464457422494888,-0.2780672013759613,0.10391907393932343
1761475976653876200,7.352876220703125,0.08463757485151291,-0.25264307856559753,0.0860987976193428
1761475976663913500,7.36291357421875,0.054867833852767944,-0.2250520884990692,0.04960840195417404
1761475976673950500,7.372950439453125,0.013070049695670605,-0.2121136635541916,-0.0029346970841288567
1761475976683987500,7.382987548828125,-0.1169545128941536,-0.3667394518852234,-0.056890904903411865
1761475976694023400,7.3930234375,-0.19187909364700317,-0.30929774045944214,-0.056820064783096313
1761475976704060400,7.403060302734375,-0.2043013721704483,-0.1641765981912613,-0.0592513382434845
1761475976714097200,7.41309716796875,-0.2140280306339264,-0.13705603778362274,-0.11276623606681824
1761475976724134400,7.423134521484375,-0.2670152485370636,-0.19135281443595886,-0.20868153870105743
1761475976734171400,7.43317138671875,-0.32978036999702454,-0.22142575681209564,-0.31999075412750244
1761475976744208400,7.44320849609375,-0.3537987172603607,-0.22004827857017517,-0.43067675828933716
1761475976754244400,7.453244384765625,-0.34698981046676636,-0.2554669678211212,-0.5483407974243164
1761475976764281300,7.46328125,-0.32887202501296997,-0.34441816806793213,-0.6665469408035278
1761475976774318300,7.473318359375,-0.3042556345462799,-0.44088906049728394,-0.7629474997520447
1761475976784355300,7.483355224609375,-0.26175153255462646,-0.5391162037849426,-0.8134187459945679
1761475976794392300,7.493392333984375,-0.19395998120307922,-0.5917074680328369,-0.7990627288818359
1761475976804429300,7.50342919921875,-0.12084536999464035,-0.5651284456253052,-0.7161381244659424
1761475976814466600,7.513466552734375,-0.059437401592731476,-0.4496905505657196,-0.5830972194671631
1761475976824502500,7.52350244140625,-0.025028977543115616,-0.27090275287628174,-0.4296858012676239
1761475976834539500,7.53353955078125,-0.02022596448659897,-0.05238267406821251,-0.30297526717185974
1761475976844576300,7.543576171875,-0.026934020221233368,0.172834113240242,-0.229132279753685
1761475976854613200,7.55361328125,-0.035887833684682846,0.34823867678642273,-0.2138260304927826
1761475976864650500,7.563650390625,-0.04412209987640381,0.43192800879478455,-0.2536580264568329
1761475976874687500,7.5736875,-0.046089641749858856,0.4374697804450989,-0.29014626145362854
1761475976884723500,7.583723388671875,-0.02339174970984459,0.3608357012271881,-0.30813148617744446
1761475976894760400,7.593760498046875,0.0322752445936203,0.21161265671253204,-0.2977116107940674
1761475976904797400,7.60379736328125,0.10214966535568237,0.02274501323699951,-0.25111961364746094
1761475976914834200,7.613834228515625,0.1695670485496521,-0.13648831844329834,-0.167208731174469
1761475976924871400,7.623871337890625,0.23571982979774475,-0.24686108529567719,-0.07060122489929199
1761475976934908400,7.633908447265625,0.283711314201355,-0.3449026942253113,0.023115945979952812
1761475976944944400,7.6439443359375,0.3293640613555908,-0.42784667015075684,0.1013886034488678
1761475976954981400,7.6539814453125,0.3616461157798767,-0.49667876958847046,0.16548049449920654
1761475976965018400,7.664018310546875,0.388912171125412,-0.5341330170631409,0.21119767427444458
1761475976975055400,7.674055419921875,0.40172064304351807,-0.5344011783599854,0.24446828663349152
1761475976985092400,7.68409228515625,0.3877914249897003,-0.5053775906562805,0.249557226896286
1761475976995129300,7.69412939453125,0.3593651056289673,-0.4390787184238434,0.24140664935112
1761475977005165300,7.704165283203125,0.30599862337112427,-0.36177024245262146,0.2073175460100174
1761475977015202300,7.714202392578125,0.2362927794456482,-0.2705572545528412,0.17048576474189758
1761475977025239600,7.724239501953125,0.1617473065853119,-0.1807590276002884,0.1384548842906952
1761475977035276300,7.7342763671875,0.0816362202167511,-0.11571557074785233,0.12811967730522156
1761475977045313300,7.744313232421875,0.01909884437918663,-0.08258984237909317,0.14132753014564514
1761475977055350300,7.754350341796875,-0.03650795668363571,-0.09148559719324112,0.16854850947856903
1761475977065386200,7.76438623046875,-0.07475898414850235,-0.10558021068572998,0.20526905357837677
1761475977075423500,7.774423583984375,-0.10811427980661392,-0.11122531443834305,0.23789143562316895
1761475977085460500,7.78446044921875,-0.14381104707717896,-0.10808251053094864,0.25558236241340637
1761475977095497500,7.79449755859375,-0.17860552668571472,-0.08614605665206909,0.2589384615421295
1761475977105534200,7.8045341796875,-0.2120319902896881,-0.03960767015814781,0.24864737689495087
1761475977115571200,7.8145712890625,-0.23845428228378296,0.023117758333683014,0.24392424523830414
1761475977125607700,7.824607666015625,-0.2567221224308014,0.10174564272165298,0.24450111389160156
1761475977135645000,7.83464501953125,-0.2771962285041809,0.1823776364326477,0.25407758355140686
1761475977145682000,7.844681884765625,-0.296377569437027,0.2532937228679657,0.2600804567337036
1761475977155719000,7.854718994140625,-0.32763296365737915,0.3108683228492737,0.2531280219554901
1761475977165755600,7.864755615234375,-0.36746031045913696,0.3620946407318115,0.2412748634815216
1761475977175793000,7.87479296875,-0.40867990255355835,0.4162718653678894,0.20826579630374908
1761475977185828900,7.884828857421875,-0.44027119874954224,0.48223617672920227,0.1654796600341797
1761475977195865900,7.894865966796875,-0.46280476450920105,0.5483291745185852,0.10590766370296478
1761475977205902800,7.90490283203125,-0.4712924361228943,0.6032699942588806,0.03473002463579178
1761475977215939800,7.91493994140625,-0.4563952684402466,0.6332969069480896,-0.025238770991563797
1761475977225976800,7.924976806640625,-0.4314942955970764,0.6168451309204102,-0.054114095866680145
1761475977236013800,7.935013916015625,-0.3926403522491455,0.5549317002296448,-0.044303812086582184
1761475977246050800,7.94505078125,-0.34685400128364563,0.4955308437347412,-0.003905482590198517
1761475977256083700,7.955083740234375,-0.29567524790763855,0.42833930253982544,0.058741383254528046
1761475977266121000,7.965120849609375,-0.2404041886329651,0.3234902024269104,0.10885898768901825
1761475977276158000,7.975157958984375,-0.1935538500547409,0.23487697541713715,0.13855403661727905
1761475977286194700,7.985194580078125,-0.15769615769386292,0.20381048321723938,0.1841151863336563
1761475977296231000,7.99523095703125,-0.1438937932252884,0.1666996031999588,0.22577793896198273
1761475977306267600,8.005267578125,-0.15557964146137238,0.1022179052233696,0.2594238817691803
1761475977316305000,8.015304931640625,-0.17453628778457642,0.06009335443377495,0.28906193375587463
1761475977326342000,8.025341796875,-0.19169270992279053,0.020131032913923264,0.31113967299461365
1761475977336379000,8.03537890625,-0.19182001054286957,-0.022999927401542664,0.3191581964492798
1761475977346415900,8.045415771484375,-0.18026642501354218,-0.06712114810943604,0.3139846920967102
1761475977356452900,8.055452880859375,-0.15901093184947968,-0.09797147661447525,0.30074745416641235
1761475977366488800,8.06548876953125,-0.13975542783737183,-0.10233816504478455,0.28039735555648804
1761475977376525800,8.07552587890625,-0.12017958611249924,-0.0810278132557869,0.2577005624771118
1761475977386562800,8.085562744140624,-0.11416227370500565,-0.045261915773153305,0.23302097618579865
1761475977396599800,8.095599853515624,-0.11965024471282959,-0.0012228190898895264,0.2040897160768509
1761475977406637000,8.105636962890625,-0.13541236519813538,0.026609068736433983,0.1902153044939041
1761475977416673800,8.115673828125,-0.15897494554519653,0.0416327565908432,0.1934446543455124
1761475977426710000,8.1257099609375,-0.17326249182224274,0.059463877230882645,0.20785759389400482
1761475977436746800,8.135746826171875,-0.17845405638217926,0.06754231452941895,0.21956752240657806
1761475977446783700,8.14578369140625,-0.16439776122570038,0.06072540581226349,0.22231614589691162
1761475977456820700,8.15582080078125,-0.1361972689628601,0.03544188290834427,0.2070666253566742
1761475977466858000,8.16585791015625,-0.1051706001162529,0.007287838961929083,0.18120163679122925
1761475977476895000,8.17589501953125,-0.07520764321088791,-0.011148160323500633,0.1533212661743164
1761475977486931000,8.185930908203124,-0.054954204708337784,-0.005368480458855629,0.13968807458877563
1761475977496967700,8.1959677734375,-0.04416467249393463,0.015759175643324852,0.1448969542980194
1761475977507004700,8.206004638671875,-0.043437421321868896,0.04020433872938156,0.16659943759441376
1761475977517042000,8.2160419921875,-0.048312071710824966,0.0606992281973362,0.1904054433107376
1761475977527079000,8.226078857421875,-0.0588102787733078,0.08937162160873413,0.2013726681470871
1761475977537116000,8.236115966796875,-0.07061367481946945,0.11649724841117859,0.19386547803878784
1761475977547152600,8.246152587890625,-0.06975650787353516,0.13505840301513672,0.16666308045387268
1761475977557188900,8.25618896484375,-0.05827935039997101,0.1489073634147644,0.14455831050872803
1761475977567225900,8.266225830078126,-0.04036501422524452,0.1670859307050705,0.12224943935871124
1761475977577262800,8.276262939453124,-0.023485366255044937,0.19294895231723785,0.11214007437229156
1761475977587299800,8.2862998046875,-0.01630071923136711,0.21103927493095398,0.10710303485393524
1761475977597336800,8.2963369140625,-0.014985118061304092,0.20234964787960052,0.10698958486318588
1761475977607374000,8.3063740234375,-0.013741044327616692,0.2003503292798996,0.11062432080507278
1761475977617410000,8.31641015625,-0.015187140554189682,0.18786942958831787,0.12013846635818481
1761475977627446800,8.32644677734375,-0.029005076736211777,0.11917779594659805,0.11690536141395569
1761475977637483800,8.33648388671875,-0.05857095867395401,0.007465116214007139,0.11306269466876984
1761475977647520800,8.346520751953125,-0.03481472283601761,0.021245205774903297,0.11083914339542389
1761475977657557800,8.356557861328126,0.021093284711241722,0.030207008123397827,0.0945666953921318
1761475977667595000,8.366594970703124,0.08069342374801636,0.014512808993458748,0.0658116266131401
1761475977677631700,8.3766318359375,0.12393622100353241,0.021591223776340485,0.041912153363227844
1761475977687668000,8.38666796875,0.15664009749889374,0.07190962880849838,0.025868523865938187
1761475977697704700,8.39670458984375,0.18273454904556274,0.11088232696056366,0.02252412587404251
1761475977707741700,8.40674169921875,0.2090786099433899,0.12595510482788086,0.01899849623441696
1761475977717779000,8.416779052734375,0.22442853450775146,0.10964670777320862,0.026226583868265152
1761475977727816000,8.42681591796875,0.2235538810491562,0.06198525428771973,0.04557003825902939
1761475977737853000,8.43685302734375,0.21495559811592102,0.028880033642053604,0.06737414002418518
1761475977747889000,8.446888916015626,0.20151278376579285,0.012307977303862572,0.08712410926818848
1761475977757925600,8.456925537109376,0.1948322355747223,-0.005803382024168968,0.09877464175224304
1761475977767963000,8.466962890625,0.1961943805217743,-0.009208222851157188,0.08931177854537964
1761475977778000000,8.476999755859374,0.20931842923164368,0.007270619738847017,0.07672301679849625
1761475977788036900,8.487036865234375,0.2304917722940445,0.04379605874419212,0.06109665334224701
1761475977798073900,8.497073974609375,0.24206027388572693,0.07573321461677551,0.05194869637489319
1761475977808110800,8.50711083984375,0.2413911670446396,0.10937274992465973,0.04381747171282768
1761475977818147000,8.51714697265625,0.2099541574716568,0.16167163848876953,0.03729299455881119
1761475977828183800,8.527183837890625,0.15334348380565643,0.21452081203460693,0.014063550159335136
1761475977838220800,8.537220703125,0.09862963855266571,0.2330407053232193,-0.04981396347284317
1761475977848260900,8.5472607421875,0.07045858353376389,0.18014918267726898,-0.13006643950939178
1761475977858297900,8.5572978515625,0.07976499944925308,0.07819299399852753,-0.21123453974723816
1761475977868334800,8.5673349609375,0.1080954372882843,-0.030371567234396935,-0.2656117379665375
1761475977878371800,8.577371826171875,0.13891646265983582,-0.11876614391803741,-0.2884938716888428
1761475977888408800,8.587408935546875,0.15688571333885193,-0.17589884996414185,-0.27838900685310364
1761475977898444800,8.59744482421875,0.16434364020824432,-0.1920703649520874,-0.25109612941741943
1761475977908481800,8.607481689453126,0.1724085509777069,-0.18803346157073975,-0.22125819325447083
1761475977918518800,8.617518798828126,0.18381327390670776,-0.18173640966415405,-0.2031303346157074
1761475977928555800,8.6275556640625,0.2056361585855484,-0.1740557849407196,-0.18580012023448944
1761475977938593000,8.637593017578125,0.2296096682548523,-0.13628070056438446,-0.15993310511112213
1761475977948629800,8.647629638671875,0.2373303472995758,-0.0712202936410904,-0.12288541346788406
1761475977958666800,8.657666748046875,0.23559556901454926,0.0017460575327277184,-0.064170703291893
1761475977968702700,8.66770263671875,0.21829569339752197,0.08456886559724808,-0.003948125056922436
1761475977978739700,8.67773974609375,0.197523295879364,0.1823665350675583,0.04369769245386124
1761475977988777000,8.68777685546875,0.17808054387569427,0.2638133764266968,0.07460460811853409
1761475977998814000,8.69781396484375,0.16504091024398804,0.3072497844696045,0.08000709861516953
1761475978008850700,8.7078505859375,0.16503331065177917,0.31824633479118347,0.07615777105093002
1761475978018887700,8.7178876953125,0.19231313467025757,0.32232630252838135,0.08258558064699173
1761475978028923600,8.727923583984374,0.21499745547771454,0.2956377863883972,0.09209192544221878
1761475978038961000,8.7379609375,0.23959892988204956,0.2469293624162674,0.09784568846225739
1761475978048998000,8.747997802734375,0.26228711009025574,0.19119933247566223,0.10226911306381226
1761475978059035000,8.758034912109375,0.2801092565059662,0.16057777404785156,0.1012943908572197
1761475978069072000,8.76807177734375,0.2980712950229645,0.1277054101228714,0.08259430527687073
1761475978079108900,8.77810888671875,0.31129443645477295,0.07265307009220123,0.04615427553653717
1761475978089145900,8.788145751953126,0.31815922260284424,0.02648468129336834,0.016669701784849167
1761475978099181800,8.798181884765626,0.32174941897392273,-0.008546806871891022,0.0008153719827532768
1761475978109218800,8.80821875,0.3193012773990631,-0.03999152407050133,-0.002753796987235546
1761475978119255800,8.818255859375,0.3112766444683075,-0.049667853862047195,-0.00023711007088422775
1761475978129291500,8.82829150390625,0.30748414993286133,-0.03879391774535179,-0.007908288389444351
1761475978139328800,8.838328857421875,0.3117619752883911,-0.03349902108311653,-0.014312924817204475
1761475978149365800,8.84836572265625,0.3209046423435211,-0.03935147821903229,-0.015582708641886711
1761475978159402500,8.858402587890625,0.3226228952407837,-0.02751239761710167,-0.0020221583545207977
1761475978169438700,8.868438720703125,0.3132140040397644,0.012449923902750015,0.017176449298858643
1761475978179475500,8.878475341796875,0.28912705183029175,0.05344449728727341,0.025657551363110542
1761475978189512700,8.8885126953125,0.2710130214691162,0.06408782303333282,0.02271585538983345
1761475978199549700,8.8985498046875,0.2626730799674988,0.0507991798222065,0.019805554300546646
1761475978209586700,8.908586669921876,0.2717500329017639,0.04807521775364876,0.021274544298648834
1761475978219623700,8.918623779296874,0.2903311848640442,0.062260545790195465,0.017000170424580574
1761475978229660400,8.928660400390624,0.30005645751953125,0.08193444460630417,0.0002471804618835449
1761475978239696600,8.938696533203125,0.31426122784614563,0.11012054234743118,-0.03181248530745506
1761475978249733600,8.948733642578125,0.3211447596549988,0.13834242522716522,-0.07860726118087769
1761475978259770600,8.9587705078125,0.3294373154640198,0.14265994727611542,-0.12481816858053207
1761475978269807600,8.9688076171875,0.3417372405529022,0.13216370344161987,-0.13969087600708008
1761475978279844600,8.9788447265625,0.3496154248714447,0.12654656171798706,-0.11963114142417908
1761475978289881600,8.988881591796876,0.34864863753318787,0.17003215849399567,-0.07573122531175613
1761475978299918600,8.998918701171876,0.34733834862709045,0.2284477949142456,-0.025465920567512512
1761475978309954600,9.00895458984375,0.3535696268081665,0.26993516087532043,0.0008527422323822975
1761475978319991600,9.018991455078124,0.3670947551727295,0.28929901123046875,-0.0011949623003602028
1761475978330028500,9.029028564453125,0.3817636966705322,0.3080625832080841,-0.030470795929431915
1761475978340065800,9.039065673828125,0.3950935900211334,0.3340552747249603,-0.07662124931812286
1761475978350102800,9.049102783203125,0.4118974804878235,0.36515843868255615,-0.1237780973315239
1761475978360139500,9.059139404296875,0.43307068943977356,0.40739884972572327,-0.16739268600940704
1761475978370176500,9.069176513671875,0.45908817648887634,0.42846882343292236,-0.20625145733356476
1761475978380212500,9.07921240234375,0.47866347432136536,0.4163932502269745,-0.25249695777893066
1761475978390249700,9.089249755859376,0.4835206866264343,0.35647448897361755,-0.30864036083221436
1761475978400286700,9.09928662109375,0.48358461260795593,0.264873206615448,-0.3590220510959625
1761475978410323700,9.10932373046875,0.4850585460662842,0.15992175042629242,-0.3908194899559021
1761475978420360400,9.1193603515625,0.4925103783607483,0.0650024339556694,-0.4086270034313202
1761475978430397400,9.1293974609375,0.5161704421043396,-0.013410612940788269,-0.4071369469165802
1761475978440434700,9.1394345703125,0.5529811978340149,-0.09643732011318207,-0.3848196566104889
1761475978450470700,9.149470703125,0.6069654226303101,-0.1871759295463562,-0.338847815990448
1761475978460507600,9.159507568359375,0.6639817953109741,-0.26093751192092896,-0.2617831230163574
1761475978470544600,9.169544677734375,0.7157761454582214,-0.285739541053772,-0.15725421905517578
1761475978480581600,9.17958154296875,0.7538928985595703,-0.2372170090675354,-0.04411780461668968
1761475978490618600,9.18961865234375,0.7851683497428894,-0.14878922700881958,0.059089794754981995
1761475978500655600,9.199655517578124,0.8143041729927063,-0.06087827682495117,0.13349904119968414
1761475978510692600,9.209692626953125,0.8546722531318665,-0.006588481366634369,0.1899346560239792
1761475978520728600,9.219728515625,0.89849853515625,0.045658744871616364,0.2361849695444107
1761475978530765600,9.229765625,0.9322781562805176,0.10131558775901794,0.2606738805770874
1761475978540802800,9.239802734375,0.9431552886962891,0.1414148062467575,0.2790033519268036
1761475978550839600,9.249839599609375,0.9361675381660461,0.180008202791214,0.2830579876899719
1761475978560876500,9.25987646484375,0.9168729782104492,0.21176080405712128,0.27614229917526245
1761475978570913500,9.26991357421875,0.8997303247451782,0.23176242411136627,0.25135335326194763
1761475978580950800,9.27995068359375,0.8806277513504028,0.22095319628715515,0.20531609654426575
1761475978590986800,9.28998681640625,0.8592574596405029,0.19645115733146667,0.150110125541687
1761475978601023700,9.300023681640624,0.8300455212593079,0.16816839575767517,0.10911101847887039
1761475978611060700,9.310060791015625,0.8051615357398987,0.14723673462867737,0.08696617186069489
1761475978621097500,9.320097412109375,0.7784753441810608,0.1452430933713913,0.07570845633745193
1761475978631134700,9.330134765625,0.7507259249687195,0.1433272361755371,0.07069835811853409
1761475978641171700,9.340171630859375,0.7186145782470703,0.14101694524288177,0.054142553359270096
1761475978651208700,9.350208740234375,0.6981436014175415,0.14257384836673737,0.044079966843128204
1761475978661245700,9.36024560546875,0.6905679702758789,0.14869831502437592,0.04127778857946396
1761475978671281700,9.37028173828125,0.6835022568702698,0.15889616310596466,0.052702680230140686
1761475978681318400,9.380318359375,0.6713662147521973,0.13376817107200623,0.06601689010858536
1761475978691355600,9.390355712890624,0.6403498649597168,0.09329671412706375,0.07810069620609283
1761475978701392600,9.400392578125,0.6068078279495239,0.051189739257097244,0.07545112073421478
1761475978711429600,9.4104296875,0.570205569267273,0.026229389011859894,0.06462602317333221
1761475978721466600,9.420466552734375,0.5402870774269104,0.0035307342186570168,0.046439029276371
1761475978731503600,9.430503662109375,0.5219781994819641,-0.023370295763015747,0.020166274160146713
1761475978741539800,9.440539794921875,0.5103356242179871,-0.04227900505065918,-0.005487957503646612
1761475978751576600,9.45057666015625,0.504034161567688,-0.04278688505291939,-0.007146189920604229
1761475978761613600,9.460613525390626,0.49272850155830383,-0.02607261948287487,0.00915129017084837
1761475978771650600,9.470650634765626,0.4767587184906006,0.002027008216828108,0.05050569400191307
1761475978781687800,9.480687744140624,0.45314234495162964,0.03372102230787277,0.0993853509426117
1761475978791724800,9.490724853515625,0.42370572686195374,0.05851273611187935,0.14155921339988708
1761475978801761500,9.500761474609375,0.399771124124527,0.05418430268764496,0.1709405481815338
1761475978811797500,9.510797607421875,0.3735196888446808,0.03497925028204918,0.17229418456554413
1761475978821834500,9.52083447265625,0.35993465781211853,0.013546129688620567,0.150691419839859
1761475978831871700,9.530871826171875,0.3437534272670746,0.019519895315170288,0.11389444768428802
1761475978841908700,9.54090869140625,0.32664287090301514,0.02002030238509178,0.07005376368761063
1761475978851945700,9.55094580078125,0.3018212914466858,0.014446810819208622,0.03001374378800392
1761475978861982500,9.560982421875,0.27395209670066833,0.0326567068696022,0.002756555564701557
1761475978872019500,9.57101953125,0.244411900639534,0.0821743831038475,-0.0033423397690057755
1761475978882055400,9.581055419921874,0.2198021560907364,0.15378785133361816,0.010282125324010849
1761475978892092700,9.5910927734375,0.2020275741815567,0.24138382077217102,0.03319036215543747
1761475978902129700,9.601129638671875,0.18643024563789368,0.3224632441997528,0.0425199456512928
1761475978912166700,9.611166748046875,0.15991747379302979,0.37000030279159546,0.028930697590112686
1761475978922203600,9.62120361328125,0.13978929817676544,0.395847350358963,-0.004072257317602634
1761475978932240600,9.63124072265625,0.12123924493789673,0.3801240622997284,-0.03242705762386322
1761475978942277600,9.641277587890626,0.11280953884124756,0.34318336844444275,-0.038221560418605804
1761475978952314600,9.651314697265626,0.1141696497797966,0.2859954535961151,-0.02263067662715912
1761475978962350600,9.6613505859375,0.11507938802242279,0.24854394793510437,0.02007364295423031
1761475978972387600,9.6713876953125,0.11779345571994781,0.21584872901439667,0.07874172180891037
1761475978982424800,9.6814248046875,0.15117324888706207,0.1512146145105362,0.13849373161792755
1761475978992461600,9.691461669921875,0.22040364146232605,0.07969330251216888,0.20487473905086517
1761475979002498600,9.70149853515625,0.29850003123283386,0.018618231639266014,0.26276254653930664
1761475979012535600,9.71153564453125,0.36488738656044006,-0.005933619569987059,0.30135828256607056
1761475979022572500,9.721572509765625,0.4005495011806488,-0.025213573127985,0.3017931878566742
1761475979032608800,9.73160888671875,0.4193640351295471,-0.04531008005142212,0.25659066438674927
1761475979042645800,9.741645751953126,0.42395612597465515,-0.054897189140319824,0.19248037040233612
1761475979052682800,9.751682861328124,0.4248238205909729,-0.056392885744571686,0.12334080040454865
1761475979062719500,9.761719482421874,0.4252457022666931,-0.054458633065223694,0.08121812343597412
1761475979072756500,9.771756591796875,0.4216528534889221,-0.059023138135671616,0.06205851957201958
1761475979082793700,9.781793701171875,0.4138609766960144,-0.07727351784706116,0.04945990815758705
1761475979092830700,9.791830810546875,0.4096178710460663,-0.10571295022964478,0.031395960599184036
1761475979102867700,9.80186767578125,0.4117012619972229,-0.1242900937795639,0.0021704304963350296
1761475979112903700,9.811903564453125,0.418141633272171,-0.14254021644592285,-0.033219628036022186
1761475979122940700,9.821940673828125,0.4191898703575134,-0.1691686362028122,-0.0742056742310524
1761475979132977700,9.831977783203126,0.4074219763278961,-0.23144565522670746,-0.1304483711719513
1761475979143015000,9.842014892578124,0.3773282766342163,-0.3076387047767639,-0.19839227199554443
1761475979153052000,9.852052001953124,0.3301624357700348,-0.3690585196018219,-0.2605680823326111
1761475979163089000,9.8620888671875,0.2824828028678894,-0.40754464268684387,-0.3065803349018097
1761475979173125600,9.872125732421875,0.2358260452747345,-0.4142192006111145,-0.3173733353614807
1761475979183163000,9.882162841796875,0.20274372398853302,-0.3700411021709442,-0.2866785526275635
1761475979193198800,9.89219873046875,0.17272385954856873,-0.2735179364681244,-0.21332140266895294
1761475979203235800,9.90223583984375,0.15237703919410706,-0.15114489197731018,-0.12210813909769058
1761475979213272800,9.91227294921875,0.13546547293663025,-0.023391086608171463,-0.026654405519366264
1761475979223309800,9.922309814453126,0.11683372408151627,0.1157311201095581,0.06178278475999832
1761475979233346800,9.932346923828124,0.09758948534727097,0.22905729711055756,0.11910226941108704
1761475979243383800,9.9423837890625,0.09576255083084106,0.25027602910995483,0.08195409923791885
1761475979253420800,9.9524208984375,0.1145094633102417,0.28855159878730774,0.014162582345306873
1761475979263456800,9.962456787109375,0.14464232325553894,0.3438425362110138,-0.05820242688059807
1761475979273493800,9.97249365234375,0.17692361772060394,0.3382975161075592,-0.11458861827850342
1761475979283531000,9.982531005859375,0.2084607630968094,0.30773693323135376,-0.11539369076490402
1761475979293568000,9.992568115234375,0.23000575602054596,0.30220839381217957,-0.05444485321640968
1761475979303604700,10.002604736328125,0.2443884164094925,0.3210401237010956,0.04612649604678154
1761475979313641700,10.012641845703126,0.25053101778030396,0.34736159443855286,0.15592427551746368
1761475979323678700,10.0226787109375,0.24287019670009613,0.3417830765247345,0.2453143447637558
1761475979333716000,10.032716064453124,0.2328234165906906,0.27346259355545044,0.2803319990634918
1761475979343752000,10.042751953125,0.22309595346450806,0.17031702399253845,0.2647961676120758
1761475979353789000,10.052788818359375,0.21945513784885406,0.0603117011487484,0.21230582892894745
1761475979363826000,10.062825927734375,0.2114214450120926,-0.03739834576845169,0.13961271941661835
1761475979373862700,10.072862548828125,0.18690980970859528,-0.10360993444919586,0.043372742831707
1761475979383900000,10.08289990234375,0.15355558693408966,-0.12124032527208328,-0.05730699747800827
1761475979393937000,10.09293701171875,0.12160396575927734,-0.09038407355546951,-0.12462379038333893
1761475979403974000,10.102973876953126,0.08921593427658081,-0.05087528005242348,-0.1677536815404892
1761475979414009900,10.113009765625,0.06440766155719757,-0.015286850742995739,-0.18154963850975037
1761475979424046800,10.123046875,0.05199413746595383,0.004903106950223446,-0.15265832841396332
1761475979434083800,10.133083740234374,0.03973185271024704,0.009691957384347916,-0.07809491455554962
1761475979444120800,10.143120849609375,0.03454907611012459,0.0004390706308186054,0.027549494057893753
1761475979454157800,10.15315771484375,0.027755383402109146,-0.011006243526935577,0.13193951547145844
1761475979464194800,10.16319482421875,0.022981133311986923,-0.01775522530078888,0.21047639846801758
1761475979474231800,10.173231689453125,0.01900503784418106,-0.004505200777202845,0.22680076956748962
1761475979484268800,10.183268798828125,0.016431089490652084,0.033239513635635376,0.1950037032365799
1761475979494304800,10.1933046875,0.015931513160467148,0.08284445106983185,0.12561441957950592
1761475979504341800,10.203341796875,0.023252010345458984,0.1326247900724411,0.05530403554439545
1761475979514378800,10.213378662109376,0.03047943115234375,0.16194574534893036,0.0009790295735001564
1761475979524415700,10.223415771484374,0.02807939052581787,0.1777457445859909,-0.02706325799226761
1761475979534453000,10.233452880859375,0.023161616176366806,0.1824243813753128,-0.031499844044446945
1761475979544490000,10.243489990234375,0.011592043563723564,0.16498039662837982,-0.01176182646304369
1761475979554526700,10.253526611328125,0.003171827644109726,0.13967373967170715,0.012861398980021477
1761475979564562700,10.263562744140625,-0.002992324996739626,0.12385670095682144,0.03857848048210144
1761475979574599700,10.273599609375,-0.005597412586212158,0.11988671869039536,0.043158553540706635
1761475979584637000,10.283636962890625,0.0051963794976472855,0.14837828278541565,0.03783995658159256
1761475979594674000,10.293673828125,0.02316710539162159,0.1744537204504013,0.031072650104761124
1761475979604711000,10.3037109375,0.047349944710731506,0.18023625016212463,0.014090207405388355
1761475979614747600,10.31374755859375,0.07839196175336838,0.16391560435295105,-0.010033420287072659
1761475979624785000,10.323784912109375,0.10997545719146729,0.13267192244529724,-0.023506352677941322
1761475979634822000,10.33382177734375,0.13126331567764282,0.11330017447471619,-0.029809802770614624
1761475979644857900,10.34385791015625,0.14695972204208374,0.10970117896795273,-0.028712846338748932
1761475979654894800,10.353894775390625,0.1557207852602005,0.10030670464038849,-0.01449197344481945
1761475979664931800,10.363931884765625,0.16696466505527496,0.07037117332220078,0.01644064299762249
1761475979674968800,10.37396875,0.16099554300308228,0.040046218782663345,0.056360937654972076
1761475979685005800,10.384005859375,0.14781077206134796,-0.002466886769980192,0.08695133775472641
1761475979695042800,10.394042724609376,0.12404415011405945,-0.03856438025832176,0.08738021552562714
1761475979705079800,10.404079833984374,0.09768099337816238,-0.05876339226961136,0.06716123223304749
1761475979715115800,10.41411572265625,0.0748269185423851,-0.058832332491874695,0.04060737416148186
1761475979725152800,10.42415283203125,0.0631827786564827,-0.015990328043699265,0.00494205579161644
1761475979735190000,10.43418994140625,0.06599095463752747,0.02960227057337761,-0.019266866147518158
1761475979745226800,10.444226806640625,0.07079476863145828,0.05825841426849365,-0.026960205286741257
1761475979755263700,10.454263671875,0.06064213812351227,0.06567395478487015,-0.03323163837194443
1761475979765300700,10.46430078125,0.03957360237836838,0.05601147562265396,-0.03349688649177551
1761475979775338000,10.474337890625,0.012848739512264729,0.02747289277613163,-0.020112883299589157
1761475979785375000,10.484375,-0.016513677313923836,-0.00809069350361824,-0.007767533417791128
1761475979795411000,10.494410888671876,-0.04802001640200615,-0.028843574225902557,-0.004897511564195156
1761475979805448000,10.504447998046874,-0.06834766268730164,-0.06365987658500671,-0.029706720262765884
1761475979815484700,10.514484619140624,-0.07350519299507141,-0.09884262084960938,-0.057134803384542465
1761475979825522000,10.52452197265625,-0.06620519608259201,-0.11031924933195114,-0.07329832762479782
1761475979835559000,10.534558837890625,-0.05718204379081726,-0.10922688990831375,-0.07377499341964722
1761475979845596000,10.544595947265625,-0.06323514133691788,-0.1108628660440445,-0.06082989647984505
1761475979855633000,10.5546328125,-0.07899583131074905,-0.10329090058803558,-0.03391629830002785
1761475979865668900,10.5646689453125,-0.10350091010332108,-0.10215213149785995,-0.007250333670526743
1761475979875705600,10.57470556640625,-0.1281885951757431,-0.09796730428934097,0.015750130638480186
1761475979885742800,10.584742919921876,-0.14799878001213074,-0.07952944189310074,0.04110369086265564
1761475979895779800,10.59477978515625,-0.15829776227474213,-0.04388676583766937,0.0551297590136528
1761475979905816800,10.60481689453125,-0.1664656698703766,-0.01311899721622467,0.06071041524410248
1761475979915853800,10.614853759765625,-0.17114922404289246,0.0010750330984592438,0.04340941458940506
1761475979925890800,10.624890869140625,-0.17793309688568115,0.006639175582677126,0.021589338779449463
1761475979935927000,10.634927001953125,-0.1790667474269867,0.016542397439479828,-0.00380559079349041
1761475979945963800,10.6449638671875,-0.1756424605846405,0.037641558796167374,-0.030189793556928635
1761475979956000800,10.655000732421875,-0.16186432540416718,0.042402759194374084,-0.03673184663057327
1761475979966037800,10.665037841796876,-0.14051775634288788,0.021049531176686287,-0.02107192948460579
1761475979976075000,10.675074951171876,-0.12239444255828857,-0.025463320314884186,0.010454422794282436
1761475979986112000,10.685112060546874,-0.09319501370191574,-0.05124272033572197,0.042552970349788666
1761475979996148700,10.695148681640624,-0.06828144937753677,-0.07953538745641708,0.06642474979162216
1761475980006185700,10.705185791015625,-0.045782528817653656,-0.12756788730621338,0.08550257235765457
1761475980016221700,10.7152216796875,-0.04018032178282738,-0.16301211714744568,0.09005852043628693
1761475980026259000,10.725259033203125,-0.04339103028178215,-0.17396116256713867,0.08126742392778397
1761475980036296000,10.7352958984375,-0.048730552196502686,-0.16801227629184723,0.06744669377803802
1761475980046333000,10.7453330078125,-0.054755423218011856,-0.1595897525548935,0.04256211966276169
1761475980056369700,10.75536962890625,-0.04978920519351959,-0.1691284030675888,0.014058923348784447
1761475980066406700,10.76540673828125,-0.051182039082050323,-0.17040884494781494,-0.008851718157529831
1761475980076444000,10.77544384765625,-0.055312253534793854,-0.1720290184020996,-0.03705449402332306
1761475980086480000,10.78547998046875,-0.06498458981513977,-0.2024870663881302,-0.060573406517505646
1761475980096516900,10.795516845703125,-0.07950536161661148,-0.23978987336158752,-0.07461301982402802
1761475980106553900,10.805553955078125,-0.09618154168128967,-0.2785433828830719,-0.08150315284729004
1761475980116590800,10.8155908203125,-0.11192826926708221,-0.30345407128334045,-0.09116751700639725
1761475980126628600,10.825628662109375,-0.12335562705993652,-0.3125636577606201,-0.11285816878080368
1761475980136665900,10.835665771484376,-0.13197848200798035,-0.2744819223880768,-0.148605078458786
1761475980146702800,10.845702880859376,-0.1383381187915802,-0.23524528741836548,-0.18844836950302124
1761475980156738800,10.85573876953125,-0.142617329955101,-0.17306020855903625,-0.15056827664375305
1761475980166775800,10.86577587890625,-0.16658630967140198,-0.2296779453754425,-0.09771864116191864
1761475980176812500,10.8758125,-0.18749305605888367,-0.3191763162612915,-0.07616542279720306
1761475980186849500,10.885849609375,-0.1902073323726654,-0.30570366978645325,-0.05220097303390503
1761475980196886800,10.89588671875,-0.1814461648464203,-0.2646487355232239,-0.0035829078406095505
1761475980206923800,10.905923828125,-0.18340465426445007,-0.23149022459983826,0.0684790387749672
1761475980216960800,10.915960693359375,-0.19053135812282562,-0.18918803334236145,0.15896166861057281
1761475980226997500,10.92599755859375,-0.18799975514411926,-0.1579265147447586,0.2328505516052246
1761475980237033700,10.93603369140625,-0.1685015708208084,-0.17792092263698578,0.2583801746368408
