time,seconds_elapsed,z,y,x
1761475675515937800,0.060937744140625,0.025918982923030853,0.24730771780014038,-0.17750154435634613
1761475675525915000,0.070914794921875,-0.008051234297454357,0.25718754529953003,-0.0786077082157135
1761475675535891700,0.0808916015625,-0.03525448217988014,0.20091338455677032,0.024792375043034554
1761475675545868800,0.090868896484375,-0.05510648339986801,0.05863053351640701,0.1223871111869812
1761475675555845600,0.100845703125,-0.08138887584209442,-0.09512360394001007,0.20824436843395233
1761475675565822700,0.11082275390625,-0.10825884342193604,-0.24694296717643738,0.26568689942359924
1761475675575800800,0.12080078125,-0.10057233273983002,-0.3759152293205261,0.3060082197189331
1761475675585777700,0.130777587890625,-0.06375385820865631,-0.4205508828163147,0.324390172958374
1761475675595754800,0.140754638671875,0.0009040390141308308,-0.420163094997406,0.3297017216682434
1761475675605731800,0.15073193359375,0.07393085211515427,-0.4370613992214203,0.3153795003890991
1761475675615709000,0.160708984375,0.1277666836977005,-0.4391975700855255,0.29186877608299255
1761475675625686000,0.17068603515625,0.15015214681625366,-0.41596654057502747,0.26734691858291626
1761475675635662800,0.180662841796875,0.18105293810367584,-0.36867424845695496,0.24229423701763153
1761475675645640000,0.190639892578125,0.1936558187007904,-0.2897637188434601,0.2080198973417282
1761475675655616800,0.20061669921875,0.19901718199253082,-0.17065702378749847,0.15759536623954773
1761475675665593900,0.21059375,0.22390255331993103,-0.0231152456253767,0.11919736862182617
1761475675675570700,0.22057080078125,0.25573989748954773,0.15214216709136963,0.08311010152101517
1761475675685547800,0.2305478515625,0.2765679657459259,0.26918941736221313,0.009968250058591366
1761475675695524900,0.24052490234375,0.3167247772216797,0.2571732699871063,-0.07273083925247192
1761475675705501700,0.250501708984375,0.3485511541366577,0.2516717314720154,-0.16464106738567352
1761475675715478800,0.260478759765625,0.3483605682849884,0.21086524426937103,-0.22789263725280762
1761475675725456000,0.270455810546875,0.33146095275878906,0.21788319945335388,-0.25206029415130615
1761475675735433000,0.280432861328125,0.3024328947067261,0.225238636136055,-0.2430460900068283
1761475675745409800,0.290409912109375,0.2947680652141571,0.21131004393100739,-0.22926689684391022
1761475675755388000,0.300387939453125,0.31051138043403625,0.17057575285434723,-0.20125533640384674
1761475675765365000,0.310364990234375,0.3308345079421997,0.08650003373622894,-0.17808769643306732
1761475675775341800,0.320341796875,0.3449135422706604,-0.013766969554126263,-0.16841210424900055
1761475675785319000,0.33031884765625,0.35263004899024963,-0.10005152225494385,-0.1562824845314026
1761475675795295700,0.340295654296875,0.3297148644924164,-0.1695406436920166,-0.13849438726902008
1761475675805272800,0.35027294921875,0.2839529514312744,-0.16902345418930054,-0.10048947483301163
1761475675815250000,0.36025,0.2561134994029999,-0.10387497395277023,-0.049033429473638535
1761475675825226800,0.370226806640625,0.2484148144721985,-0.03722935914993286,0.0038050187285989523
1761475675835203800,0.380203857421875,0.25228604674339294,-0.021571258082985878,0.024533789604902267
1761475675845180700,0.3901806640625,0.26085183024406433,-0.04157079756259918,0.02058299072086811
1761475675855157800,0.40015771484375,0.27311813831329346,-0.07441215217113495,0.0026217573322355747
1761475675865134600,0.410134521484375,0.2599514424800873,-0.1035628467798233,-0.0289556086063385
1761475675875112000,0.42011181640625,0.22418975830078125,-0.13168886303901672,-0.06918641179800034
1761475675885089000,0.430089111328125,0.1896783858537674,-0.1477746218442917,-0.08415550738573074
1761475675895065900,0.44006591796875,0.16675105690956116,-0.13738307356834412,-0.06784433126449585
1761475675905043000,0.45004296875,0.15013720095157623,-0.08760246634483337,-0.04050830751657486
1761475675915019800,0.460019775390625,0.13143432140350342,-0.05045728385448456,-0.016248194500803947
1761475675924998000,0.469997802734375,0.1297815591096878,-0.03186602517962456,-0.017380570992827415
1761475675934975000,0.47997509765625,0.1371353715658188,-0.025509538128972054,-0.03327969089150429
1761475675944951800,0.489951904296875,0.14542579650878906,-0.007247176021337509,-0.05363982170820236
1761475675954929000,0.499928955078125,0.14563480019569397,0.013192210346460342,-0.08593215048313141
1761475675964905700,0.50990576171875,0.14228694140911102,0.02141711674630642,-0.12137509137392044
1761475675974882800,0.5198828125,0.14040517807006836,0.019070126116275787,-0.14582297205924988
1761475675984859600,0.529859619140625,0.1435288041830063,0.02348404936492443,-0.16321900486946106
1761475675994836700,0.539836669921875,0.13770082592964172,0.014390850439667702,-0.1728922724723816
1761475676004813800,0.549813720703125,0.12685376405715942,-0.00818742997944355,-0.18115419149398804
1761475676014790700,0.559790771484375,0.12876859307289124,-0.00016849138773977757,-0.16863417625427246
1761475676024768000,0.56976806640625,0.12757070362567902,0.03510001674294472,-0.14996542036533356
1761475676034744800,0.579744873046875,0.14703057706356049,0.12605606019496918,-0.12568944692611694
1761475676044722000,0.589721923828125,0.14489898085594177,0.1816926896572113,-0.11968082189559937
1761475676054698800,0.59969873046875,0.147834911942482,0.1851719617843628,-0.13031624257564545
1761475676064675800,0.60967578125,0.13245035707950592,0.1687394678592682,-0.17029614746570587
1761475676074653000,0.61965283203125,0.09026847779750824,0.08400193601846695,-0.21334630250930786
1761475676084629800,0.629629638671875,0.04784964770078659,-0.03399660810828209,-0.25239887833595276
1761475676094608000,0.63960791015625,0.031826846301555634,-0.12897871434688568,-0.24885626137256622
1761475676104584700,0.649584716796875,0.04169492423534393,-0.19549302756786346,-0.222981259226799
1761475676114561500,0.6595615234375,0.05848751962184906,-0.26469528675079346,-0.2022407203912735
1761475676124538600,0.66953857421875,0.08527998626232147,-0.2997342348098755,-0.18068721890449524
1761475676134515500,0.679515380859375,0.10183975845575333,-0.28155067563056946,-0.16081802546977997
1761475676144492500,0.689492431640625,0.0913596823811531,-0.19362109899520874,-0.143130362033844
1761475676154469600,0.6994697265625,0.06961648911237717,-0.07353250682353973,-0.12447080761194229
1761475676164446700,0.70944677734375,0.05172937363386154,0.03700864687561989,-0.1041058748960495
1761475676174423800,0.719423828125,0.04802527651190758,0.11232966184616089,-0.08004649728536606
1761475676184400600,0.729400634765625,0.0544741190969944,0.14578749239444733,-0.05405297875404358
1761475676194377700,0.739377685546875,0.06106407940387726,0.12698951363563538,-0.03458256274461746
1761475676204354600,0.7493544921875,0.06774835288524628,0.07268206775188446,-0.02631956897675991
1761475676214331600,0.75933154296875,0.08029606938362122,0.010862586088478565,-0.021227557212114334
1761475676224308500,0.76930859375,0.09261239320039749,-0.09000996500253677,-0.014358997344970703
1761475676234285600,0.77928564453125,0.08245451003313065,-0.13944964110851288,-0.000592244672589004
1761475676244262700,0.7892626953125,0.04600995406508446,-0.17156043648719788,0.009136016480624676
1761475676254239500,0.799239501953125,-0.00350390188395977,-0.19467385113239288,0.01676943153142929
1761475676264216600,0.809216552734375,-0.054858967661857605,-0.17313100397586823,0.030209073796868324
1761475676274194700,0.819194580078125,-0.09410017728805542,-0.08320201933383942,0.03561032563447952
1761475676284171500,0.829171630859375,-0.11834878474473953,-0.010918235406279564,0.0056966375559568405
1761475676294148600,0.839148681640625,-0.11448188126087189,0.03832973539829254,-0.048490703105926514
1761475676304125400,0.84912548828125,-0.09885285049676895,0.07835838198661804,-0.11298367381095886
1761475676314102500,0.8591025390625,-0.08028702437877655,0.10169097781181335,-0.1692942976951599
1761475676324079600,0.86907958984375,-0.0641365498304367,0.11442221701145172,-0.20819295942783356
1761475676334056700,0.879056640625,-0.05128104239702225,0.1268383413553238,-0.2073911875486374
1761475676344033800,0.88903369140625,-0.04563887044787407,0.14778411388397217,-0.18157796561717987
1761475676354010600,0.8990107421875,-0.04381709173321724,0.1287817656993866,-0.1341000497341156
1761475676363987700,0.90898779296875,-0.0576157309114933,0.08018866181373596,-0.08086185902357101
1761475676373964500,0.918964599609375,-0.077133908867836,0.02472183108329773,-0.02473791316151619
1761475676383941600,0.928941650390625,-0.09825703501701355,-0.02329522930085659,0.03538747876882553
1761475676393918500,0.93891845703125,-0.12420915067195892,-0.05223451554775238,0.10505077987909317
1761475676403895600,0.9488955078125,-0.17379800975322723,-0.06646725535392761,0.16311036050319672
1761475676413872600,0.95887255859375,-0.23321843147277832,-0.07113784551620483,0.2032550722360611
1761475676423849500,0.968849365234375,-0.27442896366119385,-0.08277320116758347,0.2382066547870636
1761475676433827600,0.97882763671875,-0.2975143492221832,-0.08190517127513885,0.25490257143974304
1761475676443804400,0.988804443359375,-0.304818332195282,-0.0690745934844017,0.26607826352119446
1761475676453781500,0.998781494140625,-0.3093908727169037,-0.05476350709795952,0.2526080906391144
1761475676463758600,1.008758544921875,-0.3209066390991211,-0.04597507417201996,0.20598812401294708
1761475676473735700,1.018735595703125,-0.32736289501190186,-0.04443305730819702,0.14308562874794006
1761475676483712800,1.028712646484375,-0.3212437331676483,-0.04923420399427414,0.061705294996500015
1761475676493689600,1.038689697265625,-0.32453376054763794,-0.07041826099157333,-0.033686526119709015
1761475676503666700,1.048666748046875,-0.3264451324939728,-0.09127960354089737,-0.12159667164087296
1761475676513643500,1.0586435546875,-0.3218042850494385,-0.08829903602600098,-0.1878296583890915
1761475676523620600,1.06862060546875,-0.31068453192710876,-0.0818086490035057,-0.23224586248397827
1761475676533597700,1.07859765625,-0.28584855794906616,-0.059285715222358704,-0.25508785247802734
1761475676543574500,1.088574462890625,-0.24685001373291016,-0.06316620856523514,-0.2403283715248108
1761475676553551600,1.098551513671875,-0.2010994702577591,-0.039654120802879333,-0.19797106087207794
1761475676563528400,1.108528564453125,-0.15425579249858856,0.015277305617928505,-0.11757021397352219
1761475676573505500,1.118505615234375,-0.10480383783578873,0.0733734667301178,-0.015828115865588188
1761475676583482600,1.128482666015625,-0.03321540728211403,0.14247317612171173,0.11846631020307541
1761475676593460500,1.13846044921875,0.04089580848813057,0.20874349772930145,0.2576063871383667
1761475676603437600,1.1484375,0.08731283992528915,0.19553261995315552,0.3667834997177124
1761475676613414400,1.158414306640625,0.0930543765425682,0.09172078967094421,0.43790608644485474
1761475676623391700,1.168391845703125,0.058868978172540665,-0.09884516894817352,0.4740561246871948
1761475676633368600,1.17836865234375,0.002443361561745405,-0.3332062065601349,0.4787188768386841
1761475676643345700,1.188345703125,-0.06668058037757874,-0.5109586119651794,0.4888039827346802
1761475676653322800,1.19832275390625,-0.14304284751415253,-0.5998914241790771,0.49548017978668213
1761475676663299600,1.208299560546875,-0.20634379982948303,-0.6459206938743591,0.5134701132774353
1761475676673276700,1.218276611328125,-0.2588511109352112,-0.642152726650238,0.5454755425453186
1761475676683253500,1.22825341796875,-0.28557059168815613,-0.5359389781951904,0.6102081537246704
1761475676693230600,1.238230712890625,-0.2877781093120575,-0.3678397834300995,0.6684697866439819
1761475676703207400,1.24820751953125,-0.2814309895038605,-0.20731908082962036,0.7032168507575989
1761475676713184500,1.2581845703125,-0.27760374546051025,-0.09010690450668335,0.6835963726043701
1761475676723161600,1.26816162109375,-0.27375203371047974,-0.08241330087184906,0.6068145036697388
1761475676733138700,1.278138671875,-0.2730957567691803,-0.14260004460811615,0.48410385847091675
1761475676743115800,1.28811572265625,-0.2757788896560669,-0.21673952043056488,0.36420756578445435
1761475676753092600,1.298092529296875,-0.27239125967025757,-0.26420581340789795,0.2668667137622833
1761475676763070500,1.308070556640625,-0.2632960379123688,-0.2962454855442047,0.20533065497875214
1761475676773047800,1.3180478515625,-0.25878196954727173,-0.27699413895606995,0.17319852113723755
1761475676783024600,1.328024658203125,-0.25960248708724976,-0.24074424803256989,0.1732957363128662
1761475676793001700,1.338001708984375,-0.26180973649024963,-0.2010251134634018,0.1948884278535843
1761475676802978600,1.347978515625,-0.2533313035964966,-0.11764873564243317,0.23998506367206573
1761475676812955600,1.35795556640625,-0.21913839876651764,-0.02642076648771763,0.306682825088501
1761475676822932700,1.3679326171875,-0.18056651949882507,0.06142120435833931,0.36904847621917725
1761475676832909600,1.37790966796875,-0.1519506722688675,0.021881356835365295,0.39425143599510193
1761475676842886700,1.38788671875,-0.13443772494792938,-0.08187326788902283,0.38744333386421204
1761475676852863500,1.397863525390625,-0.12611763179302216,-0.21882866322994232,0.35583144426345825
1761475676862840600,1.407840576171875,-0.10650398582220078,-0.3485507071018219,0.3133862614631653
1761475676872817400,1.4178173828125,-0.08321017771959305,-0.45761391520500183,0.27310389280319214
1761475676882794500,1.42779443359375,-0.051713768392801285,-0.5167858600616455,0.2358984649181366
1761475676892771800,1.437771728515625,-0.025345342233777046,-0.5240162014961243,0.20083247125148773
1761475676902748700,1.447748779296875,0.011414801701903343,-0.4760204553604126,0.15965493023395538
1761475676912725800,1.457725830078125,0.054390981793403625,-0.3766370415687561,0.09442365169525146
1761475676922703600,1.46770361328125,0.09374531358480453,-0.25255289673805237,-0.00018834200454875827
1761475676932680700,1.4776806640625,0.12124845385551453,-0.13905000686645508,-0.1363116204738617
1761475676942657800,1.48765771484375,0.1675264686346054,-0.005062375217676163,-0.2995503544807434
1761475676952634600,1.497634521484375,0.23708775639533997,0.13774921000003815,-0.4765273630619049
1761475676962611700,1.50761181640625,0.3304443657398224,0.3051222264766693,-0.64864182472229
1761475676972588500,1.517588623046875,0.43108105659484863,0.4386478662490845,-0.8087921738624573
1761475676982565600,1.527565673828125,0.5275929570198059,0.47890713810920715,-0.9636062383651733
1761475676992542500,1.53754248046875,0.6487767100334167,0.4692741334438324,-1.0724393129348755
1761475677002519600,1.54751953125,0.776077151298523,0.4406915009021759,-1.118278980255127
1761475677012496600,1.55749658203125,0.8812232613563538,0.3814582824707031,-1.1048673391342163
1761475677022473500,1.567473388671875,0.9497285485267639,0.29506611824035645,-1.040261149406433
1761475677032450600,1.577450439453125,0.9940229654312134,0.20180772244930267,-0.9209094643592834
1761475677042427600,1.587427734375,1.0021575689315796,0.16855841875076294,-0.7622492909431458
1761475677052404700,1.59740478515625,0.9981066584587097,0.16679790616035461,-0.5826106667518616
1761475677062381600,1.607381591796875,0.9881839752197266,0.1834099143743515,-0.3991737365722656
1761475677072358700,1.617358642578125,0.9828314185142517,0.17397139966487885,-0.23368914425373077
1761475677082336800,1.627336669921875,0.9645025134086609,0.1493331640958786,-0.10440865904092789
1761475677092313600,1.637313720703125,0.9194921851158142,0.11208054423332214,-0.03860338404774666
1761475677102291000,1.647291015625,0.8613923788070679,0.03503236174583435,-0.027735024690628052
1761475677112268000,1.65726806640625,0.812388002872467,-0.08493313193321228,-0.04750556871294975
1761475677122244900,1.667244873046875,0.7665646076202393,-0.1628340631723404,-0.06752215325832367
1761475677132222000,1.677221923828125,0.7247697114944458,-0.16164202988147736,-0.0731869637966156
1761475677142199000,1.687198974609375,0.6928845047950745,-0.13262927532196045,-0.06310582906007767
1761475677152175900,1.69717578125,0.6627054810523987,-0.08590395748615265,-0.04306208714842796
1761475677162153000,1.707153076171875,0.6236608624458313,-0.011316537857055664,-0.019490182399749756
1761475677172129800,1.7171298828125,0.5758349895477295,0.06672771275043488,0.007250424474477768
1761475677182107000,1.72710693359375,0.5198574662208557,0.1311889886856079,0.030804751440882683
1761475677192083700,1.737083740234375,0.44871315360069275,0.1770428717136383,0.03435968980193138
1761475677202061000,1.74706103515625,0.378351628780365,0.15902286767959595,0.016205716878175735
1761475677212038100,1.7570380859375,0.29227524995803833,0.08458884060382843,-0.02310933917760849
1761475677222015000,1.767014892578125,0.2053837776184082,-0.012948103249073029,-0.04460237920284271
1761475677231992000,1.776991943359375,0.13312283158302307,-0.06714353710412979,-0.02695990353822708
1761475677241970000,1.786969970703125,0.07986972481012344,-0.05367806553840637,0.030594469979405403
1761475677251947000,1.796947021484375,0.030481796711683273,-0.04535014182329178,0.10383546352386475
1761475677261924000,1.806924072265625,-0.014409511350095272,-0.049242354929447174,0.17653150856494904
1761475677271901000,1.81690087890625,-0.05426716431975365,-0.08372053503990173,0.2318250834941864
1761475677281878000,1.8268779296875,-0.08474038541316986,-0.14683692157268524,0.2782866060733795
1761475677291854800,1.836854736328125,-0.11097617447376251,-0.20250152051448822,0.3260023295879364
1761475677301832000,1.84683203125,-0.14585906267166138,-0.21027342975139618,0.3745538890361786
1761475677311808800,1.856808837890625,-0.17847879230976105,-0.16606920957565308,0.41965609788894653
1761475677321785900,1.866785888671875,-0.20533783733844757,-0.09376731514930725,0.4580008387565613
1761475677331763000,1.876762939453125,-0.2295566201210022,-0.053769830614328384,0.45904719829559326
1761475677341739800,1.88673974609375,-0.24935562908649445,-0.08358871191740036,0.41090843081474304
1761475677351717000,1.896717041015625,-0.29089704155921936,-0.18000458180904388,0.3186512887477875
1761475677361694000,1.90669384765625,-0.33827096223831177,-0.23167017102241516,0.22201980650424957
1761475677371671000,1.916671142578125,-0.42767247557640076,-0.2467181384563446,0.10243783891201019
1761475677381648000,1.92664794921875,-0.5448899269104004,-0.3164522349834442,-0.04612527787685394
1761475677391625000,1.936625,-0.6422812938690186,-0.37042707204818726,-0.20727254450321198
1761475677401602000,1.94660205078125,-0.6921684741973877,-0.33012068271636963,-0.3388358950614929
1761475677411580000,1.956579833984375,-0.6884402632713318,-0.17405565083026886,-0.41955530643463135
1761475677421557000,1.966556884765625,-0.6341359615325928,0.031769149005413055,-0.45205599069595337
1761475677431534000,1.9765341796875,-0.5477768182754517,0.25660911202430725,-0.44372648000717163
1761475677441511000,1.986510986328125,-0.4384807050228119,0.42832282185554504,-0.39997047185897827
1761475677451488000,1.996488037109375,-0.33530357480049133,0.5595455765724182,-0.33744141459465027
1761475677461464800,2.00646484375,-0.25027337670326233,0.6499295830726624,-0.2551156282424927
1761475677471442000,2.01644189453125,-0.18480609357357025,0.7040013074874878,-0.16472476720809937
1761475677481418800,2.026418701171875,-0.13520844280719757,0.7052479386329651,-0.06755507737398148
1761475677491395800,2.036395751953125,-0.10605678707361221,0.6267676949501038,0.03253742679953575
1761475677501373000,2.046373046875,-0.09354844689369202,0.4915957450866699,0.15060627460479736
1761475677511350000,2.05635009765625,-0.1069217249751091,0.3852361738681793,0.2751469612121582
1761475677521327000,2.0663271484375,-0.1615186482667923,0.277479887008667,0.38087978959083557
1761475677531304000,2.076303955078125,-0.20984618365764618,0.11514035612344742,0.477222204208374
1761475677541281000,2.086281005859375,-0.2680722177028656,-0.010052181780338287,0.5371920466423035
1761475677551257900,2.0962578125,-0.3501257002353668,-0.14447300136089325,0.5661283731460571
1761475677561235000,2.10623486328125,-0.4341513514518738,-0.24955227971076965,0.5501113533973694
1761475677571213000,2.116213134765625,-0.5471896529197693,-0.35162192583084106,0.49144846200942993
1761475677581190000,2.12618994140625,-0.6684971451759338,-0.48129549622535706,0.3829296827316284
1761475677591167000,2.1361669921875,-0.7603871822357178,-0.5860898494720459,0.2527134418487549
1761475677601143800,2.146143798828125,-0.8307223320007324,-0.6151854395866394,0.09443989396095276
1761475677611121000,2.156120849609375,-0.8678841590881348,-0.6152767539024353,-0.08501522243022919
1761475677621098000,2.166097900390625,-0.8858671188354492,-0.5703593492507935,-0.263356477022171
1761475677631074800,2.17607470703125,-0.8726421594619751,-0.41034936904907227,-0.4314122796058655
1761475677641052000,2.186052001953125,-0.8039402961730957,-0.22527191042900085,-0.5748546719551086
1761475677651029000,2.196029052734375,-0.6891850829124451,-0.04277907684445381,-0.6945626139640808
1761475677661006000,2.206006103515625,-0.5572145581245422,0.11119983345270157,-0.7789917588233948
1761475677670983000,2.21598291015625,-0.42629459500312805,0.21614542603492737,-0.8129178285598755
1761475677680960000,2.2259599609375,-0.3281877636909485,0.29048144817352295,-0.7959412336349487
1761475677690937000,2.23593701171875,-0.2728200852870941,0.3177235722541809,-0.7433063983917236
1761475677700914000,2.245913818359375,-0.255194753408432,0.2939620316028595,-0.6639742851257324
1761475677710891000,2.25589111328125,-0.24212971329689026,0.264615923166275,-0.5664132833480835
1761475677720868900,2.265868896484375,-0.2379797101020813,0.15786631405353546,-0.45049598813056946
1761475677730846000,2.275845947265625,-0.2607126235961914,0.03592415899038315,-0.31990933418273926
1761475677740823000,2.285822998046875,-0.2904526889324188,-0.06755243241786957,-0.17208153009414673
1761475677750800000,2.2957998046875,-0.3227140009403229,-0.10955218970775604,-0.018103061243891716
1761475677760777000,2.30577685546875,-0.34303632378578186,-0.12176091969013214,0.1350553333759308
1761475677770753800,2.31575390625,-0.3557286858558655,-0.12376824766397476,0.25522032380104065
1761475677780731000,2.32573095703125,-0.36966127157211304,-0.11679209768772125,0.3247852921485901
1761475677790707700,2.335707763671875,-0.3859081268310547,-0.10009099543094635,0.3525092899799347
1761475677800685000,2.34568505859375,-0.4006303548812866,-0.0832211971282959,0.32695093750953674
1761475677810662100,2.355662109375,-0.4127821922302246,-0.06781566143035889,0.2643524408340454
1761475677820639000,2.365638916015625,-0.41164398193359375,-0.05189875140786171,0.17004619538784027
1761475677830616000,2.375615966796875,-0.3995056748390198,-0.015068559907376766,0.07195667177438736
1761475677840593000,2.385593017578125,-0.3677186965942383,0.009319338016211987,-0.025495586916804314
1761475677850570000,2.395570068359375,-0.3336593806743622,0.05969574302434921,-0.09995657950639725
1761475677860546800,2.405546875,-0.2907039225101471,0.14718644320964813,-0.15442568063735962
1761475677870524000,2.41552392578125,-0.23775948584079742,0.25198039412498474,-0.17849323153495789
1761475677880502000,2.425501953125,-0.17301057279109955,0.30850863456726074,-0.17632168531417847
1761475677890478800,2.435478759765625,-0.09761043637990952,0.31275346875190735,-0.13898855447769165
1761475677900456000,2.4454560546875,-0.028125902637839317,0.2517441511154175,-0.07291420549154282
1761475677910433000,2.45543310546875,0.027920134365558624,0.17720596492290497,0.02312581054866314
1761475677920409900,2.465409912109375,0.0652022585272789,0.057847876101732254,0.1250164955854416
1761475677930387000,2.475386962890625,0.0958118736743927,-0.08751250803470612,0.24051514267921448
1761475677940363800,2.48536376953125,0.1204138919711113,-0.15201400220394135,0.38292741775512695
1761475677950340900,2.4953408203125,0.12927114963531494,-0.15158657729625702,0.5184511542320251
1761475677960318000,2.50531787109375,0.13415192067623138,-0.11255501210689545,0.6320461630821228
1761475677970295000,2.515294921875,0.14983873069286346,-0.07331829518079758,0.7146158814430237
1761475677980272000,2.525272216796875,0.1694907248020172,-0.09263366460800171,0.7578709721565247
1761475677990249000,2.5352490234375,0.1561768800020218,-0.2265353798866272,0.7234259843826294
1761475678000226000,2.54522607421875,0.12168973684310913,-0.3996371328830719,0.6272427439689636
1761475678010203000,2.555202880859375,0.08721143752336502,-0.5182986259460449,0.5052623152732849
1761475678020180000,2.565179931640625,0.06830433011054993,-0.5918599367141724,0.37669476866722107
1761475678030156800,2.57515673828125,0.03684508800506592,-0.6507892608642578,0.27368730306625366
1761475678040135000,2.585135009765625,-0.01058421190828085,-0.562903881072998,0.18830500543117523
1761475678050112000,2.595112060546875,-0.0479745976626873,-0.34650886058807373,0.15041527152061462
1761475678060088800,2.6050888671875,-0.0733846127986908,-0.03882535174489021,0.13909152150154114
1761475678070066000,2.61506591796875,-0.0855444073677063,0.251120388507843,0.13058345019817352
1761475678080042800,2.625042724609375,-0.043941836804151535,0.4518739879131317,0.1311965137720108
1761475678090019800,2.635019775390625,0.01991043984889984,0.5482714772224426,0.14296811819076538
1761475678099997000,2.644996826171875,0.08037298172712326,0.5640358328819275,0.16180944442749023
1761475678109973800,2.654973876953125,0.12938818335533142,0.5346828103065491,0.18951727449893951
1761475678119950800,2.664950927734375,0.18724268674850464,0.5239297747612,0.24724794924259186
1761475678129927700,2.674927734375,0.25444385409355164,0.5492676496505737,0.33759790658950806
1761475678139904800,2.68490478515625,0.30612143874168396,0.5937315225601196,0.44441941380500793
1761475678149881600,2.694881591796875,0.33665329217910767,0.6363958716392517,0.538637638092041
1761475678159858700,2.704858642578125,0.33920884132385254,0.605904221534729,0.6037471294403076
1761475678169835800,2.714835693359375,0.3276270627975464,0.5003118515014648,0.6303964257240295
1761475678179812600,2.7248125,0.2950960099697113,0.33069971203804016,0.6236327886581421
1761475678189789700,2.734789794921875,0.24826644361019135,0.1156352311372757,0.5939368009567261
1761475678199767600,2.744767578125,0.20432108640670776,-0.10870439559221268,0.5542530417442322
1761475678209744600,2.75474462890625,0.1323387175798416,-0.3418016731739044,0.4950587749481201
1761475678219721700,2.7647216796875,0.075359046459198,-0.523430585861206,0.42918044328689575
1761475678229698600,2.774698486328125,0.0500827394425869,-0.6457750201225281,0.3634679615497589
1761475678239675600,2.784675537109375,0.04774714633822441,-0.7435433864593506,0.27984338998794556
1761475678249652700,2.79465283203125,0.04406076669692993,-0.8909000754356384,0.18086865544319153
1761475678259629800,2.8046298828125,0.046010468155145645,-0.9723629951477051,0.0685005635023117
1761475678269606700,2.814606689453125,0.05472245067358017,-1.0140701532363892,-0.05051634460687637
1761475678279583700,2.824583740234375,0.06401901692152023,-0.9525127410888672,-0.15852750837802887
1761475678289560800,2.834560791015625,0.09320349991321564,-0.7635644674301147,-0.24864429235458374
1761475678299537700,2.84453759765625,0.17051586508750916,-0.4908011257648468,-0.3183206021785736
1761475678309514800,2.8545146484375,0.30318596959114075,-0.2206750363111496,-0.3714345693588257
1761475678319491600,2.86449169921875,0.48983415961265564,0.018283478915691376,-0.4320515990257263
1761475678329468700,2.87446875,0.6925870776176453,0.20119354128837585,-0.5035272836685181
1761475678339445500,2.884445556640625,0.8531261682510376,0.29817894101142883,-0.5784603357315063
1761475678349423600,2.894423583984375,0.9417455196380615,0.329614520072937,-0.6597096920013428
1761475678359400700,2.904400634765625,0.9684301018714905,0.33148297667503357,-0.7225104570388794
1761475678369377500,2.91437744140625,0.9669548273086548,0.33554479479789734,-0.7551072835922241
1761475678379354600,2.924354736328125,0.9429326057434082,0.3628653585910797,-0.758109450340271
1761475678389331500,2.93433154296875,0.9043158292770386,0.3741026818752289,-0.7288849353790283
1761475678399308800,2.944308837890625,0.8604019284248352,0.3691137731075287,-0.670626163482666
1761475678409286000,2.954285888671875,0.8157194256782532,0.3646819591522217,-0.5885408520698547
1761475678419262700,2.9642626953125,0.7789579629898071,0.34139740467071533,-0.49439385533332825
1761475678429239800,2.97423974609375,0.7299603223800659,0.26346367597579956,-0.4070020318031311
1761475678439216600,2.984216552734375,0.6627581119537354,0.1635674387216568,-0.33116477727890015
1761475678449193700,2.99419384765625,0.5914193391799927,0.053002096712589264,-0.27150818705558777
1761475678459170600,3.004170654296875,0.5061845779418945,-0.09821271896362305,-0.228605717420578
1761475678469147600,3.014147705078125,0.4032593071460724,-0.23744603991508484,-0.20427408814430237
1761475678479124700,3.024124755859375,0.3235032260417938,-0.3279069662094116,-0.17569543421268463
1761475678489101600,3.0341015625,0.27079612016677856,-0.3614475429058075,-0.1497800201177597
1761475678499079700,3.04407958984375,0.2380024790763855,-0.335859090089798,-0.11903034895658493
1761475678509056800,3.054056884765625,0.21364380419254303,-0.2767488956451416,-0.09628176689147949
1761475678519033600,3.06403369140625,0.19619770348072052,-0.1778108775615692,-0.06927571445703506
1761475678529010700,3.0740107421875,0.18152862787246704,-0.05691274255514145,-0.04018689692020416
1761475678538987500,3.083987548828125,0.18111664056777954,0.054383158683776855,0.003598397132009268
1761475678548964900,3.09396484375,0.18889588117599487,0.11131419241428375,0.05768563970923424
1761475678558941700,3.103941650390625,0.1963023990392685,0.09929348528385162,0.11742167919874191
1761475678568918800,3.113918701171875,0.19038304686546326,0.05393090099096298,0.1954769641160965
1761475678578896000,3.123895751953125,0.17215797305107117,-0.00462481752038002,0.28922367095947266
1761475678588872700,3.133872802734375,0.137441486120224,-0.07055790722370148,0.38634592294692993
1761475678598849800,3.143849853515625,0.09166280925273895,-0.12739484012126923,0.48392146825790405
1761475678608826600,3.15382666015625,0.03775985538959503,-0.17580997943878174,0.5777969360351562
1761475678618803700,3.1638037109375,-0.017287686467170715,-0.20059068500995636,0.6587396860122681
1761475678628780500,3.173780517578125,-0.05992340296506882,-0.19755688309669495,0.7285019159317017
1761475678638757600,3.183757568359375,-0.07700971513986588,-0.17190878093242645,0.7801161408424377
1761475678648735700,3.19373583984375,-0.09755705296993256,-0.25029316544532776,0.7863563895225525
1761475678658712600,3.203712646484375,-0.1480572521686554,-0.40827107429504395,0.7166736721992493
1761475678668689700,3.213689697265625,-0.23003825545310974,-0.5985842347145081,0.5909367203712463
1761475678678666500,3.22366650390625,-0.3672592341899872,-0.679665744304657,0.41696441173553467
1761475678688643600,3.2336435546875,-0.5009635090827942,-0.6738112568855286,0.21605344116687775
1761475678698620700,3.24362060546875,-0.5899144411087036,-0.5981892347335815,0.01263347826898098
1761475678708597800,3.25359765625,-0.6295298933982849,-0.43835052847862244,-0.15528428554534912
1761475678718574800,3.263574951171875,-0.5994777083396912,-0.21318265795707703,-0.2865285575389862
1761475678728551700,3.2735517578125,-0.4957168698310852,0.022855913266539574,-0.36491402983665466
1761475678738528800,3.28352880859375,-0.3534529209136963,0.2419895976781845,-0.3992057144641876
1761475678748505600,3.293505615234375,-0.19862283766269684,0.4225965440273285,-0.38882389664649963
1761475678758482700,3.303482666015625,-0.08500172942876816,0.5487997531890869,-0.3387008011341095
1761475678768459800,3.313459716796875,-0.01844261772930622,0.6623911261558533,-0.26622459292411804
1761475678778436600,3.3234365234375,0.01958359405398369,0.7644666433334351,-0.17409920692443848
1761475678788413700,3.33341357421875,0.03689304366707802,0.7822741270065308,-0.08069568872451782
1761475678798391600,3.3433916015625,0.03555746749043465,0.6896435022354126,-0.012546202167868614
1761475678808368600,3.35336865234375,0.012256843969225883,0.5264754891395569,0.03938489779829979
1761475678818345700,3.363345703125,-0.00918346643447876,0.34925171732902527,0.09869243204593658
1761475678828322600,3.373322509765625,-0.032249774783849716,0.17190265655517578,0.153966024518013
1761475678838299600,3.383299560546875,-0.07138066738843918,0.015397466719150543,0.20547901093959808
1761475678848276700,3.39327685546875,-0.11289186030626297,-0.12736521661281586,0.2398798167705536
1761475678858253800,3.40325390625,-0.15523691475391388,-0.24999766051769257,0.2539791464805603
1761475678868230700,3.413230712890625,-0.18799540400505066,-0.30752167105674744,0.2560598850250244
1761475678878207700,3.423207763671875,-0.2526777386665344,-0.2583298981189728,0.2285214364528656
1761475678888184800,3.433184814453125,-0.30815842747688293,-0.19612789154052734,0.17333829402923584
1761475678898161700,3.44316162109375,-0.3618573546409607,-0.11490786075592041,0.07277094572782516
1761475678908138800,3.453138671875,-0.43903830647468567,-0.012114053592085838,-0.08594723045825958
1761475678918115600,3.463115478515625,-0.4903707504272461,0.013190237805247307,-0.2822970449924469
1761475678928092700,3.4730927734375,-0.4671482443809509,-0.011311642825603485,-0.48388928174972534
1761475678938069500,3.483069580078125,-0.394364595413208,0.007745139300823212,-0.6438267230987549
1761475678948047600,3.493047607421875,-0.31222766637802124,0.08216258883476257,-0.7533518671989441
1761475678958024700,3.503024658203125,-0.23509693145751953,0.2084805816411972,-0.8172578811645508
1761475678968001500,3.51300146484375,-0.161027729511261,0.30611610412597656,-0.8388691544532776
1761475678977978600,3.522978515625,-0.0959685668349266,0.41527271270751953,-0.8315268754959106
1761475678987955700,3.532955810546875,-0.05749024450778961,0.47321411967277527,-0.808673620223999
1761475678997932800,3.542932861328125,-0.027288667857646942,0.5031829476356506,-0.7640214562416077
1761475679007910000,3.552909912109375,-0.013333092443645,0.4811132848262787,-0.7057533264160156
1761475679017886700,3.56288671875,-0.006904222071170807,0.4233431816101074,-0.6082672476768494
1761475679027863800,3.57286376953125,-0.026398545131087303,0.3399142920970917,-0.49149128794670105
1761475679037840600,3.582840576171875,-0.06282366067171097,0.20366057753562927,-0.3559805750846863
1761475679047817700,3.592817626953125,-0.10573068261146545,0.08067308366298676,-0.2059614658355713
1761475679057794800,3.602794921875,-0.15254318714141846,-0.016399133950471878,-0.06589464098215103
1761475679067771600,3.612771728515625,-0.20506249368190765,-0.06629159301519394,0.058360978960990906
1761475679077748700,3.622748779296875,-0.24306419491767883,-0.08031180500984192,0.1520768254995346
1761475679087725600,3.6327255859375,-0.24777916073799133,-0.07602784782648087,0.20953427255153656
1761475679097703700,3.64270361328125,-0.24152153730392456,-0.06674912571907043,0.22454065084457397
1761475679107680800,3.6526806640625,-0.24129576981067657,-0.06046619638800621,0.19739677011966705
1761475679117657900,3.662657958984375,-0.24884317815303802,-0.044381238520145416,0.1172124445438385
1761475679127634700,3.672634765625,-0.247343972325325,-0.02915029413998127,0.022658873349428177
1761475679137611800,3.68261181640625,-0.208452507853508,0.0061733415350317955,-0.07097307592630386
1761475679147588900,3.6925888671875,-0.12467874586582184,0.10128793120384216,-0.13272038102149963
1761475679157566000,3.70256591796875,-0.006264750845730305,0.23696985840797424,-0.14917685091495514
1761475679167543000,3.71254296875,0.12347573041915894,0.34842613339424133,-0.12442750483751297
1761475679177519900,3.722519775390625,0.23454046249389648,0.3900292217731476,-0.07441733032464981
1761475679187497000,3.7324970703125,0.30538246035575867,0.354701429605484,-0.0037973264697939157
1761475679197473800,3.742473876953125,0.33595049381256104,0.2600281834602356,0.07717688381671906
1761475679207451000,3.752450927734375,0.3416745960712433,0.1787460297346115,0.16335171461105347
1761475679217428000,3.762427978515625,0.33155006170272827,0.033546485006809235,0.2615824043750763
1761475679227404800,3.77240478515625,0.30921879410743713,-0.1344328671693802,0.36072400212287903
1761475679237382000,3.7823818359375,0.29199931025505066,-0.27741187810897827,0.4653041958808899
1761475679247359700,3.79235986328125,0.28368833661079407,-0.35524782538414,0.5779851675033569
1761475679257336800,3.8023369140625,0.29192787408828735,-0.36033526062965393,0.6939769983291626
1761475679267314000,3.81231396484375,0.28826403617858887,-0.31192877888679504,0.7882077097892761
1761475679277290800,3.822290771484375,0.25616493821144104,-0.2933599054813385,0.8196724057197571
1761475679287267800,3.832267822265625,0.17843970656394958,-0.3508433699607849,0.7787526845932007
1761475679297244700,3.84224462890625,0.0791701152920723,-0.44800588488578796,0.6716805100440979
1761475679307222000,3.852221923828125,-0.02941202186048031,-0.5296654105186462,0.5299587845802307
1761475679317198800,3.86219873046875,-0.12840837240219116,-0.6170583367347717,0.37783125042915344
1761475679327176000,3.872176025390625,-0.22082877159118652,-0.6889135837554932,0.2275923639535904
1761475679337153000,3.882153076171875,-0.29908016324043274,-0.6376101970672607,0.11069557070732117
1761475679347129900,3.8921298828125,-0.33221322298049927,-0.44454190135002136,0.040304962545633316
1761475679357107000,3.90210693359375,-0.34080296754837036,-0.19080178439617157,-0.0026776583399623632
1761475679367083800,3.912083740234375,-0.27794942259788513,0.04163694754242897,-0.0139761446043849
1761475679377060900,3.922060791015625,-0.17325656116008759,0.2926507890224457,0.0177594143897295
1761475679387039000,3.9320390625,-0.04813680052757263,0.539937436580658,0.09399756044149399
1761475679397015800,3.942015869140625,0.04127829894423485,0.7107046246528625,0.18073084950447083
1761475679406993000,3.951992919921875,0.09187570959329605,0.7983875870704651,0.270766019821167
1761475679416969700,3.9619697265625,0.12237130105495453,0.9070461392402649,0.3567613661289215
1761475679426946800,3.97194677734375,0.1546064168214798,0.9983437657356262,0.4387943744659424
1761475679436923600,3.981923583984375,0.1892746388912201,1.0521864891052246,0.49583983421325684
1761475679446900700,3.991900634765625,0.21839122474193573,1.0314369201660156,0.524311363697052
1761475679456877800,4.0018779296875,0.21769560873508453,0.927195131778717,0.5174188017845154
1761475679466855000,4.01185498046875,0.19791126251220703,0.7380529642105103,0.49033859372138977
1761475679476832000,4.02183203125,0.14344003796577454,0.5282134413719177,0.4436648488044739
1761475679486808800,4.031808837890625,0.04565758630633354,0.3203074634075165,0.37582632899284363
1761475679496786000,4.041785888671875,-0.062203098088502884,0.10729584842920303,0.3016647696495056
1761475679506762800,4.0517626953125,-0.1305474042892456,-0.06684164702892303,0.23695534467697144
1761475679516739800,4.06173974609375,-0.13548649847507477,-0.17667120695114136,0.18118342757225037
1761475679526717000,4.071717041015625,-0.08975213021039963,-0.2671389877796173,0.12183590978384018
1761475679536693800,4.08169384765625,-0.0228338111191988,-0.35666194558143616,0.04680294170975685
1761475679546670800,4.0916708984375,0.05485977604985237,-0.41477036476135254,-0.04698431119322777
1761475679556647700,4.101647705078125,0.12889139354228973,-0.4272422194480896,-0.1375693529844284
1761475679566624800,4.111624755859375,0.1959487497806549,-0.3924843370914459,-0.22309784591197968
1761475679576601900,4.121601806640625,0.2509073317050934,-0.2817378640174866,-0.3097083568572998
1761475679586579700,4.131579833984375,0.31155723333358765,-0.14175914227962494,-0.4067806601524353
1761475679596556800,4.141556884765625,0.38584452867507935,-0.018013490363955498,-0.5163888931274414
1761475679606534000,4.151533935546875,0.4675676226615906,0.07878617942333221,-0.6270979046821594
1761475679616511000,4.161510986328125,0.5416437387466431,0.1434839516878128,-0.7343383431434631
1761475679626488000,4.171488037109375,0.6063517332077026,0.18437156081199646,-0.8196572065353394
1761475679636465000,4.18146484375,0.6530504822731018,0.22376585006713867,-0.8706783056259155
1761475679646442000,4.19144189453125,0.6908074617385864,0.28263211250305176,-0.8868342041969299
1761475679656418800,4.201418701171875,0.72162264585495,0.30705541372299194,-0.8802071809768677
1761475679666396000,4.21139599609375,0.7467365264892578,0.292923241853714,-0.8569619655609131
1761475679676372700,4.221372802734375,0.7526077628135681,0.27519404888153076,-0.806608259677887
1761475679686349800,4.231349853515625,0.739255964756012,0.24765947461128235,-0.735228419303894
1761475679696327000,4.241326904296875,0.6971005201339722,0.20053376257419586,-0.6380957365036011
1761475679706303700,4.2513037109375,0.6417654156684875,0.16896720230579376,-0.5172380805015564
1761475679716280800,4.26128076171875,0.5793425440788269,0.132634237408638,-0.385392963886261
1761475679726258000,4.2712578125,0.5249319076538086,0.03571365401148796,-0.25992077589035034
1761475679736235800,4.28123583984375,0.4638158082962036,-0.0733819380402565,-0.13647232949733734
1761475679746212900,4.291212890625,0.39265817403793335,-0.19697216153144836,-0.025297116488218307
1761475679756189700,4.301189697265625,0.3090311884880066,-0.3269868791103363,0.06002630293369293
1761475679766167000,4.3111669921875,0.2300143837928772,-0.4257220923900604,0.1237671747803688
1761475679776144000,4.321143798828125,0.16771478950977325,-0.4599842131137848,0.15665188431739807
1761475679786121000,4.331120849609375,0.13545620441436768,-0.4711972773075104,0.1847439557313919
1761475679796097800,4.341097900390625,0.10778596997261047,-0.4225064218044281,0.20327316224575043
1761475679806075000,4.351074951171875,0.08768082410097122,-0.3248015344142914,0.20904658734798431
1761475679816052000,4.361052001953125,0.07713417708873749,-0.21268779039382935,0.18205492198467255
1761475679826028800,4.37102880859375,0.07911904901266098,-0.10910579562187195,0.14458191394805908
1761475679836006000,4.381005859375,0.0757773146033287,-0.044461823999881744,0.08746936917304993
1761475679845982700,4.390982666015625,0.07280704379081726,-0.008491842076182365,0.03861897811293602
1761475679855959800,4.400959716796875,0.06409957259893417,0.014809751883149147,0.013682468794286251
1761475679865936600,4.4109365234375,0.05325928330421448,0.0318702831864357,0.01620829850435257
1761475679875914800,4.420914794921875,0.037592705339193344,0.02303284965455532,0.043089449405670166
1761475679885891800,4.430891845703125,0.01229657419025898,0.002971686888486147,0.08602865040302277
1761475679895868700,4.44086865234375,-0.006395621225237846,0.003946669865399599,0.1520175188779831
1761475679905845800,4.450845703125,-0.01482485607266426,0.02493499405682087,0.24045199155807495
1761475679915822800,4.46082275390625,-0.00453200563788414,0.018767911940813065,0.3356512188911438
1761475679925800000,4.470800048828125,-0.016983095556497574,-0.08905597776174545,0.3883308470249176
1761475679935777000,4.480777099609375,-0.06327176094055176,-0.29426610469818115,0.3810982406139374
1761475679945753900,4.49075390625,-0.16916780173778534,-0.503122866153717,0.3128967583179474
1761475679955731000,4.50073095703125,-0.316032350063324,-0.6392911076545715,0.20855145156383514
1761475679965707800,4.510707763671875,-0.48832017183303833,-0.6603793501853943,0.05573487654328346
1761475679975684900,4.520684814453125,-0.6298940777778625,-0.6492316126823425,-0.10655443370342255
1761475679985661700,4.53066162109375,-0.7037599682807922,-0.5169785618782043,-0.2508171498775482
1761475679995638800,4.540638671875,-0.6938583254814148,-0.29631489515304565,-0.3489450514316559
1761475680005615900,4.550615966796875,-0.6159242391586304,-0.039263494312763214,-0.4233889579772949
1761475680015593700,4.56059375,-0.48592233657836914,0.17575693130493164,-0.4756638705730438
1761475680025570800,4.57057080078125,-0.3329329192638397,0.3716880977153778,-0.5033823251724243
1761475680035548000,4.5805478515625,-0.1813471019268036,0.58525151014328,-0.4773608446121216
1761475680045524700,4.590524658203125,-0.03661680966615677,0.7704833149909973,-0.3971307873725891
1761475680055501800,4.600501708984375,0.0846230611205101,0.9114066362380981,-0.27772292494773865
1761475680065479000,4.61047900390625,0.17992347478866577,1.0265940427780151,-0.14024868607521057
1761475680075456000,4.6204560546875,0.24935609102249146,1.0286777019500732,-0.012357831932604313
1761475680085432800,4.630432861328125,0.2909882962703705,0.92192143201828,0.09775232523679733
1761475680095410000,4.640409912109375,0.30928874015808105,0.7526991367340088,0.1912231594324112
1761475680105387000,4.650386962890625,0.29502442479133606,0.5348191261291504,0.27029645442962646
1761475680115363600,4.660363525390625,0.2292582094669342,0.33072352409362793,0.348713219165802
1761475680125340700,4.670340576171875,0.13532765209674835,0.15558412671089172,0.4252857565879822
1761475680135317500,4.6803173828125,0.008303915150463581,-0.02460029348731041,0.4829661250114441
1761475680145294600,4.690294677734375,-0.12306062132120132,-0.18912595510482788,0.5279787182807922
1761475680155271400,4.700271484375,-0.23231308162212372,-0.2954832911491394,0.5431398749351501
1761475680165249500,4.71024951171875,-0.30639132857322693,-0.34189891815185547,0.5290932059288025
1761475680175226600,4.7202265625,-0.35469892621040344,-0.31626519560813904,0.46418559551239014
1761475680185203500,4.730203369140625,-0.38543739914894104,-0.26648467779159546,0.3604097068309784
1761475680195180500,4.7401806640625,-0.4021947979927063,-0.17728234827518463,0.226857528090477
1761475680205157600,4.75015771484375,-0.40748894214630127,-0.09863968193531036,0.04579939320683479
1761475680215134700,4.760134765625,-0.38186559081077576,-0.08636144548654556,-0.17326024174690247
1761475680225111800,4.77011181640625,-0.3216577172279358,-0.07222666591405869,-0.3787808418273926
1761475680235088600,4.780088623046875,-0.2450244426727295,-0.02127000316977501,-0.551433265209198
1761475680245065700,4.790065673828125,-0.1596716195344925,0.06267288327217102,-0.6814785599708557
1761475680255042600,4.80004248046875,-0.07967345416545868,0.14538055658340454,-0.7601209282875061
1761475680265019600,4.81001953125,0.003445871639996767,0.2176886647939682,-0.7772266268730164
1761475680274996500,4.81999658203125,0.06418964266777039,0.2612236440181732,-0.7405988574028015
1761475680284973600,4.8299736328125,0.08435893803834915,0.2606535255908966,-0.6666638255119324
1761475680294950700,4.83995068359375,0.0746927335858345,0.196279838681221,-0.5670093894004822
1761475680304928500,4.849928466796875,0.05206182971596718,0.12178302556276321,-0.4336118698120117
1761475680314905600,4.859905517578125,0.017440203577280045,0.024291090667247772,-0.2953413426876068
1761475680324882400,4.86988232421875,-0.013305019587278366,-0.053368713706731796,-0.1424320638179779
1761475680334859500,4.879859619140625,-0.047411058098077774,-0.1045011356472969,0.014938910491764545
1761475680344836600,4.889836669921875,-0.0784333124756813,-0.11423765867948532,0.14578185975551605
1761475680354813700,4.899813720703125,-0.10352694988250732,-0.10889855772256851,0.24948003888130188
1761475680364790800,4.909790771484375,-0.11933214962482452,-0.12008388340473175,0.3111397325992584
1761475680374767600,4.919767578125,-0.1200496032834053,-0.1478840857744217,0.3349132239818573
1761475680384744700,4.92974462890625,-0.11934861540794373,-0.17998774349689484,0.3129492700099945
1761475680394721500,4.939721435546875,-0.11899974197149277,-0.20460282266139984,0.26675623655319214
1761475680404698600,4.94969873046875,-0.1277243047952652,-0.22157028317451477,0.18771898746490479
1761475680414675700,4.95967578125,-0.14328569173812866,-0.20994000136852264,0.08739984780550003
1761475680424652500,4.969652587890625,-0.16332703828811646,-0.17768000066280365,-0.021954499185085297
1761475680434629600,4.979629638671875,-0.15979915857315063,-0.11617190390825272,-0.1232595443725586
1761475680444607500,4.989607421875,-0.12717822194099426,-0.02067771553993225,-0.19373509287834167
1761475680454584600,4.99958447265625,-0.06591008603572845,0.11237567663192749,-0.23457705974578857
1761475680464561700,5.009561767578125,0.02348717674612999,0.2915409207344055,-0.2418629378080368
1761475680474538500,5.01953857421875,0.12038921564817429,0.395182341337204,-0.23428811132907867
1761475680484515600,5.029515625,0.2028312087059021,0.39589524269104004,-0.22935700416564941
1761475680494492400,5.039492431640625,0.2551892101764679,0.27916544675827026,-0.21152448654174805
1761475680504469800,5.0494697265625,0.2830841541290283,0.10256814956665039,-0.15832769870758057
1761475680514446600,5.059446533203125,0.2812497615814209,-0.052580151706933975,-0.055472150444984436
1761475680524423700,5.069423583984375,0.2718030512332916,-0.13261356949806213,0.1093040183186531
1761475680534400800,5.07940087890625,0.2590574324131012,-0.15335772931575775,0.2869592308998108
1761475680544377600,5.089377685546875,0.25548872351646423,-0.12619604170322418,0.4778965711593628
1761475680554354700,5.099354736328125,0.27476465702056885,-0.041618309915065765,0.6496478319168091
1761475680564331500,5.10933154296875,0.27531442046165466,0.0032582918647676706,0.7661712765693665
1761475680574309600,5.1193095703125,0.23974710702896118,-0.046813398599624634,0.7964879274368286
1761475680584286700,5.12928662109375,0.16743573546409607,-0.21322374045848846,0.7295209169387817
1761475680594263600,5.139263671875,0.08674702793359756,-0.4059239327907562,0.6143858432769775
1761475680604240600,5.14924072265625,-0.02239680290222168,-0.5608969926834106,0.4378301203250885
1761475680614217500,5.159217529296875,-0.15777912735939026,-0.6812812089920044,0.24054473638534546
1761475680624194600,5.169194580078125,-0.27423596382141113,-0.7179397344589233,0.07079391926527023
1761475680634171600,5.179171630859375,-0.3457109332084656,-0.5677854418754578,-0.03734240308403969
1761475680644148500,5.1891484375,-0.36218270659446716,-0.31051602959632874,-0.09060142934322357
1761475680654125600,5.19912548828125,-0.31094083189964294,0.022603865712881088,-0.09258175641298294
1761475680664102700,5.2091025390625,-0.20896616578102112,0.3401460349559784,-0.06969016790390015
1761475680674079700,5.219079833984375,-0.09486142545938492,0.606056272983551,-0.034259479492902756
1761475680684056600,5.229056640625,0.011896802112460136,0.7543819546699524,0.012116924859583378
1761475680694033700,5.23903369140625,0.10520543903112411,0.8399429321289062,0.07419227808713913
1761475680704010800,5.2490107421875,0.17573806643486023,0.9432273507118225,0.15011531114578247
1761475680713988600,5.258988525390625,0.24049469828605652,0.9977228045463562,0.2259855717420578
1761475680723965700,5.268965576171875,0.29741382598876953,1.0100075006484985,0.3033161759376526
1761475680733942500,5.278942626953125,0.3307667076587677,0.9489915370941162,0.3640146851539612
1761475680743919600,5.288919677734375,0.32595106959342957,0.7941898107528687,0.3935384452342987
1761475680753896700,5.298896728515625,0.29023754596710205,0.5925400853157043,0.4139486253261566
1761475680763873500,5.30887353515625,0.23645590245723724,0.38043493032455444,0.42435744404792786
1761475680773850600,5.3188505859375,0.16598519682884216,0.15243639051914215,0.42685097455978394
1761475680783827500,5.328827392578125,0.08405831456184387,-0.04289178550243378,0.4186474680900574
1761475680793804500,5.338804443359375,0.02779424376785755,-0.20220980048179626,0.3915069103240967
1761475680803781600,5.34878173828125,0.011878661811351776,-0.32217907905578613,0.35087454319000244
1761475680813758700,5.3587587890625,0.017838815227150917,-0.3866848349571228,0.28242623805999756
1761475680823735800,5.36873583984375,0.023676402866840363,-0.4312708079814911,0.1866776943206787
1761475680833712600,5.378712646484375,0.010155268013477325,-0.5028744339942932,0.056785475462675095
1761475680843689700,5.388689697265625,-0.019170036539435387,-0.5446699261665344,-0.09882114827632904
1761475680853667600,5.39866748046875,-0.04934738203883171,-0.5039227604866028,-0.2550267279148102
1761475680863644700,5.408644775390625,-0.06452793627977371,-0.3683915138244629,-0.38841691613197327
1761475680873621800,5.418621826171875,-0.0502920001745224,-0.15891766548156738,-0.5021644830703735
1761475680883598600,5.4285986328125,0.0010570319136604667,0.046939726918935776,-0.5960580110549927
1761475680893575700,5.43857568359375,0.07761518657207489,0.19041752815246582,-0.6643949747085571
1761475680903552500,5.448552490234375,0.16027610003948212,0.24797798693180084,-0.7073511481285095
1761475680913529600,5.458529541015625,0.22023476660251617,0.22289632260799408,-0.7289925217628479
1761475680923506400,5.46850634765625,0.26552051305770874,0.17006921768188477,-0.706259548664093
1761475680933483500,5.4784833984375,0.2870444357395172,0.12098103761672974,-0.639457643032074
1761475680943460600,5.488460693359375,0.2901909351348877,0.06775078922510147,-0.5362712740898132
1761475680953437400,5.4984375,0.2663436532020569,0.019938258454203606,-0.4231729507446289
1761475680963414800,5.508414794921875,0.22694407403469086,0.0037796879187226295,-0.28954723477363586
1761475680973391600,5.5183916015625,0.1903650313615799,0.04251962900161743,-0.14765216410160065
1761475680983369500,5.528369384765625,0.1533617079257965,0.08557543158531189,-0.026253242045640945
1761475680993346800,5.538346923828125,0.135806143283844,0.09336411207914352,0.054323893040418625
1761475681003323600,5.54832373046875,0.11941847950220108,0.031605303287506104,0.09464666247367859
1761475681013300700,5.55830078125,0.11502373218536377,-0.03739267215132713,0.09007534384727478
1761475681023277600,5.568277587890625,0.1105603277683258,-0.12617431581020355,0.07065939158201218
1761475681033254700,5.578254638671875,0.09877530485391617,-0.20064961910247803,0.02627088874578476
1761475681043231700,5.588231689453125,0.0621061772108078,-0.2483820915222168,-0.0347239226102829
1761475681053208600,5.59820849609375,0.012962865643203259,-0.23825515806674957,-0.10309552401304245
1761475681063185700,5.608185546875,-0.043962325900793076,-0.2083594650030136,-0.1776091307401657
1761475681073162500,5.61816259765625,-0.08874870836734772,-0.1474822610616684,-0.251129686832428
1761475681083139600,5.6281396484375,-0.11622214317321777,-0.07347968220710754,-0.3132806718349457
1761475681093116400,5.638116455078125,-0.1259986162185669,-0.018858514726161957,-0.3775787055492401
1761475681103093500,5.648093505859375,-0.13251549005508423,0.021617382764816284,-0.43234577775001526
1761475681113070600,5.658070556640625,-0.13307075202465057,0.06593184918165207,-0.4484512507915497
1761475681123048400,5.66804833984375,-0.14615295827388763,0.13169509172439575,-0.41652053594589233
1761475681133025500,5.678025634765625,-0.18545588850975037,0.21914291381835938,-0.3475763499736786
1761475681143002600,5.688002685546875,-0.23965449631214142,0.26332834362983704,-0.2623468041419983
1761475681152979700,5.697979736328125,-0.29608583450317383,0.24747639894485474,-0.16314564645290375
1761475681162956500,5.70795654296875,-0.3568776845932007,0.13493093848228455,-0.06944474577903748
1761475681172933600,5.71793359375,-0.4115036427974701,-0.061469197273254395,0.0404021292924881
1761475681182910700,5.72791064453125,-0.4801563322544098,-0.22238804399967194,0.16822455823421478
1761475681192887600,5.737887451171875,-0.5426743030548096,-0.2985736131668091,0.3181413412094116
1761475681202864600,5.74786474609375,-0.5845251083374023,-0.29706746339797974,0.4805508553981781
1761475681212841500,5.757841552734375,-0.5889619588851929,-0.22703802585601807,0.6279181838035583
1761475681222818600,5.767818603515625,-0.5650171637535095,-0.161481112241745,0.7464557886123657
1761475681232795400,5.77779541015625,-0.5472352504730225,-0.21899980306625366,0.7953442335128784
1761475681242772500,5.7877724609375,-0.5589045882225037,-0.37879878282546997,0.7606211304664612
1761475681252750600,5.79775048828125,-0.6038196086883545,-0.5592109560966492,0.6656067371368408
1761475681262727400,5.8077275390625,-0.6667824387550354,-0.666434645652771,0.5371778011322021
1761475681272704500,5.81770458984375,-0.741081714630127,-0.6587367653846741,0.39589765667915344
1761475681282681300,5.827681396484375,-0.8207405805587769,-0.6061946749687195,0.25199705362319946
1761475681292658700,5.83765869140625,-0.8815938234329224,-0.48872315883636475,0.1184307336807251
1761475681302635800,5.8476357421875,-0.9072573781013489,-0.3096776008605957,0.03132137283682823
1761475681312612600,5.857612548828125,-0.8770120739936829,-0.07512583583593369,-0.03986172750592232
1761475681322589700,5.867589599609375,-0.7760943174362183,0.0627278983592987,-0.0967751070857048
1761475681332566500,5.87756640625,-0.6531305909156799,0.11742709577083588,-0.15789198875427246
1761475681342543600,5.887543701171875,-0.5650241374969482,0.09783326834440231,-0.21598586440086365
1761475681352520400,5.8975205078125,-0.5106740593910217,0.04937971383333206,-0.24697041511535645
1761475681362497500,5.90749755859375,-0.48145368695259094,0.05437862500548363,-0.22957560420036316
1761475681372474600,5.917474609375,-0.44826430082321167,0.1204306110739708,-0.16519156098365784
1761475681382451500,5.927451416015625,-0.4104123115539551,0.17149876058101654,-0.06404673308134079
1761475681392429600,5.9374296875,-0.3667370080947876,0.22148442268371582,0.06461883336305618
1761475681402406400,5.947406494140625,-0.33032113313674927,0.2672549784183502,0.18126727640628815
1761475681412383500,5.957383544921875,-0.29114335775375366,0.21896283328533173,0.28789278864860535
1761475681422360600,5.967360595703125,-0.22570498287677765,0.1159481406211853,0.3928450644016266
1761475681432337400,5.97733740234375,-0.18677888810634613,0.026310134679079056,0.4625335931777954
1761475681442314800,5.987314697265625,-0.17325827479362488,-0.04656897485256195,0.5063351392745972
1761475681452291600,5.99729150390625,-0.17790041863918304,-0.1074051558971405,0.5219771862030029
1761475681462268700,6.0072685546875,-0.20061640441417694,-0.16489337384700775,0.4971165955066681
1761475681472245500,6.01724560546875,-0.2505953907966614,-0.23363249003887177,0.4268224835395813
1761475681482222600,6.02722265625,-0.32107362151145935,-0.2744203507900238,0.31796902418136597
1761475681492199700,6.03719970703125,-0.39539259672164917,-0.2727295160293579,0.1684250682592392
1761475681502176500,6.047176513671875,-0.4628523290157318,-0.3055146634578705,-0.021530134603381157
1761475681512153600,6.057153564453125,-0.5126621723175049,-0.3770841658115387,-0.2256758064031601
1761475681522131700,6.067131591796875,-0.5371214151382446,-0.35884538292884827,-0.4153306186199188
1761475681532108500,6.077108642578125,-0.5417529344558716,-0.3451460897922516,-0.5811342000961304
1761475681542085600,6.087085693359375,-0.5299548506736755,-0.2871750295162201,-0.7148289084434509
1761475681552062500,6.0970625,-0.48318254947662354,-0.15750224888324738,-0.8113147020339966
1761475681562039600,6.10703955078125,-0.3965766131877899,0.014539975672960281,-0.8549819588661194
1761475681572016400,6.117016357421875,-0.29677915573120117,0.2070215344429016,-0.856211245059967
1761475681581993500,6.126993408203125,-0.20522606372833252,0.37278446555137634,-0.813528299331665
1761475681591970600,6.136970458984375,-0.14273738861083984,0.4321548342704773,-0.749111533164978
1761475681601947600,6.14694775390625,-0.10602385550737381,0.42031922936439514,-0.6546630263328552
1761475681611924700,6.1569248046875,-0.09387717396020889,0.38164427876472473,-0.5351259708404541
1761475681621901600,6.166901611328125,-0.09488118439912796,0.2848421037197113,-0.4050297439098358
1761475681631878700,6.176878662109375,-0.10386189818382263,0.18790090084075928,-0.26615628600120544
1761475681641855500,6.18685546875,-0.1257282793521881,0.05220809951424599,-0.13533680140972137
1761475681651832600,6.19683251953125,-0.17220205068588257,-0.06551853567361832,-0.01069021038711071
1761475681661810700,6.206810791015625,-0.23135975003242493,-0.13086387515068054,0.10637200623750687
1761475681671787500,6.21678759765625,-0.2795078456401825,-0.17100462317466736,0.19935548305511475
1761475681681764600,6.2267646484375,-0.3122371733188629,-0.19095398485660553,0.2577618360519409
1761475681691741400,6.236741455078125,-0.3394773006439209,-0.1955929547548294,0.2716670036315918
1761475681701718500,6.246718505859375,-0.36490359902381897,-0.19749557971954346,0.2463233321905136
1761475681711695600,6.256695556640625,-0.37837547063827515,-0.19569553434848785,0.196156844496727
1761475681721672400,6.26667236328125,-0.3873744010925293,-0.15023426711559296,0.13049495220184326
1761475681731649500,6.2766494140625,-0.3879967927932739,-0.07303696125745773,0.0580710768699646
1761475681741626600,6.286626708984375,-0.37932446599006653,0.016371695324778557,-0.01237762812525034
1761475681751603700,6.296603759765625,-0.36116543412208557,0.11224709451198578,-0.07878061383962631
1761475681761580500,6.30658056640625,-0.3301364481449127,0.2134164273738861,-0.12714172899723053
1761475681771557600,6.3165576171875,-0.28570374846458435,0.2932090163230896,-0.15312139689922333
1761475681781534700,6.32653466796875,-0.22895026206970215,0.3368830680847168,-0.15006713569164276
1761475681791512600,6.3365126953125,-0.17212852835655212,0.3387371599674225,-0.11811745911836624
1761475681801489700,6.34648974609375,-0.1276577115058899,0.29651129245758057,-0.058405954390764236
1761475681811466500,6.356466552734375,-0.09424755722284317,0.22648216784000397,0.015498897060751915
1761475681821443600,6.366443603515625,-0.07060810178518295,0.13430312275886536,0.10103961825370789
1761475681831420700,6.376420654296875,-0.04929482191801071,0.027332469820976257,0.19824180006980896
1761475681841397500,6.3863974609375,-0.015581928193569183,-0.04015000909566879,0.30600911378860474
1761475681851374600,6.39637451171875,0.028091782703995705,-0.02388555184006691,0.4236859381198883
1761475681861351400,6.406351318359375,0.07564675062894821,0.034144673496484756,0.5386261940002441
1761475681871328500,6.41632861328125,0.10331486165523529,0.03835646063089371,0.6009026169776917
1761475681881305300,6.426305419921875,0.08519283682107925,-0.08892042934894562,0.5936473608016968
1761475681891282400,6.436282470703125,0.02625362016260624,-0.27441278100013733,0.5182734727859497
1761475681901259800,6.446259765625,-0.03542730212211609,-0.4105035960674286,0.41224533319473267
1761475681911236600,6.456236572265625,-0.06767632067203522,-0.45537707209587097,0.310829222202301
1761475681921214500,6.46621435546875,-0.06702813506126404,-0.41657721996307373,0.23410983383655548
1761475681931191800,6.47619189453125,-0.04681847244501114,-0.3838895857334137,0.17600712180137634
1761475681941168600,6.486168701171875,-0.012880762107670307,-0.2267238348722458,0.14761170744895935
1761475681951145700,6.496145751953125,0.052503835409879684,-0.05406443774700165,0.12703239917755127
1761475681961122600,6.50612255859375,0.12511885166168213,0.10745510458946228,0.09597445279359818
1761475681971099600,6.516099609375,0.1799410879611969,0.20002232491970062,0.0428563728928566
1761475681981076500,6.526076416015625,0.19843848049640656,0.22562554478645325,-0.004796328488737345
1761475681991053600,6.536053466796875,0.18635518848896027,0.23049992322921753,-0.02774558588862419
1761475682001030700,6.54603076171875,0.1586066335439682,0.22795239090919495,-0.01891941763460636
1761475682011007500,6.556007568359375,0.1246313601732254,0.21138618886470795,0.01748759299516678
1761475682020984600,6.565984619140625,0.09717422723770142,0.17077015340328217,0.07817187905311584
1761475682030961400,6.57596142578125,0.0765610933303833,0.1338592767715454,0.15992559492588043
1761475682040938500,6.5859384765625,0.05975255370140076,0.14078882336616516,0.2564190924167633
1761475682050916600,6.59591650390625,0.05737727880477905,0.1775905191898346,0.3689640164375305
1761475682060893400,6.6058935546875,0.06140362098813057,0.24550895392894745,0.4662158787250519
1761475682070870500,6.61587060546875,0.06164383888244629,0.285383403301239,0.5409729480743408
1761475682080847600,6.62584765625,0.045004233717918396,0.2799832224845886,0.5739619731903076
1761475682090824700,6.63582470703125,0.016485506668686867,0.19929341971874237,0.5670353174209595
1761475682100801500,6.645801513671875,-0.02505023404955864,0.07310715317726135,0.5323908925056458
1761475682110779400,6.655779296875,-0.07787882536649704,-0.06784437596797943,0.47464612126350403
1761475682120756500,6.665756591796875,-0.11999363452196121,-0.22381219267845154,0.39674457907676697
1761475682130733300,6.6757333984375,-0.14656665921211243,-0.3632310628890991,0.32988378405570984
1761475682140710400,6.68571044921875,-0.14089052379131317,-0.40156275033950806,0.27819833159446716
1761475682150687500,6.6956875,-0.10599618405103683,-0.4082057476043701,0.21457140147686005
1761475682160664300,6.705664306640625,-0.06389138847589493,-0.41903457045555115,0.11833186447620392
1761475682170641400,6.715641357421875,-0.0036139334551990032,-0.4396567642688751,-0.007504892535507679
1761475682180619500,6.72561962890625,0.05156859755516052,-0.4994322657585144,-0.15810739994049072
1761475682190596400,6.735596435546875,0.07939836382865906,-0.5313832759857178,-0.3041338324546814
1761475682200573400,6.745573486328125,0.0980013757944107,-0.5091549158096313,-0.4254928231239319
1761475682210550300,6.75555029296875,0.10035108029842377,-0.4648265540599823,-0.5180632472038269
1761475682220527400,6.76552734375,0.13101522624492645,-0.38635072112083435,-0.5614410042762756
1761475682230504200,6.775504150390625,0.16073450446128845,-0.29272809624671936,-0.5913728475570679
1761475682240481300,6.785481201171875,0.2005666047334671,-0.24684922397136688,-0.6028698682785034
1761475682250458400,6.795458251953125,0.2718711495399475,-0.16939811408519745,-0.5794292092323303
1761475682260435500,6.805435546875,0.3547286093235016,-0.047907955944538116,-0.5194664001464844
1761475682270412500,6.81541259765625,0.4518551826477051,0.12856242060661316,-0.4294978976249695
1761475682280389400,6.825389404296875,0.5559350848197937,0.29651740193367004,-0.32697102427482605
1761475682290366500,6.835366455078125,0.6337143182754517,0.3869530260562897,-0.23951521515846252
1761475682300343300,6.84534326171875,0.6879984736442566,0.3874876797199249,-0.18167699873447418
1761475682310320400,6.8553203125,0.7276340126991272,0.32015523314476013,-0.14565375447273254
1761475682320298500,6.865298583984375,0.7547924518585205,0.2266140878200531,-0.12038207799196243
1761475682330275300,6.875275390625,0.7582228779792786,0.14477461576461792,-0.09405592828989029
1761475682340252400,6.88525244140625,0.7316583395004272,0.0654991939663887,-0.08441454917192459
1761475682350229200,6.895229248046875,0.6770747303962708,0.028307881206274033,-0.06430848687887192
1761475682360206300,6.905206298828125,0.6142354011535645,0.025746341794729233,-0.045769188553094864
1761475682370183400,6.915183349609375,0.5418350100517273,0.010670720599591732,-0.032066427171230316
1761475682380160300,6.92516015625,0.4793124496936798,0.014294966123998165,-0.016590595245361328
1761475682390137300,6.935137451171875,0.42311787605285645,0.017443889752030373,-0.00862428080290556
1761475682400114200,6.9451142578125,0.37531593441963196,0.049390632659196854,0.004912958480417728
1761475682410091500,6.955091552734375,0.3319964110851288,0.053912147879600525,0.004421605262905359
1761475682420068400,6.965068359375,0.2783434987068176,0.026386940851807594,0.0011422899551689625
1761475682430045400,6.97504541015625,0.21961069107055664,0.04230358824133873,-0.0005280447076074779
1761475682440022500,6.9850224609375,0.15625880658626556,0.03347952663898468,-0.001417043269611895
1761475682450000400,6.99500048828125,0.09707750380039215,0.024254338815808296,0.007708810735493898
1761475682459977500,7.0049775390625,0.04280906915664673,0.003979583270847797,0.02819194085896015
1761475682469954300,7.014954345703125,-0.021123841404914856,-0.06323700398206711,0.047462306916713715
1761475682479931400,7.024931396484375,-0.08248070627450943,-0.15747886896133423,0.06308019906282425
1761475682489908500,7.034908447265625,-0.14287428557872772,-0.2200799286365509,0.09765388816595078
1761475682499885300,7.04488525390625,-0.1917780339717865,-0.22549797594547272,0.15250538289546967
1761475682509862400,7.0548623046875,-0.2332565039396286,-0.19071097671985626,0.20733721554279327
1761475682519839200,7.064839111328125,-0.26319101452827454,-0.14764104783535004,0.2660057842731476
1761475682529816300,7.07481640625,-0.28618714213371277,-0.13668853044509888,0.3135565221309662
1761475682539793200,7.084793212890625,-0.2962305545806885,-0.1673017293214798,0.35506707429885864
1761475682549770200,7.094770263671875,-0.2867845892906189,-0.18579259514808655,0.40772151947021484
1761475682559747600,7.10474755859375,-0.245407834649086,-0.18401823937892914,0.4740484356880188
1761475682569724400,7.114724365234375,-0.19725415110588074,-0.11321889609098434,0.5561550259590149
1761475682579702300,7.124702392578125,-0.15853066742420197,-0.07416560500860214,0.6066080927848816
1761475682589679400,7.134679443359375,-0.1556166261434555,-0.12755480408668518,0.5961141586303711
1761475682599656400,7.144656494140625,-0.17652465403079987,-0.1427614390850067,0.5303893089294434
1761475682609633500,7.154633544921875,-0.19956178963184357,-0.19076119363307953,0.4333046078681946
1761475682619610400,7.1646103515625,-0.263309121131897,-0.20779286324977875,0.3034326732158661
1761475682629587500,7.17458740234375,-0.3553386628627777,-0.2622734010219574,0.14072899520397186
1761475682639564300,7.184564208984375,-0.4396769404411316,-0.28321218490600586,-0.03337840363383293
1761475682649541400,7.194541259765625,-0.4788757264614105,-0.20779412984848022,-0.1830507218837738
1761475682659518200,7.204518310546875,-0.4487937390804291,-0.05686400830745697,-0.2855350077152252
1761475682669495300,7.214495361328125,-0.38110655546188354,0.07407456636428833,-0.3361550271511078
1761475682679472400,7.224472412109375,-0.2977305054664612,0.2329803705215454,-0.335369348526001
1761475682689449200,7.23444921875,-0.21516264975070953,0.3839153051376343,-0.28302809596061707
1761475682699426300,7.24442626953125,-0.13165166974067688,0.49901503324508667,-0.18980726599693298
1761475682709404400,7.254404296875,-0.04698658362030983,0.5778752565383911,-0.06094462051987648
1761475682719381200,7.26438134765625,0.037192992866039276,0.6297012567520142,0.09139461070299149
1761475682729358300,7.2743583984375,0.12095393985509872,0.6204878091812134,0.2484164535999298
1761475682739335400,7.28433544921875,0.18927377462387085,0.533283531665802,0.39088159799575806
1761475682749312500,7.2943125,0.21967802941799164,0.417560338973999,0.5052225589752197
1761475682759289300,7.304289306640625,0.21577173471450806,0.2821767330169678,0.6059232950210571
1761475682769266400,7.314266357421875,0.19318519532680511,0.1848858743906021,0.6976931691169739
1761475682779243500,7.324243408203125,0.1561608761548996,0.1389015018939972,0.7601735591888428
1761475682789220400,7.334220458984375,0.09354516863822937,0.10782613605260849,0.7944726943969727
1761475682799197400,7.344197509765625,0.022105231881141663,0.06569413840770721,0.7861610054969788
1761475682809174300,7.35417431640625,-0.07232619822025299,0.008713940158486366,0.7371601462364197
1761475682819151400,7.3641513671875,-0.19500085711479187,-0.03844862058758736,0.6108982563018799
1761475682829128200,7.374128173828125,-0.3273783326148987,-0.10067763924598694,0.44617965817451477
1761475682839106300,7.384106201171875,-0.43319565057754517,-0.17156699299812317,0.2385123372077942
1761475682849083400,7.39408349609375,-0.48846742510795593,-0.2448233664035797,0.02574174292385578
1761475682859060200,7.404060302734375,-0.5024133920669556,-0.2817227244377136,-0.19911110401153564
1761475682869037300,7.414037353515625,-0.5052419304847717,-0.2699718177318573,-0.42252740263938904
1761475682879014100,7.42401416015625,-0.4968875050544739,-0.2412615418434143,-0.6288225650787354
1761475682888991200,7.4339912109375,-0.48718321323394775,-0.18875253200531006,-0.8046903014183044
1761475682898968600,7.443968505859375,-0.4531276226043701,-0.08832424879074097,-0.9335790872573853
1761475682908945400,7.4539453125,-0.3998875617980957,0.028106488287448883,-1.011502981185913
1761475682918922500,7.463922607421875,-0.350218802690506,0.1102200597524643,-1.0404658317565918
1761475682928899300,7.4738994140625,-0.2964855432510376,0.14850513637065887,-1.0188260078430176
1761475682938876400,7.48387646484375,-0.2533615827560425,0.15996013581752777,-0.9397658705711365
1761475682948853200,7.493853271484375,-0.2354300171136856,0.1675645262002945,-0.820927619934082
1761475682958830300,7.503830322265625,-0.2165927141904831,0.16231536865234375,-0.6648232340812683
1761475682968808400,7.513808349609375,-0.20221829414367676,0.12335546314716339,-0.5122116208076477
1761475682978785300,7.523785400390625,-0.18063561618328094,0.032906465232372284,-0.36213427782058716
1761475682988762400,7.533762451171875,-0.17569544911384583,-0.042542219161987305,-0.22508643567562103
1761475682998739200,7.5437392578125,-0.19845418632030487,-0.12371611595153809,-0.09415256232023239
1761475683008716300,7.55371630859375,-0.2373533844947815,-0.19048263132572174,0.008787134662270546
1761475683018693400,7.563693359375,-0.28706151247024536,-0.23930230736732483,0.07519939541816711
1761475683028670200,7.573670166015625,-0.31804630160331726,-0.22568397223949432,0.11200481653213501
1761475683038647300,7.583647216796875,-0.32411840558052063,-0.18649719655513763,0.10908539593219757
1761475683048624400,7.593624267578125,-0.31660324335098267,-0.19579429924488068,0.07151378691196442
1761475683058601500,7.6036015625,-0.3048645257949829,-0.16201040148735046,-0.0013142097741365433
1761475683068578300,7.613578369140625,-0.2863134741783142,-0.12719568610191345,-0.0847766175866127
1761475683078555400,7.623555419921875,-0.24702571332454681,-0.04304204136133194,-0.15546199679374695
1761475683088532500,7.633532470703125,-0.19752341508865356,0.06297999620437622,-0.20697206258773804
1761475683098510300,7.64351025390625,-0.13328905403614044,0.1789773851633072,-0.22951699793338776
1761475683108487400,7.6534873046875,-0.0695343166589737,0.26717516779899597,-0.2287721037864685
1761475683118464300,7.66346435546875,-0.0038956799544394016,0.3034782409667969,-0.20012709498405457
1761475683128441300,7.67344140625,0.05432528257369995,0.2688504755496979,-0.15053585171699524
1761475683138418400,7.68341845703125,0.09655971080064774,0.20573757588863373,-0.07612204551696777
1761475683148395300,7.693395263671875,0.12256867438554764,0.14057348668575287,0.026200328022241592
1761475683158372400,7.703372314453125,0.1380712240934372,0.0809832364320755,0.15024517476558685
1761475683168349200,7.71334912109375,0.15107303857803345,0.047244440764188766,0.2973933517932892
1761475683178326300,7.723326171875,0.17450137436389923,0.06350506842136383,0.4548129439353943
1761475683188303400,7.733303466796875,0.20169225335121155,0.07237472385168076,0.5797921419143677
1761475683198280400,7.743280517578125,0.2121090143918991,-0.00970059260725975,0.6382364630699158
1761475683208257500,7.753257568359375,0.19681528210639954,-0.15509586036205292,0.6136565208435059
1761475683218234400,7.763234375,0.14934971928596497,-0.33579331636428833,0.5331349968910217
1761475683228212500,7.77321240234375,0.07777965813875198,-0.46609246730804443,0.4134560227394104
1761475683238189300,7.783189208984375,0.005726555362343788,-0.5554670691490173,0.26183003187179565
1761475683248166400,7.79316650390625,-0.05250399187207222,-0.5253317952156067,0.11911789327859879
1761475683258143500,7.8031435546875,-0.07977080345153809,-0.4039878845214844,-0.003205039771273732
1761475683268120300,7.813120361328125,-0.06286292523145676,-0.14276425540447235,-0.08715081214904785
1761475683278097400,7.823097412109375,-0.01939820684492588,0.1017717644572258,-0.15642942488193512
1761475683288074200,7.83307421875,0.041233714669942856,0.3328899145126343,-0.21292731165885925
1761475683298051300,7.84305126953125,0.13768380880355835,0.4677402675151825,-0.2598244845867157
1761475683308028200,7.853028076171875,0.24059048295021057,0.5145559310913086,-0.28122591972351074
1761475683318005200,7.863005126953125,0.31772294640541077,0.5355818271636963,-0.2584212124347687
1761475683327982300,7.872982421875,0.37929442524909973,0.5413470268249512,-0.17923212051391602
1761475683337959200,7.882959228515625,0.4259989559650421,0.5943735241889954,-0.04636840149760246
1761475683347937300,7.892937255859375,0.4754599928855896,0.6984847784042358,0.12357775866985321
1761475683357914000,7.9029140625,0.5216260552406311,0.7815282344818115,0.3019734025001526
1761475683367891200,7.91289111328125,0.5540894269943237,0.8396101593971252,0.4637966454029083
1761475683377868300,7.922868408203125,0.5726216435432434,0.8223217725753784,0.5798331499099731
1761475683387845400,7.932845458984375,0.5618318319320679,0.7180424928665161,0.6360580921173096
1761475683397822500,7.942822509765625,0.5346360206604004,0.5397638082504272,0.6382209658622742
1761475683407799300,7.95279931640625,0.5039929151535034,0.3535095751285553,0.6080359220504761
1761475683417776400,7.9627763671875,0.4505188465118408,0.16450268030166626,0.5371019244194031
1761475683427753200,7.972753173828125,0.38059037923812866,-0.08086606115102768,0.43164634704589844
1761475683437730300,7.982730224609375,0.32663694024086,-0.3102593719959259,0.3149714171886444
1761475683447707400,7.992707275390625,0.31002575159072876,-0.4285239577293396,0.20248402655124664
1761475683457684200,8.002684326171876,0.3167230188846588,-0.5177830457687378,0.07752860337495804
1761475683467661300,8.012661376953124,0.32610106468200684,-0.6133447289466858,-0.0873788520693779
1761475683477639400,8.022639404296875,0.3296233117580414,-0.676128625869751,-0.2573879361152649
1761475683487616300,8.0326162109375,0.30897581577301025,-0.6536259651184082,-0.4282163977622986
1761475683497593300,8.04259326171875,0.28817570209503174,-0.5581541657447815,-0.5866086483001709
1761475683507570200,8.052570068359374,0.28265735507011414,-0.40312251448631287,-0.7181422114372253
1761475683517547300,8.06254736328125,0.29653576016426086,-0.21304652094841003,-0.8094133734703064
1761475683527524400,8.0725244140625,0.32407790422439575,-0.052691470831632614,-0.8732429146766663
1761475683537501400,8.08250146484375,0.3952242434024811,0.07154147326946259,-0.8990573883056641
1761475683547478300,8.092478271484374,0.478803813457489,0.16903448104858398,-0.8805830478668213
1761475683557455400,8.102455322265625,0.5647916793823242,0.19664117693901062,-0.8461621999740601
1761475683567432400,8.112432373046875,0.6502780914306641,0.2044074833393097,-0.769140362739563
1761475683577409300,8.1224091796875,0.7030864357948303,0.2559804320335388,-0.6569331884384155
1761475683587386400,8.132386474609374,0.7135295271873474,0.2976815402507782,-0.5284537672996521
1761475683597363200,8.14236328125,0.6924760937690735,0.31201979517936707,-0.40419676899909973
1761475683607341300,8.15234130859375,0.6449426412582397,0.2897765338420868,-0.2898952066898346
1761475683617318400,8.162318359375,0.5919733643531799,0.21777735650539398,-0.19744278490543365
1761475683627295200,8.172295166015624,0.5391221642494202,0.14545176923274994,-0.10713685303926468
1761475683637272300,8.182272216796875,0.5021433234214783,0.08470197021961212,-0.04106193780899048
1761475683647249200,8.192249267578125,0.47433727979660034,-0.0066436599008738995,0.006949794944375753
1761475683657226200,8.202226318359376,0.4558385908603668,-0.09212718904018402,0.04233352839946747
1761475683667203300,8.212203369140624,0.4438556730747223,-0.16936472058296204,0.06995104253292084
1761475683677180400,8.222180419921875,0.42723605036735535,-0.2334587574005127,0.08425501734018326
1761475683687157500,8.232157470703125,0.41209226846694946,-0.2718042731285095,0.08951503038406372
1761475683697134300,8.24213427734375,0.38359034061431885,-0.2811206579208374,0.08587339520454407
1761475683707111400,8.252111328125,0.3358134925365448,-0.2590707540512085,0.06457849591970444
1761475683717088300,8.262088134765625,0.2792808711528778,-0.20937082171440125,0.03640158101916313
1761475683727065300,8.2720654296875,0.22150972485542297,-0.17445705831050873,-0.004735737573355436
1761475683737043500,8.28204345703125,0.16679039597511292,-0.20050138235092163,-0.055186573415994644
1761475683747020300,8.292020263671875,0.11710167676210403,-0.20925013720989227,-0.08433220535516739
1761475683756997400,8.301997314453125,0.08707191795110703,-0.21881626546382904,-0.07202234864234924
1761475683766974200,8.31197412109375,0.06548406928777695,-0.21296583116054535,-0.014799277298152447
1761475683776951300,8.321951416015626,0.0409003347158432,-0.1954336017370224,0.06612927466630936
1761475683786928400,8.331928466796874,0.018242958933115005,-0.18701721727848053,0.15498031675815582
1761475683796905200,8.3419052734375,-0.010683764703571796,-0.20546573400497437,0.23881316184997559
1761475683806882300,8.35188232421875,-0.049080152064561844,-0.23880131542682648,0.31577134132385254
1761475683816859100,8.361859130859376,-0.09427659958600998,-0.28776422142982483,0.3796897530555725
1761475683826836200,8.371836181640624,-0.1376962512731552,-0.33537304401397705,0.4370150864124298
1761475683836813300,8.381813232421875,-0.1561286747455597,-0.3151111602783203,0.4976555407047272
1761475683846790400,8.391790283203125,-0.1419055312871933,-0.2574678361415863,0.5678718686103821
1761475683856767500,8.401767578125,-0.1153569296002388,-0.2682371437549591,0.6058524250984192
1761475683866745300,8.411745361328125,-0.12394002825021744,-0.38396692276000977,0.5666096806526184
1761475683876722400,8.421722412109375,-0.1608136147260666,-0.5393497347831726,0.4718232750892639
1761475683886699300,8.43169921875,-0.2199120819568634,-0.628771185874939,0.344351589679718
1761475683896676400,8.44167626953125,-0.2894161343574524,-0.6114863157272339,0.2054808884859085
1761475683906653400,8.4516533203125,-0.3574521541595459,-0.5568169951438904,0.06404119729995728
1761475683916630300,8.46163037109375,-0.3987714648246765,-0.41835758090019226,-0.06121379882097244
1761475683926607400,8.471607421875,-0.37177687883377075,-0.24267473816871643,-0.14049558341503143
1761475683936584200,8.481584228515626,-0.26705244183540344,-0.048805706202983856,-0.17908871173858643
1761475683946561300,8.491561279296874,-0.13458415865898132,0.13641634583473206,-0.1836584210395813
1761475683956538000,8.5015380859375,-0.015676094219088554,0.30219271779060364,-0.15338075160980225
1761475683966515200,8.51151513671875,0.05913742631673813,0.4176998734474182,-0.09944189339876175
1761475683976492300,8.5214921875,0.12008783221244812,0.4940856993198395,-0.022323621436953545
1761475683986469400,8.531469482421874,0.1825735718011856,0.5234262347221375,0.0817047730088234
1761475683996447200,8.541447265625,0.23821981251239777,0.5028199553489685,0.19116173684597015
1761475684006424300,8.55142431640625,0.27740931510925293,0.44232839345932007,0.29937583208084106
1761475684016401400,8.5614013671875,0.29243287444114685,0.3171783983707428,0.38916048407554626
1761475684026378500,8.57137841796875,0.27923956513404846,0.18815571069717407,0.4615451991558075
1761475684036355300,8.581355224609375,0.25185123085975647,0.08834601938724518,0.514064610004425
1761475684046332400,8.59133251953125,0.22559966146945953,0.022325994446873665,0.5551769137382507
1761475684056309200,8.601309326171876,0.2099466323852539,0.02297292836010456,0.5775358080863953
1761475684066286300,8.611286376953124,0.1581185758113861,0.06693293154239655,0.5553268790245056
1761475684076263400,8.621263427734375,0.0844464898109436,0.036422159522771835,0.47427254915237427
1761475684086240300,8.631240234375,0.011725153774023056,0.008997723460197449,0.3439904451370239
1761475684096217300,8.64121728515625,-0.08006801456212997,-0.034285783767700195,0.1551607996225357
1761475684106194200,8.651194091796874,-0.14806170761585236,-0.08346957713365555,-0.07261458039283752
1761475684116172000,8.661172119140625,-0.17617502808570862,-0.09063773602247238,-0.30445700883865356
1761475684126148900,8.67114892578125,-0.16760070621967316,-0.04428648203611374,-0.5292943120002747
1761475684136126000,8.6811259765625,-0.1448800414800644,-0.009761424735188484,-0.7248711585998535
1761475684146102800,8.691102783203124,-0.09919404983520508,0.035428158938884735,-0.8858784437179565
1761475684156080000,8.701080078125,-0.027323506772518158,0.10675346851348877,-0.9851012825965881
1761475684166057000,8.711056884765625,0.06257841736078262,0.21929225325584412,-1.0103496313095093
1761475684176034000,8.721033935546876,0.13870537281036377,0.38348978757858276,-0.9824987649917603
1761475684186011100,8.73101123046875,0.20290832221508026,0.5073030591011047,-0.9074719548225403
1761475684195988000,8.740988037109375,0.2526724934577942,0.5838016867637634,-0.7960810661315918
1761475684205965000,8.750965087890625,0.29897981882095337,0.5775909423828125,-0.6546890735626221
1761475684215942000,8.76094189453125,0.34747591614723206,0.4873942732810974,-0.4962908625602722
1761475684225919000,8.7709189453125,0.40052634477615356,0.35573452711105347,-0.3294776380062103
1761475684235895800,8.780895751953125,0.4428841471672058,0.2708562910556793,-0.1541863977909088
1761475684245874000,8.7908740234375,0.4580995738506317,0.1594141721725464,0.004136392846703529
1761475684255851000,8.80085107421875,0.44794049859046936,0.058140285313129425,0.13014958798885345
1761475684265827800,8.810827880859375,0.4230623245239258,-0.02612399123609066,0.23595431447029114
1761475684275805000,8.820804931640625,0.38836899399757385,-0.10793677717447281,0.30249160528182983
1761475684285782000,8.830781982421875,0.36398082971572876,-0.1890430748462677,0.3348889648914337
1761475684295758800,8.8407587890625,0.3334774076938629,-0.22189944982528687,0.3336125314235687
1761475684305736200,8.850736083984375,0.30237701535224915,-0.24033012986183167,0.31010401248931885
1761475684315713000,8.860713134765625,0.26044920086860657,-0.2583954334259033,0.2511548101902008
1761475684325690000,8.870690185546875,0.22002506256103516,-0.2619131803512573,0.17715436220169067
1761475684335667000,8.8806669921875,0.17200244963169098,-0.2603750228881836,0.08193961530923843
1761475684345644000,8.89064404296875,0.1408115178346634,-0.22250483930110931,-0.00668638851493597
1761475684355621000,8.90062109375,0.12008534371852875,-0.11583614349365234,-0.08427844941616058
1761475684365599000,8.910598876953125,0.1267128884792328,0.02030625008046627,-0.1438986361026764
1761475684375576000,8.920576171875,0.17556257545948029,0.16451877355575562,-0.1788400411605835
1761475684385553000,8.930552978515625,0.2410251945257187,0.269323468208313,-0.1973484754562378
1761475684395530000,8.940530029296875,0.3189642131328583,0.3004547655582428,-0.2002214938402176
1761475684405507000,8.950507080078125,0.3923718333244324,0.24887679517269135,-0.18080385029315948
1761475684415484000,8.96048388671875,0.45359858870506287,0.15041860938072205,-0.13714833557605743
1761475684425461000,8.9704609375,0.5025032758712769,0.048284515738487244,-0.05708041042089462
1761475684435437800,8.980437744140625,0.529609739780426,0.00851915217936039,0.05141328647732735
1761475684445415000,8.990414794921875,0.5470667481422424,0.009794007986783981,0.17701968550682068
1761475684455392000,9.00039208984375,0.5738397240638733,0.0460621602833271,0.31892818212509155
1761475684465369000,9.010369140625,0.5919167399406433,0.08864157646894455,0.4571917653083801
1761475684475346200,9.02034619140625,0.584848165512085,0.021368054673075676,0.5405798554420471
1761475684485323000,9.030322998046875,0.5390686392784119,-0.13405534625053406,0.5450869798660278
1761475684495301000,9.040301025390624,0.46727827191352844,-0.31631091237068176,0.5132465958595276
1761475684505278000,9.05027783203125,0.3721376359462738,-0.45936501026153564,0.4337672293186188
1761475684515255000,9.060255126953125,0.2654974162578583,-0.5883424282073975,0.32169270515441895
1761475684525232000,9.070232177734376,0.1526574343442917,-0.716374933719635,0.19847489893436432
1761475684535209000,9.080208984375,0.05523446947336197,-0.6927276849746704,0.08888502418994904
1761475684545186000,9.09018603515625,0.01353389397263527,-0.5307976007461548,0.028484798967838287
1761475684555163000,9.100162841796875,0.03020572103559971,-0.3282078206539154,-0.006721402518451214
1761475684565140000,9.110139892578125,0.04833199456334114,-0.04002930968999863,-0.01672396808862686
1761475684575116800,9.12011669921875,0.07954990118741989,0.2445148527622223,-0.02294531837105751
1761475684585094000,9.130093994140625,0.16845127940177917,0.4579150080680847,0.0026420680806040764
1761475684595071000,9.140071044921875,0.2749207019805908,0.6193146705627441,0.05944305658340454
1761475684605048000,9.150048095703125,0.3571745455265045,0.7174095511436462,0.13156092166900635
1761475684615025200,9.160025146484376,0.4048841595649719,0.8149687051773071,0.22762784361839294
1761475684625003000,9.1700029296875,0.45433932542800903,0.9210885167121887,0.3418321907520294
1761475684634979800,9.179979736328125,0.49018022418022156,0.9201222062110901,0.4344238042831421
1761475684644957200,9.189957275390626,0.4837968945503235,0.8181758522987366,0.48868227005004883
1761475684654934000,9.19993408203125,0.4364703595638275,0.6683056354522705,0.4974409341812134
1761475684664911000,9.2099111328125,0.38853371143341064,0.44539719820022583,0.4825386703014374
1761475684674888000,9.219887939453125,0.3268890976905823,0.1748911440372467,0.4431329369544983
1761475684684865000,9.229864990234375,0.22527699172496796,-0.11238591372966766,0.3744383156299591
1761475684694842000,9.239842041015624,0.13099460303783417,-0.35583755373954773,0.304671972990036
1761475684704819000,9.24981884765625,0.08778082579374313,-0.5465478301048279,0.23754699528217316
1761475684714796000,9.259796142578125,0.08648038655519485,-0.6623004078865051,0.18021316826343536
1761475684724772900,9.26977294921875,0.08155699819326401,-0.7725366353988647,0.10792112350463867
1761475684734750000,9.27975,0.05252085253596306,-0.856499195098877,0.004280698951333761
1761475684744728000,9.28972802734375,0.02381463535130024,-0.8525278568267822,-0.09599743783473969
1761475684754705000,9.299704833984375,0.010756327770650387,-0.7321714162826538,-0.18136714398860931
1761475684764682000,9.309681884765626,0.01032729260623455,-0.48690304160118103,-0.26106515526771545
1761475684774658800,9.319658935546874,0.03506140038371086,-0.18568168580532074,-0.35631898045539856
1761475684784636000,9.329635986328125,0.0976020097732544,0.09709088504314423,-0.4667448401451111
1761475684794613000,9.339613037109375,0.19505569338798523,0.30037379264831543,-0.6014493703842163
1761475684804590000,9.349590087890626,0.3252728283405304,0.3698418140411377,-0.7223947048187256
1761475684814567200,9.359567138671874,0.43724825978279114,0.391018271446228,-0.8259211182594299
1761475684824544000,9.3695439453125,0.5041743516921997,0.39918777346611023,-0.8818288445472717
1761475684834521000,9.37952099609375,0.533949077129364,0.40080544352531433,-0.8958814144134521
1761475684844498000,9.389497802734375,0.5379353165626526,0.40913262963294983,-0.8587854504585266
1761475684854475000,9.39947509765625,0.5276191830635071,0.4354141354560852,-0.7779139280319214
1761475684864451800,9.409451904296875,0.5042105317115784,0.4316774606704712,-0.6645639538764954
1761475684874430000,9.419429931640625,0.47697317600250244,0.4532301723957062,-0.528738796710968
1761475684884407000,9.429406982421876,0.46759912371635437,0.43982595205307007,-0.38754013180732727
1761475684894383900,9.4393837890625,0.4661148190498352,0.36899828910827637,-0.2462083399295807
1761475684904361000,9.44936083984375,0.4555969536304474,0.21886073052883148,-0.12426246702671051
1761475684914337800,9.459337890625,0.4301200211048126,0.030558675527572632,-0.016683870926499367
1761475684924315000,9.46931494140625,0.3823927044868469,-0.1731795370578766,0.08292767405509949
1761475684934292000,9.4792919921875,0.31537535786628723,-0.35277268290519714,0.16414470970630646
1761475684944269000,9.48926904296875,0.2384190410375595,-0.48390114307403564,0.22529621422290802
1761475684954246100,9.49924609375,0.15763653814792633,-0.5677752494812012,0.2544434368610382
1761475684964223000,9.509222900390625,0.07647670060396194,-0.6187329888343811,0.25473958253860474
1761475684974200000,9.519199951171874,-0.008463690057396889,-0.6198614835739136,0.2330571711063385
1761475684984177000,9.529177001953125,-0.0789375901222229,-0.5675585865974426,0.20595604181289673
1761475684994155000,9.539155029296875,-0.14041505753993988,-0.47097542881965637,0.16493722796440125
1761475685004132000,9.549132080078126,-0.18539398908615112,-0.3307006061077118,0.1294889599084854
1761475685014109000,9.55910888671875,-0.19456040859222412,-0.1551225632429123,0.10621494054794312
1761475685024086000,9.5690859375,-0.17872391641139984,0.0034993079025298357,0.0868966355919838
1761475685034063000,9.57906298828125,-0.16565176844596863,0.09298902750015259,0.06500353664159775
1761475685044040000,9.5890400390625,-0.1647004783153534,0.09344442933797836,0.05038038641214371
1761475685054017000,9.59901708984375,-0.17490758001804352,0.044017493724823,0.05693282559514046
1761475685063993900,9.608993896484375,-0.1954546719789505,-0.012003164738416672,0.10320685058832169
1761475685073971000,9.618970947265625,-0.24005268514156342,-0.07840003073215485,0.1773184984922409
1761475685083947800,9.62894775390625,-0.30202391743659973,-0.1187668889760971,0.2760660946369171
1761475685093925000,9.638925048828124,-0.35564935207366943,-0.11126567423343658,0.38702428340911865
1761475685103902200,9.648902099609375,-0.38241705298423767,-0.07692661136388779,0.5007263422012329
1761475685113879300,9.65887939453125,-0.39616742730140686,-0.10837695002555847,0.5641801953315735
1761475685123857000,9.66885693359375,-0.4210685193538666,-0.20936481654644012,0.566239058971405
1761475685133834200,9.678834228515624,-0.4697711169719696,-0.35122764110565186,0.5142305493354797
1761475685143811300,9.688811279296875,-0.5244148969650269,-0.4733849763870239,0.4202513098716736
1761475685153788200,9.6987880859375,-0.5883715152740479,-0.5778021812438965,0.2884863615036011
1761475685163765200,9.70876513671875,-0.6616132259368896,-0.6009107232093811,0.12172802537679672
1761475685173742000,9.7187421875,-0.7131247520446777,-0.5574580430984497,-0.05439599230885506
1761475685183719200,9.72871923828125,-0.7293034791946411,-0.41950181126594543,-0.19889138638973236
1761475685193696000,9.738696044921875,-0.6831313967704773,-0.1816302239894867,-0.2963171601295471
1761475685203673000,9.748673095703126,-0.589765727519989,0.09846507012844086,-0.3379756510257721
1761475685213650200,9.758650146484374,-0.4765797257423401,0.3396832346916199,-0.34942227602005005
1761475685223627000,9.768626953125,-0.36121851205825806,0.47625651955604553,-0.3453063666820526
1761475685233604000,9.77860400390625,-0.2671201229095459,0.5070868134498596,-0.30819976329803467
1761475685243582000,9.78858203125,-0.2081526815891266,0.5077853202819824,-0.23501265048980713
1761475685253559000,9.79855908203125,-0.1791841685771942,0.544599711894989,-0.12403520941734314
1761475685263536000,9.8085361328125,-0.15957798063755035,0.5584332346916199,0.02141653001308441
1761475685273513000,9.818512939453125,-0.15624238550662994,0.5253663063049316,0.1613042652606964
1761475685283490300,9.828490234375,-0.17200137674808502,0.39914441108703613,0.2789240777492523
1761475685293467100,9.838467041015624,-0.19956202805042267,0.23520508408546448,0.3734276294708252
1761475685303444200,9.8484443359375,-0.245788112282753,0.04397200793027878,0.44547438621520996
1761475685313421000,9.858421142578125,-0.2814072072505951,-0.09779610484838486,0.5039796829223633
1761475685323398100,9.868398193359376,-0.30373114347457886,-0.2022990733385086,0.5362151265144348
1761475685333375200,9.878375244140624,-0.30946940183639526,-0.2921079397201538,0.5312775373458862
1761475685343352000,9.88835205078125,-0.3155432641506195,-0.3626103401184082,0.48649862408638
1761475685353329200,9.8983291015625,-0.34456440806388855,-0.38890010118484497,0.3982565701007843
1761475685363306000,9.908305908203126,-0.40089958906173706,-0.3692353367805481,0.2656380832195282
1761475685373284000,9.9182841796875,-0.4753744900226593,-0.3251921236515045,0.0848422423005104
1761475685383261200,9.92826123046875,-0.535446047782898,-0.2132142037153244,-0.1197630912065506
1761475685393238000,9.938238037109375,-0.5547055602073669,-0.09015373140573502,-0.3408309519290924
1761475685403215000,9.948215087890626,-0.5222224593162537,-0.008747026324272156,-0.5671911239624023
1761475685413192000,9.95819189453125,-0.4428013563156128,0.05871009826660156,-0.7567027807235718
1761475685423169000,9.9681689453125,-0.3311038613319397,0.18562303483486176,-0.8806489706039429
1761475685433146000,9.97814599609375,-0.20141318440437317,0.3143157660961151,-0.9363821148872375
1761475685443123200,9.988123291015626,-0.07418464124202728,0.41241249442100525,-0.9219768047332764
1761475685453100300,9.998100341796874,0.03308030962944031,0.4809669852256775,-0.856019914150238
1761475685463077000,10.0080771484375,0.12507547438144684,0.513368546962738,-0.7488889098167419
1761475685473054200,10.01805419921875,0.194253072142601,0.576694667339325,-0.604277491569519
1761475685483031000,10.028031005859376,0.2396104335784912,0.6233602166175842,-0.4561934769153595
1761475685493009200,10.038009033203124,0.2656087577342987,0.5814119577407837,-0.32351452112197876
1761475685502986200,10.047986328125,0.2599806785583496,0.46744412183761597,-0.20921404659748077
1761475685512963000,10.057963134765625,0.22320592403411865,0.25780487060546875,-0.10879810899496078
1761475685522940200,10.067940185546876,0.16261368989944458,0.040133535861968994,-0.001301740761846304
1761475685532917000,10.0779169921875,0.09818217158317566,-0.1091393530368805,0.11577928066253662
1761475685542894000,10.08789404296875,0.038764383643865585,-0.19299031794071198,0.22507193684577942
1761475685552871200,10.09787109375,0.00046975770965218544,-0.231261745095253,0.3077643811702728
1761475685562848000,10.107847900390626,-0.017895136028528214,-0.24640049040317535,0.347055047750473
1761475685572825000,10.1178251953125,-0.03399713709950447,-0.24986205995082855,0.3300497233867645
1761475685582802200,10.12780224609375,-0.05967427045106888,-0.25295931100845337,0.2565169036388397
1761475685592779300,10.137779296875,-0.09386838972568512,-0.2550291419029236,0.1396109163761139
1761475685602756000,10.147756103515626,-0.11867839843034744,-0.23554997146129608,0.008546917699277401
1761475685612733200,10.157733154296874,-0.13069571554660797,-0.14334094524383545,-0.12987661361694336
1761475685622711300,10.167711181640625,-0.11362218856811523,-0.05959305539727211,-0.26823875308036804
1761475685632688000,10.177688232421875,-0.058937642723321915,0.036542534828186035,-0.3714873790740967
1761475685642665200,10.187665283203126,0.03323542699217796,0.21647688746452332,-0.43092620372772217
1761475685652642000,10.19764208984375,0.15774935483932495,0.40524473786354065,-0.443926602602005
1761475685662619100,10.207619140625,0.296871542930603,0.5321877598762512,-0.4212487041950226
1761475685672596200,10.21759619140625,0.4176664650440216,0.5498790144920349,-0.3683009147644043
1761475685682573000,10.227572998046876,0.5129173994064331,0.477779746055603,-0.2938687801361084
1761475685692550100,10.237550048828124,0.592018723487854,0.36768200993537903,-0.17825761437416077
1761475685702527000,10.24752685546875,0.649925708770752,0.2370923012495041,-0.037152163684368134
1761475685712504000,10.257504150390625,0.6873683333396912,0.11631006747484207,0.12463437765836716
1761475685722481000,10.26748095703125,0.6958337426185608,0.013807127252221107,0.2937927842140198
1761475685732458200,10.277458251953124,0.7045632004737854,-0.018465060740709305,0.46685442328453064
1761475685742436000,10.28743603515625,0.7369842529296875,-0.002148405183106661,0.6363667249679565
1761475685752413000,10.297412841796875,0.7619337439537048,-0.05995285138487816,0.7580353617668152
1761475685762390000,10.30739013671875,0.7463265657424927,-0.19410693645477295,0.808411180973053
1761475685772367000,10.3173671875,0.6720384359359741,-0.38917216658592224,0.7644680738449097
1761475685782344200,10.32734423828125,0.5413206219673157,-0.6264191269874573,0.6498410701751709
1761475685792321300,10.3373212890625,0.3807789981365204,-0.8511338829994202,0.4862610101699829
1761475685802298000,10.347298095703126,0.22414810955524445,-0.9784260392189026,0.3252609372138977
1761475685812275200,10.357275146484374,0.09104916453361511,-0.9457607269287109,0.20352163910865784
1761475685822252000,10.367251953125,0.002423687372356653,-0.7356240153312683,0.14302420616149902
1761475685832229000,10.37722900390625,-0.013807873241603374,-0.42906057834625244,0.12145334482192993
1761475685842206000,10.3872060546875,0.01187831535935402,-0.05845615267753601,0.1291016787290573
1761475685852183000,10.39718310546875,0.05885517597198486,0.30549439787864685,0.13691455125808716
1761475685862160100,10.40716015625,0.13112616539001465,0.535498857498169,0.14606304466724396
1761475685872138000,10.417137939453125,0.20159830152988434,0.6705323457717896,0.16617093980312347
1761475685882115000,10.427114990234376,0.2395307719707489,0.7444537281990051,0.19179533421993256
1761475685892092200,10.437092041015624,0.26259079575538635,0.767178475856781,0.23079892992973328
1761475685902069000,10.447069091796875,0.2999650537967682,0.7667438387870789,0.2978333532810211
1761475685912046000,10.457046142578125,0.3215468227863312,0.7536023259162903,0.38786378502845764
1761475685922023200,10.467023193359376,0.3031177520751953,0.7179431319236755,0.46428826451301575
1761475685932000300,10.477000244140624,0.23953507840633392,0.6267021298408508,0.5176387429237366
1761475685941977000,10.48697705078125,0.14668451249599457,0.49196958541870117,0.5398119688034058
1761475685951954200,10.4969541015625,0.06149205192923546,0.30857276916503906,0.5471389889717102
1761475685961931000,10.506930908203126,-0.0337338000535965,0.12111898511648178,0.529900848865509
1761475685971908000,10.516908203125,-0.13202857971191406,-0.08035165071487427,0.4780377447605133
1761475685981885200,10.52688525390625,-0.19875195622444153,-0.32446765899658203,0.39853546023368835
1761475685991863000,10.536863037109375,-0.2278541475534439,-0.48756837844848633,0.31035152077674866
1761475686001840000,10.546840087890626,-0.23116126656532288,-0.5755102634429932,0.20416727662086487
1761475686011817200,10.556817138671875,-0.22520709037780762,-0.6374228000640869,0.07248429208993912
1761475686021794000,10.5667939453125,-0.2199137955904007,-0.6743965148925781,-0.07558080554008484
1761475686031771100,10.576771240234375,-0.21566931903362274,-0.6681379079818726,-0.22854122519493103
1761475686041748000,10.586748046875,-0.24249880015850067,-0.5798093676567078,-0.39217355847358704
1761475686051725000,10.59672509765625,-0.2672022879123688,-0.40396636724472046,-0.5672414898872375
1761475686061702000,10.606701904296875,-0.2621385455131531,-0.21669819951057434,-0.7438545823097229
1761475686071679200,10.61667919921875,-0.21553026139736176,-0.018148411065340042,-0.9060528874397278
1761475686081656300,10.62665625,-0.1341259479522705,0.16382084786891937,-1.0413042306900024
1761475686091633200,10.636633056640624,-0.041646163910627365,0.28913670778274536,-1.136776328086853
1761475686101610200,10.6466103515625,0.05269951373338699,0.35718977451324463,-1.177058219909668
1761475686111588000,10.656588134765625,0.1415865421295166,0.34637394547462463,-1.14939546585083
1761475686121565000,10.66656494140625,0.2144375741481781,0.29404282569885254,-1.0626999139785767
1761475686131542000,10.6765419921875,0.27486374974250793,0.22039753198623657,-0.9194769263267517
1761475686141518800,10.686518798828125,0.3036578297615051,0.21513459086418152,-0.7428174614906311
1761475686151496000,10.696495849609375,0.2868967354297638,0.22739318013191223,-0.5570855140686035
1761475686161473000,10.70647314453125,0.2485370934009552,0.16950485110282898,-0.38436242938041687
1761475686171449900,10.716449951171874,0.19603842496871948,0.08516673743724823,-0.23495398461818695
1761475686181427000,10.726427001953125,0.1429930478334427,-0.013800853863358498,-0.11451677978038788
1761475686191403800,10.73640380859375,0.08249957859516144,-0.17004138231277466,-0.006469087675213814
1761475686201380900,10.746380859375,0.012640074826776981,-0.3281223475933075,0.07824046909809113
1761475686211358000,10.75635791015625,-0.049298062920570374,-0.4569947421550751,0.1365894377231598
1761475686221335000,10.7663349609375,-0.10304278135299683,-0.5467861890792847,0.17109414935112
1761475686231312100,10.77631201171875,-0.15302793681621552,-0.6086558103561401,0.16416995227336884
1761475686241289700,10.786289794921874,-0.1989738494157791,-0.6396803259849548,0.11975481361150742
1761475686251267000,10.79626708984375,-0.23814529180526733,-0.6572375893592834,0.058275580406188965
1761475686261244200,10.806244140625,-0.2741328775882721,-0.6113536953926086,-0.023519685491919518
1761475686271221000,10.816220947265625,-0.30153703689575195,-0.5103864073753357,-0.08770722150802612
1761475686281198000,10.826197998046876,-0.3161151707172394,-0.33871108293533325,-0.13628114759922028
1761475686291175000,10.8361748046875,-0.3309679925441742,-0.1721104383468628,-0.18179652094841003
1761475686301152000,10.846152099609375,-0.3039393126964569,-0.06873665004968643,-0.20797938108444214
1761475686311128800,10.85612890625,-0.22963063418865204,0.04822475090622902,-0.18681859970092773
1761475686321106000,10.86610595703125,-0.17560841143131256,0.14719687402248383,-0.14597849547863007
1761475686331083000,10.8760830078125,-0.16177737712860107,0.21915878355503082,-0.11643535643815994
1761475686341059800,10.886059814453125,-0.16051317751407623,0.1703752726316452,-0.08397409319877625
1761475686351037000,10.896036865234375,-0.16649119555950165,0.1320631355047226,-0.024077171459794044
1761475686361014800,10.906014892578124,-0.20097912847995758,0.13789519667625427,0.05383627116680145
1761475686370991900,10.915991943359375,-0.2487851083278656,0.11247479170560837,0.12877975404262543
1761475686380969000,10.925968994140625,-0.25045251846313477,0.12758584320545197,0.22908611595630646
1761475686390945800,10.93594580078125,-0.21935796737670898,0.17019295692443848,0.3363199234008789
1761475686400923100,10.945923095703124,-0.1921527087688446,0.12772272527217865,0.3931160867214203
1761475686410900000,10.95589990234375,-0.19182011485099792,0.014816089533269405,0.3770388662815094
1761475686420877000,10.965876953125,-0.21220368146896362,-0.13779529929161072,0.3086475729942322
1761475686430854000,10.97585400390625,-0.23980191349983215,-0.2576686441898346,0.20164479315280914
1761475686440831000,10.9858310546875,-0.3257325291633606,-0.38096314668655396,0.21928344666957855
1761475686450808000,10.99580810546875,-0.46742165088653564,-0.7446341514587402,0.22780700027942657
1761475686460785000,11.005784912109375,-0.5169298052787781,-0.781260073184967,0.19591166079044342
1761475686470762000,11.015761962890625,-0.5467358827590942,-0.8665270805358887,0.06863849610090256
1761475686480739800,11.02573974609375,-0.6030316352844238,-0.8676775693893433,-0.08545919507741928
1761475686490717000,11.035717041015625,-0.7112335562705994,-0.6422012448310852,-0.26747122406959534
1761475686500694000,11.045694091796875,-0.8375619053840637,-0.3465557396411896,-0.4707487225532532
1761475686510670800,11.0556708984375,-0.8266684412956238,0.014099113643169403,-0.5941212177276611
