time,seconds_elapsed,z,y,x
1761475689144400100,0.063400146484375,0.05367831513285637,-0.7307872772216797,-0.003671000013127923
1761475689154377200,0.073377197265625,0.06462444365024567,-0.6230887770652771,-0.04278937354683876
1761475689164354000,0.08335400390625,0.09240584820508957,-0.44614726305007935,-0.06863819807767868
1761475689174331100,0.0933310546875,0.12058502435684204,-0.14619116485118866,-0.03611993417143822
1761475689184308000,0.103307861328125,0.12020555138587952,0.17751525342464447,0.021602073684334755
1761475689194285000,0.11328515625,0.06658866256475449,0.32865017652511597,0.05793717876076698
1761475689204262100,0.12326220703125,0.014396440237760544,0.28436803817749023,0.07871599495410919
1761475689214239200,0.1332392578125,-0.01907762885093689,0.16239579021930695,0.08868047595024109
1761475689224217000,0.143217041015625,-0.04180214926600456,-0.006320569664239883,0.08487807214260101
1761475689234194000,0.15319384765625,-0.03769741579890251,-0.14412450790405273,0.08778490871191025
1761475689244171300,0.163171142578125,-0.006882828660309315,-0.18881922960281372,0.0976802259683609
1761475689254148400,0.1731484375,0.055905722081661224,-0.18979686498641968,0.11522592604160309
1761475689264125200,0.183125244140625,0.12363652884960175,-0.1897234171628952,0.12661978602409363
1761475689274102300,0.193102294921875,0.16306143999099731,-0.1481671929359436,0.1407712996006012
1761475689284079000,0.2030791015625,0.15458810329437256,-0.06361821293830872,0.15310600399971008
1761475689294056200,0.21305615234375,0.13071179389953613,-0.012881265953183174,0.15538913011550903
1761475689304033000,0.223032958984375,0.1068662703037262,-0.015882330015301704,0.12951166927814484
1761475689314010000,0.233010009765625,0.10801728814840317,-0.07718057930469513,0.08159633725881577
1761475689323987200,0.2429873046875,0.13145090639591217,-0.15761001408100128,0.01984865590929985
1761475689333965000,0.252965087890625,0.1617201417684555,-0.2453521192073822,-0.04779404029250145
1761475689343942100,0.262942138671875,0.19169923663139343,-0.28280964493751526,-0.09812097251415253
1761475689353919000,0.2729189453125,0.23144744336605072,-0.2246331423521042,-0.09364179521799088
1761475689363896000,0.28289599609375,0.27463003993034363,-0.0730864480137825,-0.05598782002925873
1761475689373873200,0.292873046875,0.3291587829589844,0.05707155913114548,-0.011023805476725101
1761475689383850000,0.30285009765625,0.4124653935432434,0.12832790613174438,0.04104844853281975
1761475689393827000,0.3128271484375,0.4803088903427124,0.15791162848472595,0.08986020088195801
1761475689403804200,0.32280419921875,0.5061983466148376,0.1364147961139679,0.1160440519452095
1761475689413781200,0.33278125,0.4944087862968445,0.10276921838521957,0.13291651010513306
1761475689423758000,0.342758056640625,0.4699289798736572,0.07409757375717163,0.15307696163654327
1761475689433735200,0.352735107421875,0.45337262749671936,0.03732491284608841,0.18076105415821075
1761475689443713300,0.36271337890625,0.4476151764392853,0.004324937239289284,0.20422691106796265
1761475689453690000,0.372690185546875,0.45185786485671997,-0.019758028909564018,0.23265935480594635
1761475689463667200,0.382667236328125,0.4329821765422821,-0.029385462403297424,0.2428339272737503
1761475689473644300,0.392644287109375,0.3985949158668518,-0.055196553468704224,0.22243571281433105
1761475689483621000,0.40262109375,0.367474228143692,-0.09642409533262253,0.20779147744178772
1761475689493598200,0.41259814453125,0.30822819471359253,-0.10753506422042847,0.1788511723279953
1761475689503575000,0.422574951171875,0.2482650727033615,-0.16849206387996674,0.12605562806129456
1761475689513552100,0.43255224609375,0.22911986708641052,-0.20935027301311493,0.07372584193944931
1761475689523529000,0.442529052734375,0.2176104187965393,-0.25292250514030457,0.01160560641437769
1761475689533506000,0.452506103515625,0.20212572813034058,-0.27258676290512085,-0.06606042385101318
1761475689543483100,0.462483154296875,0.18943040072917938,-0.21569114923477173,-0.13171836733818054
1761475689553461000,0.4724609375,0.182584747672081,-0.12515832483768463,-0.1710021197795868
1761475689563438000,0.48243798828125,0.1768992841243744,-0.01175517588853836,-0.19129303097724915
1761475689573415200,0.492415283203125,0.18349672853946686,0.10129894316196442,-0.20625600218772888
1761475689583392300,0.502392333984375,0.20099905133247375,0.1495620757341385,-0.22521226108074188
1761475689593369300,0.512369384765625,0.24050411581993103,0.13959413766860962,-0.2362731695175171
1761475689603346200,0.52234619140625,0.277356892824173,0.10128387063741684,-0.2492721676826477
1761475689613323300,0.5323232421875,0.3021780848503113,0.09598790854215622,-0.24824552237987518
1761475689623300000,0.542300048828125,0.31641852855682373,0.12271454185247421,-0.21455727517604828
1761475689633277200,0.552277099609375,0.32131898403167725,0.15600937604904175,-0.17299064993858337
1761475689643254000,0.56225390625,0.3192647397518158,0.16708694398403168,-0.1363244205713272
1761475689653231000,0.572231201171875,0.30101194977760315,0.13570213317871094,-0.10169932246208191
1761475689663209200,0.582209228515625,0.2717076539993286,0.0888000875711441,-0.07471305876970291
1761475689673186000,0.59218603515625,0.22955860197544098,0.030516542494297028,-0.05347141996026039
1761475689683163100,0.6021630859375,0.18454872071743011,-0.01583641581237316,-0.028141722083091736
1761475689693140000,0.612139892578125,0.1457323580980301,-0.01810755953192711,-0.011631187982857227
1761475689703117000,0.622116943359375,0.11644348502159119,-0.11112985759973526,-0.0055074431002140045
1761475689713094100,0.63209423828125,0.09197383373975754,-0.1443149745464325,-0.00909498706459999
1761475689723071000,0.642071044921875,0.0784982219338417,-0.20843392610549927,-0.023360183462500572
1761475689733048300,0.65204833984375,0.08046203851699829,-0.262104868888855,-0.01677658222615719
1761475689743025200,0.662025146484375,0.08642268180847168,-0.26266804337501526,0.0021794321946799755
1761475689753002200,0.672002197265625,0.08829781413078308,-0.23050236701965332,0.02026868611574173
1761475689762979000,0.68197900390625,0.09007993340492249,-0.16294421255588531,0.020905019715428352
1761475689772957200,0.691957275390625,0.09477268904447556,-0.08182539790868759,0.0023923225235193968
1761475689782934300,0.701934326171875,0.11241241544485092,-0.033344566822052,-0.04260855168104172
1761475689792911000,0.7119111328125,0.13036638498306274,-0.02238033525645733,-0.1108456701040268
1761475689802888200,0.72188818359375,0.1443106234073639,-0.049783144146203995,-0.17964555323123932
1761475689812865300,0.731865234375,0.14905504882335663,-0.08883573859930038,-0.24051237106323242
1761475689822842000,0.741842041015625,0.15263929963111877,-0.11324840039014816,-0.27732378244400024
1761475689832819200,0.751819091796875,0.14592014253139496,-0.13870687782764435,-0.28790345788002014
1761475689842796000,0.761796142578125,0.1219344511628151,-0.15473006665706635,-0.2847856879234314
1761475689852773000,0.771773193359375,0.08915279805660248,-0.14995475113391876,-0.2640383243560791
1761475689862750000,0.78175,0.055313728749752045,-0.11783873289823532,-0.22775676846504211
1761475689872727000,0.79172705078125,0.02164951153099537,-0.09195813536643982,-0.190218985080719
1761475689882705200,0.801705078125,-0.006783057004213333,-0.08313822746276855,-0.15492044389247894
1761475689892682000,0.811681884765625,-0.04026804491877556,-0.09615309536457062,-0.11636586487293243
1761475689902659000,0.8216591796875,-0.06705911457538605,-0.10397868603467941,-0.058500535786151886
1761475689912636200,0.83163623046875,-0.08055681735277176,-0.09722517430782318,0.012400267645716667
1761475689922613200,0.84161328125,-0.10058112442493439,-0.13898834586143494,0.07697659730911255
1761475689932590300,0.85159033203125,-0.12242836505174637,-0.18536649644374847,0.14077235758304596
1761475689942567200,0.861567138671875,-0.1445687711238861,-0.2208118885755539,0.19435320794582367
1761475689952544300,0.871544189453125,-0.16979584097862244,-0.21859000623226166,0.24679245054721832
1761475689962521000,0.88152099609375,-0.18850304186344147,-0.17149215936660767,0.29871439933776855
1761475689972498200,0.891498291015625,-0.1955401748418808,-0.10404707491397858,0.34214550256729126
1761475689982475000,0.90147509765625,-0.17172501981258392,-0.03159146383404732,0.38110390305519104
1761475689992453000,0.911453125,-0.13215124607086182,0.06946271657943726,0.4327937364578247
1761475690002430200,0.92143017578125,-0.08129852265119553,0.12281834334135056,0.4850013852119446
1761475690012407000,0.931406982421875,-0.06530170887708664,0.0929829552769661,0.5125904083251953
1761475690022384000,0.941384033203125,-0.09058079868555069,0.013056271709501743,0.5026300549507141
1761475690032361000,0.95136083984375,-0.16343051195144653,-0.05222952365875244,0.4479878544807434
1761475690042338000,0.961338134765625,-0.2522875666618347,-0.13081109523773193,0.3590531647205353
1761475690052315100,0.971315185546875,-0.3998168408870697,-0.20109617710113525,0.22895534336566925
1761475690062292200,0.981292236328125,-0.5762600898742676,-0.24137233197689056,0.06160413846373558
1761475690072269300,0.991269287109375,-0.7056125402450562,-0.21995732188224792,-0.10505887866020203
1761475690082246100,1.00124609375,-0.761022686958313,-0.13792312145233154,-0.25488969683647156
1761475690092223200,1.01122314453125,-0.7610136866569519,-0.07216594368219376,-0.3815334141254425
1761475690102201300,1.021201416015625,-0.7425416111946106,-0.03405537083745003,-0.4844946265220642
1761475690112178200,1.03117822265625,-0.7038540840148926,0.012542227283120155,-0.5680182576179504
1761475690122155000,1.041155029296875,-0.6417862772941589,0.0773392841219902,-0.5875562429428101
1761475690132132000,1.051132080078125,-0.5526034235954285,0.147376149892807,-0.5395064353942871
1761475690142109000,1.06110888671875,-0.4590226113796234,0.2681722342967987,-0.44200852513313293
1761475690152086000,1.0710859375,-0.3600832521915436,0.3574405908584595,-0.289542555809021
1761475690162062800,1.081062744140625,-0.2509344220161438,0.4523896276950836,-0.10205109417438507
1761475690172040000,1.0910400390625,-0.17280153930187225,0.4743655025959015,0.09684895724058151
1761475690182017000,1.10101708984375,-0.15661543607711792,0.4366762936115265,0.2711976170539856
1761475690191993900,1.110993896484375,-0.20282074809074402,0.37169304490089417,0.4000850319862366
1761475690201972000,1.120971923828125,-0.2843192219734192,0.2974086403846741,0.4902772903442383
1761475690211948800,1.13094873046875,-0.3562439978122711,0.2102327197790146,0.5464955568313599
1761475690221926000,1.14092578125,-0.4053579568862915,0.08833110332489014,0.5681013464927673
1761475690231903000,1.150903076171875,-0.43549802899360657,-0.04301253706216812,0.5621204376220703
1761475690241880000,1.160880126953125,-0.46957823634147644,-0.1566566377878189,0.5107372403144836
1761475690251857200,1.170857177734375,-0.5081466436386108,-0.2519006133079529,0.42481058835983276
1761475690261834000,1.180833984375,-0.5319221615791321,-0.3190944492816925,0.31173449754714966
1761475690271811000,1.19081103515625,-0.5568075180053711,-0.3343764841556549,0.17645952105522156
1761475690281788000,1.200787841796875,-0.5644596815109253,-0.2860897481441498,0.023325057700276375
1761475690291765000,1.210764892578125,-0.5574814081192017,-0.23576052486896515,-0.13408933579921722
1761475690301742000,1.2207421875,-0.5357311367988586,-0.20546892285346985,-0.3068268895149231
1761475690311720000,1.230719970703125,-0.5007553100585938,-0.18367600440979004,-0.4738880395889282
1761475690321697000,1.240697021484375,-0.4616066515445709,-0.163602814078331,-0.6130831241607666
1761475690331673900,1.250673828125,-0.410490483045578,-0.11682093143463135,-0.7074471712112427
1761475690341651000,1.26065087890625,-0.3567190170288086,-0.055120013654232025,-0.746877133846283
1761475690351628000,1.2706279296875,-0.30007731914520264,-0.0014996612444519997,-0.7286145091056824
1761475690361604900,1.28060498046875,-0.2516091465950012,0.02706092968583107,-0.6680706739425659
1761475690371582000,1.29058203125,-0.21685518324375153,0.03916526585817337,-0.5766568779945374
1761475690381558800,1.300558837890625,-0.20632028579711914,-0.0003596690949052572,-0.45391690731048584
1761475690391535900,1.310535888671875,-0.2110798954963684,-0.025602441281080246,-0.32458260655403137
1761475690401513000,1.320512939453125,-0.22848254442214966,-0.07666440308094025,-0.18033985793590546
1761475690411490000,1.330489990234375,-0.2623278498649597,-0.13654184341430664,-0.0461338609457016
1761475690421468000,1.340468017578125,-0.2981695532798767,-0.19029493629932404,0.07368332892656326
1761475690431445000,1.350445068359375,-0.3281064033508301,-0.23473963141441345,0.16520127654075623
1761475690441422000,1.360422119140625,-0.3552069664001465,-0.2547968924045563,0.22648227214813232
1761475690451399200,1.370399169921875,-0.37300223112106323,-0.2401801347732544,0.25093916058540344
1761475690461376000,1.3803759765625,-0.36653006076812744,-0.21166680753231049,0.23272503912448883
1761475690471353000,1.39035302734375,-0.34560054540634155,-0.18598167598247528,0.1857234388589859
1761475690481330000,1.400329833984375,-0.29864516854286194,-0.16091009974479675,0.1137785017490387
1761475690491307000,1.41030712890625,-0.2413019984960556,-0.11660521477460861,0.05304005369544029
1761475690501283800,1.420283935546875,-0.19525913894176483,-0.08200063556432724,-0.020531902089715004
1761475690511261000,1.430260986328125,-0.160934180021286,-0.05400414764881134,-0.08226504176855087
1761475690521239000,1.440239013671875,-0.1115027591586113,0.0028543933294713497,-0.10873491317033768
1761475690531216000,1.4502158203125,-0.04441347345709801,0.10143636167049408,-0.08331770449876785
1761475690541193000,1.46019287109375,0.02870236150920391,0.190879687666893,-0.012614375911653042
1761475690551169800,1.470169677734375,0.09791259467601776,0.2995710074901581,0.08535346388816833
1761475690561147000,1.48014697265625,0.17143268883228302,0.34764572978019714,0.2004309594631195
1761475690571124000,1.4901240234375,0.2487780749797821,0.35190942883491516,0.31919726729393005
1761475690581101000,1.50010107421875,0.2995864450931549,0.2949824631214142,0.43094730377197266
1761475690591078100,1.510078125,0.325881689786911,0.1983315348625183,0.5391022562980652
1761475690601055000,1.520054931640625,0.3288267254829407,0.10851936042308807,0.65024733543396
1761475690611032000,1.530031982421875,0.3366638720035553,0.10988902300596237,0.774879515171051
1761475690621009000,1.5400087890625,0.36155518889427185,0.1492691934108734,0.8984628319740295
1761475690630987000,1.549987060546875,0.37617141008377075,0.11538392305374146,0.9796192049980164
1761475690640964000,1.559964111328125,0.3301343023777008,-0.05637989938259125,0.9923868775367737
1761475690650941000,1.56994091796875,0.18978650867938995,-0.31403088569641113,0.9057084321975708
1761475690660918000,1.57991796875,0.04932393506169319,-0.6494653820991516,0.7962021827697754
1761475690670894800,1.589894775390625,-0.18414287269115448,-0.7619625926017761,0.6325783729553223
1761475690680872000,1.599871826171875,-0.45876604318618774,-0.8665186166763306,0.4383770823478699
1761475690690849000,1.60984912109375,-0.6742812991142273,-0.876798689365387,0.27484753727912903
1761475690700825900,1.619825927734375,-0.7772499322891235,-0.7160058617591858,0.1740604043006897
1761475690710803000,1.629802978515625,-0.7961743474006653,-0.48380669951438904,0.11132379621267319
1761475690720779800,1.63977978515625,-0.7377092242240906,-0.24794235825538635,0.08365898579359055
1761475690730757000,1.649757080078125,-0.603630542755127,-0.006422940641641617,0.09095817804336548
1761475690740735000,1.65973486328125,-0.4159795939922333,0.24372448027133942,0.1209673061966896
1761475690750711800,1.6697119140625,-0.22128760814666748,0.45345693826675415,0.18851998448371887
1761475690760689000,1.67968896484375,-0.07291808724403381,0.6303076148033142,0.2603440582752228
1761475690770666000,1.689666015625,0.025094231590628624,0.7837608456611633,0.3229650855064392
1761475690780643000,1.69964306640625,0.09220702201128006,0.8541988730430603,0.36424344778060913
1761475690790620200,1.7096201171875,0.14424198865890503,0.8281118869781494,0.38181445002555847
1761475690800597000,1.719596923828125,0.17452584207057953,0.7548648715019226,0.38596439361572266
1761475690810574000,1.729573974609375,0.19557254016399384,0.6075542569160461,0.36713796854019165
1761475690820551000,1.739551025390625,0.21212850511074066,0.36585697531700134,0.3275831341743469
1761475690830528000,1.749528076171875,0.21733631193637848,0.10130682587623596,0.28793078660964966
1761475690840506000,1.759506103515625,0.1836477518081665,-0.13847780227661133,0.23932303488254547
1761475690850483000,1.76948291015625,0.15407653152942657,-0.3068431317806244,0.19506822526454926
1761475690860460000,1.7794599609375,0.1600230187177658,-0.4162730872631073,0.1665792018175125
1761475690870436900,1.789436767578125,0.18069607019424438,-0.42878809571266174,0.14975547790527344
1761475690880414000,1.7994140625,0.19823725521564484,-0.3957555592060089,0.11882127821445465
1761475690890390800,1.809390869140625,0.2106558382511139,-0.38804998993873596,0.06834772229194641
1761475690900368000,1.819367919921875,0.22805866599082947,-0.3057606518268585,0.021027548238635063
1761475690910345000,1.829344970703125,0.26106616854667664,-0.178466334939003,-0.03067239746451378
1761475690920322000,1.839322021484375,0.30350565910339355,-0.02074265107512474,-0.09252534806728363
1761475690930299100,1.849299072265625,0.35492169857025146,0.0890890434384346,-0.19478540122509003
1761475690940276000,1.85927587890625,0.41405338048934937,0.10169245302677155,-0.33922046422958374
1761475690950254000,1.869254150390625,0.4725009799003601,0.03726445883512497,-0.4932268261909485
1761475690960231200,1.879231201171875,0.524972677230835,-0.055300042033195496,-0.6367092132568359
1761475690970208000,1.8892080078125,0.5539649128913879,-0.10687029361724854,-0.7355197072029114
1761475690980185000,1.89918505859375,0.5624966025352478,-0.09109772741794586,-0.7736618518829346
1761475690990162000,1.909161865234375,0.5628678202629089,-0.06421470642089844,-0.7549049258232117
1761475691000139000,1.919138916015625,0.5605292916297913,0.013662672601640224,-0.7076765298843384
1761475691010115800,1.92911572265625,0.565932035446167,0.08316824585199356,-0.6319305896759033
1761475691020093000,1.939093017578125,0.5711622834205627,0.1423424631357193,-0.5444858074188232
1761475691030070000,1.949070068359375,0.5722150206565857,0.1819804161787033,-0.4574776589870453
1761475691040046800,1.959046875,0.5532327890396118,0.14943057298660278,-0.3815004527568817
1761475691050025000,1.96902490234375,0.5233286619186401,0.08278203755617142,-0.3086766004562378
1761475691060002000,1.979001953125,0.48879802227020264,0.0024728691205382347,-0.23427245020866394
1761475691069979000,1.988978759765625,0.4570685923099518,-0.07354067265987396,-0.16704200208187103
1761475691079956000,1.9989560546875,0.42406731843948364,-0.10387849807739258,-0.099448561668396
1761475691089932800,2.008932861328125,0.3951603174209595,-0.12215018272399902,-0.04676377773284912
1761475691099910100,2.01891015625,0.3541247844696045,-0.14392061531543732,-0.019191643223166466
1761475691109887000,2.028886962890625,0.2895524501800537,-0.15584971010684967,-0.004300843458622694
1761475691119864300,2.0388642578125,0.20963527262210846,-0.1582457572221756,0.0026646542828530073
1761475691129841400,2.04884130859375,0.12446204572916031,-0.1381567418575287,0.02043939009308815
1761475691139818200,2.058818359375,0.05277547985315323,-0.06398604810237885,0.0722934752702713
1761475691149795300,2.06879541015625,-0.005924583412706852,0.03628595918416977,0.14466169476509094
1761475691159773400,2.0787734375,-0.03711199760437012,0.1073988527059555,0.2348759025335312
1761475691169750300,2.088750244140625,-0.03332950919866562,0.1259525716304779,0.3162487745285034
1761475691179727400,2.098727294921875,-0.012411147356033325,0.0843343436717987,0.380545437335968
1761475691189704200,2.1087041015625,0.004148654639720917,0.012148559093475342,0.4336904287338257
1761475691199681300,2.118681396484375,0.006967648863792419,-0.05658719688653946,0.48226070404052734
1761475691209658400,2.128658447265625,-0.005214714910835028,-0.0669945701956749,0.5402606129646301
1761475691219635200,2.13863525390625,-0.011664832942187786,-0.028772348538041115,0.6081554889678955
1761475691229612300,2.1486123046875,-0.022266877815127373,-0.02295840159058571,0.6635854840278625
1761475691239589000,2.158589111328125,-0.05100676044821739,-0.07793941348791122,0.6574702262878418
1761475691249566200,2.168566162109375,-0.11256332695484161,-0.2742367684841156,0.5762749910354614
1761475691259543300,2.178543212890625,-0.18586072325706482,-0.48402008414268494,0.4708881080150604
1761475691269521200,2.188521240234375,-0.3361985385417938,-0.5141623020172119,0.2926110625267029
1761475691279498200,2.198498291015625,-0.5091365575790405,-0.5359878540039062,0.04905436187982559
1761475691289475300,2.208475341796875,-0.6114525198936462,-0.535415530204773,-0.1854553371667862
1761475691299452400,2.218452392578125,-0.6345695853233337,-0.5131298899650574,-0.39512166380882263
1761475691309429200,2.22842919921875,-0.6055938601493835,-0.3917911648750305,-0.5474027991294861
1761475691319406300,2.23840625,-0.5303382277488708,-0.1964290887117386,-0.650414228439331
1761475691329383400,2.248383544921875,-0.45540353655815125,0.04355314373970032,-0.7165258526802063
1761475691339360300,2.2583603515625,-0.338072806596756,0.2783210575580597,-0.718734085559845
1761475691349337300,2.26833740234375,-0.183066725730896,0.4574998915195465,-0.656196117401123
1761475691359314200,2.278314208984375,-0.038473986089229584,0.5990266799926758,-0.5355485677719116
1761475691369292300,2.288292236328125,0.07694980502128601,0.6908884048461914,-0.36818405985832214
1761475691379269400,2.298269287109375,0.1427745223045349,0.7475889921188354,-0.1914242058992386
1761475691389246200,2.30824609375,0.1735750436782837,0.7235363721847534,-0.01874723844230175
1761475691399223300,2.318223388671875,0.1678689569234848,0.5742406249046326,0.11516555398702621
1761475691409200000,2.3282001953125,0.1434272676706314,0.34456273913383484,0.23838095366954803
1761475691419177200,2.33817724609375,0.10007405281066895,0.09908708184957504,0.34922754764556885
1761475691429154000,2.348154052734375,0.02548503689467907,-0.12237659841775894,0.445303738117218
1761475691439131100,2.358131103515625,-0.07786071300506592,-0.25779542326927185,0.544864296913147
1761475691449108500,2.3681083984375,-0.19266079366207123,-0.3335077464580536,0.6101018786430359
1761475691459085300,2.378085205078125,-0.30559346079826355,-0.3879590928554535,0.600385844707489
1761475691469063200,2.388063232421875,-0.382027268409729,-0.4149835407733917,0.5460683107376099
1761475691479040500,2.39804052734375,-0.427418977022171,-0.3917662799358368,0.44488978385925293
1761475691489017300,2.408017333984375,-0.45467084646224976,-0.35726261138916016,0.2988036870956421
1761475691498994400,2.417994384765625,-0.46605902910232544,-0.3630654811859131,0.10483349114656448
1761475691508971300,2.42797119140625,-0.48018068075180054,-0.34527984261512756,-0.10769900679588318
1761475691518948400,2.4379482421875,-0.4810231328010559,-0.24694234132766724,-0.32799914479255676
1761475691528925200,2.44792529296875,-0.44445741176605225,-0.15837039053440094,-0.5421860218048096
1761475691538902300,2.45790234375,-0.3813406825065613,-0.05819559097290039,-0.7313997149467468
1761475691548879400,2.46787939453125,-0.28843897581100464,0.06601237505674362,-0.8681530356407166
1761475691558856200,2.477856201171875,-0.1863940805196762,0.1964084655046463,-0.9364706873893738
1761475691568833300,2.487833251953125,-0.10723640024662018,0.3088151514530182,-0.9476924538612366
1761475691578811100,2.49781103515625,-0.0694526806473732,0.3944200575351715,-0.9053729772567749
1761475691588788200,2.507788330078125,-0.05442099645733833,0.38390055298805237,-0.8334342837333679
1761475691598765300,2.517765380859375,-0.03305642306804657,0.33076807856559753,-0.7122202515602112
1761475691608742100,2.5277421875,-0.009388645179569721,0.2670823335647583,-0.5715086460113525
1761475691618719200,2.53771923828125,0.004900400061160326,0.20740503072738647,-0.41535505652427673
1761475691628696300,2.5476962890625,0.008306583389639854,0.11744558066129684,-0.2511110007762909
1761475691638673400,2.55767333984375,-0.007198179140686989,0.03893585875630379,-0.09593739360570908
1761475691648650200,2.567650146484375,-0.03375868499279022,-0.03403795138001442,0.050455242395401
1761475691658627300,2.57762744140625,-0.061643097549676895,-0.09974020719528198,0.17308109998703003
1761475691668604400,2.5876044921875,-0.0839579850435257,-0.1408969610929489,0.2700260281562805
1761475691678581200,2.597581298828125,-0.09173690527677536,-0.16989943385124207,0.32729700207710266
1761475691688559400,2.607559326171875,-0.08268588781356812,-0.2054462432861328,0.3484792709350586
1761475691698536200,2.6175361328125,-0.07482284307479858,-0.19589395821094513,0.33037546277046204
1761475691708513300,2.62751318359375,-0.09895294904708862,-0.19752302765846252,0.2662590444087982
1761475691718490400,2.637490478515625,-0.14685268700122833,-0.18594667315483093,0.17984189093112946
1761475691728467200,2.64746728515625,-0.2139078825712204,-0.13967478275299072,0.08641180396080017
1761475691738444300,2.6574443359375,-0.25425422191619873,-0.037821557372808456,0.021244673058390617
1761475691748421000,2.667421142578125,-0.2622500956058502,0.18227219581604004,-0.0031155264005064964
1761475691758398200,2.677398193359375,-0.23149116337299347,0.4261937141418457,0.00704448577016592
1761475691768375000,2.687375,-0.18097685277462006,0.6086447834968567,0.032143980264663696
1761475691778352400,2.697352294921875,-0.11713013052940369,0.6838760375976562,0.06718675792217255
1761475691788330200,2.707330322265625,-0.05181637406349182,0.6497628092765808,0.10656345635652542
1761475691798307000,2.71730712890625,0.020152639597654343,0.5649964213371277,0.16467946767807007
1761475691808284200,2.7272841796875,0.0858008936047554,0.4781437814235687,0.2407372146844864
1761475691818261500,2.737261474609375,0.13279946148395538,0.39870506525039673,0.32990914583206177
1761475691828238300,2.74723828125,0.15706592798233032,0.31837746500968933,0.425790399312973
1761475691838215400,2.75721533203125,0.170765683054924,0.250745952129364,0.5159050226211548
1761475691848192300,2.767192138671875,0.20257820188999176,0.2084813266992569,0.598895251750946
1761475691858169300,2.77716943359375,0.2335721254348755,0.11495248973369598,0.6511408686637878
1761475691868146200,2.787146240234375,0.2241794317960739,-0.0517888218164444,0.6406645774841309
1761475691878123300,2.797123291015625,0.17548054456710815,-0.32090210914611816,0.5855548977851868
1761475691888101400,2.807101318359375,0.043749675154685974,-0.5783315300941467,0.46099886298179626
1761475691898078200,2.817078125,-0.1333083212375641,-0.8088815808296204,0.27844443917274475
1761475691908055300,2.82705517578125,-0.26203566789627075,-0.9759888052940369,0.11732318997383118
1761475691918032100,2.8370322265625,-0.3558359444141388,-0.9586517214775085,0.007848680950701237
1761475691928009200,2.84700927734375,-0.40963420271873474,-0.8201550841331482,-0.0480492077767849
1761475691937986300,2.856986328125,-0.42351165413856506,-0.5638948082923889,-0.055144477635622025
1761475691947963100,2.866963134765625,-0.40038448572158813,-0.22140352427959442,-0.02870807610452175
1761475691957940200,2.876940185546875,-0.30776408314704895,0.10418106615543365,0.023481249809265137
1761475691967917300,2.886917236328125,-0.14211706817150116,0.35990336537361145,0.1016455590724945
1761475691977894400,2.896894287109375,0.024921560660004616,0.5567808151245117,0.19312655925750732
1761475691987871200,2.906871337890625,0.11595533043146133,0.7025465369224548,0.2684364914894104
1761475691997849300,2.916849365234375,0.13704581558704376,0.8263055086135864,0.3104134798049927
1761475692007826400,2.926826416015625,0.14816610515117645,0.87819904088974,0.3467922806739807
1761475692017803300,2.93680322265625,0.14804166555404663,0.8244932889938354,0.3630031645298004
1761475692027780400,2.9467802734375,0.16595914959907532,0.6898905038833618,0.3731479346752167
1761475692037757200,2.956757080078125,0.15022343397140503,0.5350750088691711,0.3725889325141907
1761475692047734300,2.966734375,0.10916201025247574,0.3583218455314636,0.3504127860069275
1761475692057711400,2.97671142578125,0.03249848634004593,0.17516709864139557,0.3118812143802643
1761475692067688200,2.986688232421875,-0.05692966282367706,-0.020253535360097885,0.25053369998931885
1761475692077665300,2.996665283203125,-0.12693777680397034,-0.2954172194004059,0.1745675653219223
1761475692087642000,3.00664208984375,-0.1590014398097992,-0.5455002784729004,0.09895883500576019
1761475692097620200,3.0166201171875,-0.1634632796049118,-0.7208127975463867,0.03406715393066406
1761475692107597300,3.026597412109375,-0.14357826113700867,-0.8672938346862793,-0.024886174127459526
1761475692117574100,3.03657421875,-0.1342553049325943,-0.9530358910560608,-0.0648539662361145
1761475692127550700,3.04655078125,-0.12597447633743286,-0.8751781582832336,-0.07915700972080231
1761475692137527800,3.05652783203125,-0.1308974027633667,-0.7028923630714417,-0.09785324335098267
1761475692147504600,3.066504638671875,-0.12781505286693573,-0.44547039270401,-0.1305462121963501
1761475692157481700,3.076481689453125,-0.09007789939641953,-0.14714495837688446,-0.20190055668354034
1761475692167458600,3.08645849609375,-0.005228521302342415,0.09013842791318893,-0.32287758588790894
1761475692177435600,3.096435546875,0.1318856030702591,0.20415809750556946,-0.48914551734924316
1761475692187412700,3.106412841796875,0.30233776569366455,0.22021056711673737,-0.6659509539604187
1761475692197390600,3.116390625,0.45028620958328247,0.18748368322849274,-0.8286892771720886
1761475692207367700,3.12636767578125,0.5430446267127991,0.14656127989292145,-0.9422597885131836
1761475692217344500,3.136344482421875,0.5864232778549194,0.14300698041915894,-0.9920037388801575
1761475692227321600,3.146321533203125,0.60042405128479,0.1763889044523239,-0.973352313041687
1761475692237298700,3.156298583984375,0.5926573276519775,0.22699770331382751,-0.9007043838500977
1761475692247275500,3.166275634765625,0.5687434673309326,0.2779839336872101,-0.7962349653244019
1761475692257252600,3.176252685546875,0.5619813203811646,0.2945447266101837,-0.6552731394767761
1761475692267229400,3.1862294921875,0.5636996030807495,0.35432976484298706,-0.5008707642555237
1761475692277206800,3.196206787109375,0.5423767566680908,0.3629600703716278,-0.3673519194126129
1761475692287183600,3.20618359375,0.49219509959220886,0.2528175711631775,-0.2775871455669403
1761475692297161500,3.216161376953125,0.4337244927883148,0.11340641230344772,-0.2094581425189972
1761475692307138600,3.226138671875,0.34262973070144653,-0.07730787247419357,-0.1482246071100235
1761475692317115600,3.23611572265625,0.2415568083524704,-0.23631781339645386,-0.08355037122964859
1761475692327092700,3.2460927734375,0.12804089486598969,-0.35309848189353943,-0.01521898154169321
1761475692337069800,3.25606982421875,0.03412964195013046,-0.3942197263240814,0.05161932855844498
1761475692347046700,3.266046630859375,-0.03401665389537811,-0.3895229697227478,0.10093282163143158
1761475692357023700,3.276023681640625,-0.08576127886772156,-0.35249802470207214,0.12477120012044907
1761475692367000600,3.28600048828125,-0.11897462606430054,-0.2824145257472992,0.12691344320774078
1761475692376977700,3.295977783203125,-0.13869135081768036,-0.17274314165115356,0.11544694751501083
1761475692386954500,3.30595458984375,-0.15606261789798737,-0.07729572802782059,0.09050510823726654
1761475692396932600,3.3159326171875,-0.16590410470962524,-0.017386002466082573,0.059980832040309906
1761475692406909700,3.32590966796875,-0.17610614001750946,0.01585051417350769,0.028454331681132317
1761475692416886500,3.335886474609375,-0.1652998924255371,0.02142333798110485,0.009998464025557041
1761475692426863600,3.345863525390625,-0.14867085218429565,0.005229189060628414,0.008410953916609287
1761475692436840400,3.35584033203125,-0.13650888204574585,-0.01368426252156496,0.01954597793519497
1761475692446817500,3.365817626953125,-0.13691288232803345,-0.021512892097234726,0.053269851952791214
1761475692456794600,3.375794677734375,-0.1367194503545761,-0.007713346742093563,0.11553804576396942
1761475692466771700,3.385771728515625,-0.1355188935995102,0.050123587250709534,0.21308483183383942
1761475692476748800,3.395748779296875,-0.12165677547454834,0.14431868493556976,0.3334891200065613
1761475692486725600,3.4057255859375,-0.10956362634897232,0.1870906502008438,0.44977447390556335
1761475692496702700,3.41570263671875,-0.10556983202695847,0.17702406644821167,0.5110571980476379
1761475692506680800,3.425680908203125,-0.1279851347208023,0.010771441273391247,0.493823379278183
1761475692516657700,3.43565771484375,-0.181600421667099,-0.1713998019695282,0.4179026484489441
1761475692526634800,3.445634765625,-0.28787466883659363,-0.35933029651641846,0.2947370409965515
1761475692536611600,3.455611572265625,-0.4591692388057709,-0.6152611970901489,0.11575672030448914
1761475692546588700,3.465588623046875,-0.6705992221832275,-0.7932381629943848,-0.10878290981054306
1761475692556565500,3.4755654296875,-0.8563292622566223,-0.847743034362793,-0.29512539505958557
1761475692566542600,3.48554248046875,-0.9877927899360657,-0.6825607419013977,-0.42549431324005127
1761475692576519700,3.495519775390625,-1.011756181716919,-0.42617499828338623,-0.4896053075790405
1761475692586496500,3.50549658203125,-0.9374483823776245,-0.10544517636299133,-0.4808485507965088
1761475692596474600,3.515474609375,-0.7716933488845825,0.26243945956230164,-0.41177666187286377
1761475692606451700,3.52545166015625,-0.5354166030883789,0.5847504138946533,-0.2992219030857086
1761475692616428500,3.535428466796875,-0.2562599182128906,0.7895187735557556,-0.14223670959472656
1761475692626405600,3.545405517578125,-0.020662322640419006,0.9168634414672852,0.02697574719786644
1761475692636382500,3.555382568359375,0.12044412642717361,0.9196004271507263,0.15035416185855865
1761475692646359800,3.56535986328125,0.17004522681236267,0.811947226524353,0.2427978217601776
1761475692656336600,3.575336669921875,0.21136339008808136,0.6346545815467834,0.3345130681991577
1761475692666313700,3.585313720703125,0.2366945743560791,0.47968795895576477,0.4333355128765106
1761475692676290800,3.595290771484375,0.22980377078056335,0.32897332310676575,0.5281624794006348
1761475692686267600,3.605267578125,0.1802319586277008,0.1836766004562378,0.6028745770454407
1761475692696244700,3.61524462890625,0.0980590432882309,0.023141076788306236,0.6495070457458496
1761475692706222600,3.62522265625,-0.007507331669330597,-0.15102645754814148,0.6593868136405945
1761475692716199700,3.63519970703125,-0.13656286895275116,-0.2844509482383728,0.6316920518875122
1761475692726176800,3.6451767578125,-0.28328147530555725,-0.3463909924030304,0.5354264974594116
1761475692736153600,3.655153564453125,-0.40689951181411743,-0.42603442072868347,0.4007974863052368
1761475692746130700,3.665130615234375,-0.4836600720882416,-0.44049617648124695,0.23964481055736542
1761475692756107500,3.675107421875,-0.5190193057060242,-0.3655427098274231,0.05957794934511185
1761475692766084600,3.685084716796875,-0.5236609578132629,-0.2995642125606537,-0.1382693499326706
1761475692776061400,3.6950615234375,-0.4948303997516632,-0.21685510873794556,-0.33436718583106995
1761475692786038500,3.70503857421875,-0.43265461921691895,-0.09833911806344986,-0.5074303150177002
1761475692796015600,3.715015625,-0.36830344796180725,0.048304811120033264,-0.6673480868339539
1761475692805993500,3.724993408203125,-0.31305190920829773,0.19801467657089233,-0.789949893951416
1761475692815970600,3.734970458984375,-0.27019575238227844,0.319155216217041,-0.8734135031700134
1761475692825947600,3.74494775390625,-0.2289918214082718,0.39178040623664856,-0.918871283531189
1761475692835924700,3.7549248046875,-0.194318488240242,0.4272952079772949,-0.9127967357635498
1761475692845901800,3.76490185546875,-0.14343667030334473,0.4172111451625824,-0.850623607635498
1761475692855878700,3.774878662109375,-0.07489044964313507,0.4121151864528656,-0.7236817479133606
1761475692865855700,3.784855712890625,-0.01374693401157856,0.39417240023612976,-0.5512977242469788
1761475692875832600,3.79483251953125,0.018168671056628227,0.3583568036556244,-0.3745672106742859
1761475692885809700,3.8048095703125,0.01679155044257641,0.29235753417015076,-0.1997634470462799
1761475692895786500,3.814786376953125,-0.01033762563019991,0.15302163362503052,-0.061465516686439514
1761475692905764600,3.8247646484375,-0.06139868125319481,-0.047266725450754166,0.05771493539214134
1761475692915741700,3.83474169921875,-0.12643906474113464,-0.21107584238052368,0.1623387634754181
1761475692925718500,3.844718505859375,-0.18327917158603668,-0.3305244743824005,0.2566194534301758
1761475692935695600,3.854695556640625,-0.21988694369792938,-0.37776288390159607,0.3431779742240906
1761475692945672700,3.864672607421875,-0.22567318379878998,-0.3775554299354553,0.3923780024051666
1761475692955649500,3.8746494140625,-0.22077272832393646,-0.3783864676952362,0.3821070194244385
1761475692965626600,3.884626708984375,-0.2105879932641983,-0.40063852071762085,0.31834936141967773
1761475692975603500,3.894603515625,-0.20114031434059143,-0.4166363477706909,0.21910379827022552
1761475692985580800,3.904580810546875,-0.18776671588420868,-0.3768226206302643,0.11115709692239761
1761475692995557600,3.9145576171875,-0.1441245824098587,-0.2406662255525589,0.0165322907269001
1761475693005535500,3.924535400390625,-0.04651839658617973,-0.0356675386428833,-0.036223333328962326
1761475693015512800,3.934512939453125,0.092702217400074,0.1762741059064865,-0.07154454290866852
1761475693025489700,3.94448974609375,0.23777127265930176,0.30862072110176086,-0.0905483290553093
1761475693035466800,3.954466796875,0.3503890335559845,0.3286406993865967,-0.09139475971460342
1761475693045443600,3.964443603515625,0.42781856656074524,0.2552487850189209,-0.0737084448337555
1761475693055420700,3.974420654296875,0.48723486065864563,0.15480951964855194,-0.019534286111593246
1761475693065397800,3.984397705078125,0.5292078852653503,0.0464383028447628,0.07377834618091583
1761475693075374600,3.99437451171875,0.5689164996147156,-0.0709427073597908,0.20623551309108734
1761475693085351700,4.0043515625,0.6076990365982056,-0.15588688850402832,0.38042116165161133
1761475693095328500,4.01432861328125,0.634362518787384,-0.17892567813396454,0.5900112986564636
1761475693105306600,4.024306640625,0.6465587019920349,-0.16336029767990112,0.7882700562477112
1761475693115283700,4.03428369140625,0.6278670430183411,-0.23372144997119904,0.9350070953369141
1761475693125261000,4.044260986328125,0.553299069404602,-0.3871440291404724,1.0078139305114746
1761475693135238100,4.054238037109375,0.3985067307949066,-0.5971217155456543,0.9810248613357544
1761475693145215000,4.064215087890625,0.20005622506141663,-0.8572118878364563,0.8650769591331482
1761475693155192000,4.074192138671875,-0.002425754675641656,-1.0997352600097656,0.6837507486343384
1761475693165169200,4.084169189453125,-0.16566739976406097,-1.295609951019287,0.5105528831481934
1761475693175146000,4.09414599609375,-0.30252060294151306,-1.2504692077636719,0.36846259236335754
1761475693185123300,4.104123291015625,-0.39160946011543274,-1.0873082876205444,0.2804009020328522
1761475693195100200,4.11410009765625,-0.3922191858291626,-0.8285898566246033,0.2503715753555298
1761475693205078000,4.124078125,-0.312879353761673,-0.4727281332015991,0.26567116379737854
1761475693215055000,4.13405517578125,-0.17848517000675201,-0.11007977277040482,0.3003005385398865
1761475693225032200,4.1440322265625,-0.013118846341967583,0.22344359755516052,0.35372674465179443
1761475693235009300,4.15400927734375,0.1427144557237625,0.6114569306373596,0.42041757702827454
1761475693244986000,4.163986083984375,0.2568463385105133,0.9721648097038269,0.48255470395088196
1761475693254963200,4.173963134765625,0.31667622923851013,1.195227026939392,0.5136037468910217
1761475693264940000,4.18393994140625,0.3526422083377838,1.2678275108337402,0.5081267356872559
1761475693274917000,4.193917236328125,0.36488738656044006,1.2483967542648315,0.48500367999076843
1761475693284894200,4.203894287109375,0.3615347445011139,1.1923973560333252,0.44978922605514526
1761475693294871000,4.21387109375,0.3791073262691498,1.0638713836669922,0.4226790964603424
1761475693304849200,4.22384912109375,0.383164644241333,0.9026710987091064,0.38794881105422974
1761475693314826200,4.233826171875,0.32586607336997986,0.7579978704452515,0.33583569526672363
1761475693324803000,4.243802978515625,0.23791760206222534,0.5635899901390076,0.26708513498306274
1761475693334780200,4.2537802734375,0.1654743105173111,0.3409145772457123,0.2020886242389679
1761475693344757000,4.263757080078125,0.07035898417234421,0.08126408606767654,0.12588094174861908
1761475693354734000,4.273734130859375,-0.03845244646072388,-0.14340806007385254,0.04323921725153923
1761475693364711200,4.283711181640625,-0.10065403580665588,-0.2509792745113373,-0.027268506586551666
1761475693374688300,4.293688232421875,-0.09213608503341675,-0.30094826221466064,-0.09360640496015549
1761475693384665300,4.303665283203125,-0.027428196743130684,-0.3566490709781647,-0.15837980806827545
1761475693394642200,4.31364208984375,0.048586633056402206,-0.304361492395401,-0.22395777702331543
1761475693404620300,4.323620361328125,0.10268981009721756,-0.169035866856575,-0.3056369423866272
1761475693414597000,4.33359716796875,0.13169239461421967,-0.03953104093670845,-0.4146202504634857
1761475693424574200,4.34357421875,0.16125242412090302,0.07115419954061508,-0.5459380745887756
1761475693434551300,4.35355126953125,0.2036532312631607,0.1459593027830124,-0.6706442832946777
1761475693444528000,4.363528076171875,0.2752579152584076,0.22143489122390747,-0.7697333097457886
1761475693454505200,4.373505126953125,0.35720905661582947,0.24731723964214325,-0.8340644836425781
1761475693464482000,4.38348193359375,0.4416307210922241,0.22083716094493866,-0.8694477677345276
1761475693474459100,4.393459228515625,0.5084154605865479,0.1737402230501175,-0.8624188303947449
1761475693484437200,4.403437255859375,0.541590690612793,0.12013398855924606,-0.8313516974449158
1761475693494414000,4.4134140625,0.5369473695755005,0.0947435200214386,-0.7789977788925171
1761475693504391200,4.42339111328125,0.4986008107662201,0.10025333613157272,-0.7045081257820129
1761475693514368000,4.433367919921875,0.448106974363327,0.08699904382228851,-0.6291812658309937
1761475693524345000,4.443344970703125,0.4013594388961792,0.058794837445020676,-0.5513706207275391
1761475693534322000,4.453322021484375,0.3629476726055145,-0.009730106219649315,-0.4712679982185364
1761475693544299000,4.463299072265625,0.34181761741638184,-0.06375232338905334,-0.3808760344982147
1761475693554276400,4.4732763671875,0.32953834533691406,-0.112674281001091,-0.29624027013778687
1761475693564253200,4.483253173828125,0.3178420066833496,-0.14890311658382416,-0.22979016602039337
1761475693574230300,4.493230224609375,0.30141642689704895,-0.18264947831630707,-0.16674236953258514
1761475693584208100,4.5032080078125,0.2777968645095825,-0.21025553345680237,-0.1264500766992569
1761475693594185200,4.513185302734375,0.23979878425598145,-0.23447288572788239,-0.10345286875963211
1761475693604162300,4.523162353515625,0.18379542231559753,-0.2570141553878784,-0.0994298905134201
1761475693614139100,4.53313916015625,0.12211376428604126,-0.25580814480781555,-0.1010792925953865
1761475693624116200,4.5431162109375,0.04753459617495537,-0.2241772562265396,-0.10152457654476166
1761475693634093000,4.553093017578125,-0.017166532576084137,-0.14629310369491577,-0.09006685763597488
1761475693644070100,4.563070068359375,-0.06271723657846451,-0.054761067032814026,-0.06832161545753479
1761475693654047200,4.573047119140625,-0.08073943853378296,0.028563858941197395,-0.029776964336633682
1761475693664024000,4.583024169921875,-0.0768863782286644,0.05452408641576767,0.02221965789794922
1761475693674001200,4.593001220703125,-0.05580523610115051,0.031369078904390335,0.08235998451709747
1761475693683979000,4.60297900390625,-0.03984464704990387,0.005853063426911831,0.1577783077955246
1761475693693956000,4.6129560546875,-0.024858860298991203,0.009414665400981903,0.24339625239372253
1761475693703933200,4.62293310546875,-0.01736712083220482,0.002498436253517866,0.3319205343723297
1761475693713910000,4.632909912109375,-0.01765039935708046,-0.019355997443199158,0.424929141998291
1761475693723887000,4.64288720703125,-0.038035035133361816,-0.036851633340120316,0.5261250138282776
1761475693733864200,4.6528642578125,-0.06511351466178894,-0.04853907227516174,0.6192023754119873
1761475693743841300,4.66284130859375,-0.08843348920345306,-0.03961508348584175,0.7099168300628662
1761475693753818000,4.672818115234375,-0.10145165026187897,-0.062157414853572845,0.7803630828857422
1761475693763795200,4.682795166015625,-0.11226408928632736,-0.14309433102607727,0.7972959876060486
1761475693773772300,4.692772216796875,-0.14564268290996552,-0.30186858773231506,0.7470781207084656
1761475693783750100,4.702750244140625,-0.19115690886974335,-0.4667893648147583,0.650737464427948
1761475693793727200,4.712727294921875,-0.26543885469436646,-0.6048736572265625,0.5136764049530029
1761475693803704000,4.7227041015625,-0.35775306820869446,-0.7164291739463806,0.33899280428886414
1761475693813681200,4.73268115234375,-0.4599013924598694,-0.7877493500709534,0.15003933012485504
1761475693823658200,4.742658203125,-0.5524561405181885,-0.788965106010437,-0.0241300780326128
1761475693833635000,4.752635009765625,-0.6322590112686157,-0.6110506653785706,-0.1672254204750061
1761475693843612200,4.762612060546875,-0.6790896058082581,-0.3242998719215393,-0.25935986638069153
1761475693853589000,4.772589111328125,-0.6585054397583008,-0.06132826954126358,-0.32722190022468567
1761475693863566000,4.782566162109375,-0.5699958205223083,0.16378021240234375,-0.3537387251853943
1761475693873543000,4.79254296875,-0.4511132538318634,0.36200469732284546,-0.3388587534427643
1761475693883521000,4.80252099609375,-0.3193773329257965,0.5352038741111755,-0.2843036353588104
1761475693893498000,4.812498046875,-0.20912688970565796,0.6621389389038086,-0.19324378669261932
1761475693903475000,4.822474853515625,-0.11715541779994965,0.7968075275421143,-0.09205564856529236
1761475693913452000,4.8324521484375,-0.045090723782777786,0.7752299308776855,-0.0013843128690496087
1761475693923429400,4.842429443359375,0.003443254390731454,0.6428673267364502,0.07141079753637314
1761475693933406200,4.85240625,0.02139197662472725,0.4526585340499878,0.13599471747875214
1761475693943383300,4.86238330078125,0.021561887115240097,0.24267759919166565,0.19597361981868744
1761475693953360100,4.872360107421875,-0.016050666570663452,0.06059109419584274,0.2692928910255432
1761475693963337200,4.882337158203125,-0.06981668621301651,-0.05081213265657425,0.341298907995224
1761475693973314000,4.89231396484375,-0.13229721784591675,-0.14574770629405975,0.421246200799942
1761475693983292200,4.902292236328125,-0.20680367946624756,-0.2368728220462799,0.4819819927215576
1761475693993269200,4.912269287109375,-0.2804642617702484,-0.30434566736221313,0.5116617679595947
1761475694003246000,4.92224609375,-0.35595422983169556,-0.3235587775707245,0.5143609046936035
1761475694013223200,4.93222314453125,-0.4306088984012604,-0.3289494812488556,0.4776093661785126
1761475694023200000,4.942199951171875,-0.5108733773231506,-0.3120999336242676,0.40088316798210144
1761475694033177000,4.952177001953125,-0.6022324562072754,-0.22981853783130646,0.2427578717470169
1761475694043154200,4.962154296875,-0.6776677966117859,-0.1890769600868225,0.030071161687374115
1761475694053131000,4.972131103515625,-0.6988731622695923,-0.17657986283302307,-0.22356410324573517
1761475694063108000,4.982108154296875,-0.668929934501648,-0.19375059008598328,-0.4638526141643524
1761475694073086000,4.9920859375,-0.6060529947280884,-0.1327868402004242,-0.6762110590934753
1761475694083063000,5.00206298828125,-0.5327423214912415,-0.027794914320111275,-0.8459615111351013
1761475694093040000,5.0120400390625,-0.4383217394351959,0.09585416316986084,-0.9506794810295105
1761475694103017200,5.022017333984375,-0.3148331046104431,0.25675302743911743,-0.9848918318748474
1761475694112994300,5.031994384765625,-0.16631180047988892,0.3856280744075775,-0.9520971179008484
1761475694122971400,5.041971435546875,-0.03536496311426163,0.4839054048061371,-0.8570510149002075
1761475694132948200,5.0519482421875,0.06040966510772705,0.5228007435798645,-0.7304785847663879
1761475694142925300,5.06192529296875,0.12585897743701935,0.5057090520858765,-0.5954357981681824
1761475694152902400,5.07190234375,0.17404626309871674,0.4120722711086273,-0.4508610963821411
1761475694162879200,5.081879150390625,0.21049508452415466,0.26500239968299866,-0.2965935170650482
1761475694172857300,5.091857421875,0.22206880152225494,0.12460527569055557,-0.13807372748851776
1761475694182834200,5.101834228515625,0.194549560546875,0.02981884963810444,0.010086188092827797
1761475694192811300,5.111811279296875,0.1521209478378296,-0.018100103363394737,0.15636073052883148
1761475694202788400,5.121788330078125,0.10062552988529205,-0.04484010115265846,0.26644784212112427
1761475694212765200,5.13176513671875,0.05880090221762657,-0.059734150767326355,0.3413928151130676
1761475694222742300,5.1417421875,0.009975037537515163,-0.07390163838863373,0.3686803877353668
1761475694232719000,5.151718994140625,-0.04497925564646721,-0.088199183344841,0.3335331380367279
1761475694242696200,5.1616962890625,-0.10814863443374634,-0.10191553086042404,0.25448518991470337
1761475694252673000,5.171673095703125,-0.15035590529441833,-0.07349448651075363,0.15100228786468506
1761475694262650400,5.181650390625,-0.12249843031167984,-0.01699472963809967,0.0523042157292366
1761475694272628200,5.191628173828125,-0.044761039316654205,0.0771648958325386,-0.03635638579726219
1761475694282605000,5.20160498046875,0.06298273056745529,0.20384427905082703,-0.10928758233785629
1761475694292582400,5.21158251953125,0.1859690397977829,0.3276159167289734,-0.16564396023750305
1761475694302559500,5.2215595703125,0.2986210286617279,0.3800245523452759,-0.2118556648492813
1761475694312536300,5.231536376953125,0.3903171718120575,0.3754226863384247,-0.23558001220226288
1761475694322513400,5.241513427734375,0.458116739988327,0.3444756865501404,-0.21683108806610107
1761475694332490200,5.251490234375,0.512682318687439,0.3026728332042694,-0.14555864036083221
1761475694342467300,5.26146728515625,0.559693455696106,0.30532217025756836,-0.030702892690896988
1761475694352444200,5.271444091796875,0.6118634939193726,0.308422714471817,0.10499211400747299
1761475694362421200,5.281421142578125,0.6427345871925354,0.17080041766166687,0.19997535645961761
1761475694372399400,5.2913994140625,0.5936339497566223,-0.18940746784210205,0.22843246161937714
1761475694382376200,5.301376220703125,0.45018306374549866,-0.5513614416122437,0.21364232897758484
1761475694392353300,5.311353271484375,0.25853052735328674,-0.7577136754989624,0.20142389833927155
1761475694402330000,5.321330078125,0.10383282601833344,-0.8032742142677307,0.2142888307571411
1761475694412307200,5.33130712890625,0.0069895037449896336,-0.6977022886276245,0.25918418169021606
1761475694422284300,5.3412841796875,-0.030859874561429024,-0.447017639875412,0.32850441336631775
1761475694432261000,5.35126123046875,0.00012465676991268992,-0.12712740898132324,0.3856300413608551
1761475694442238200,5.36123828125,0.08265016227960587,0.16777320206165314,0.40375497937202454
1761475694452215300,5.37121533203125,0.20172269642353058,0.3268496096134186,0.3766486942768097
1761475694462193200,5.381193115234375,0.30212706327438354,0.3374796211719513,0.316175252199173
1761475694472170200,5.391170166015625,0.3682990074157715,0.28897953033447266,0.24572420120239258
1761475694482147300,5.401147216796875,0.40735000371932983,0.2575867176055908,0.19749435782432556
1761475694492124400,5.41112451171875,0.43178245425224304,0.2541477084159851,0.1788305789232254
1761475694502101200,5.421101318359375,0.441458523273468,0.28076520562171936,0.1947472244501114
1761475694512078300,5.431078369140625,0.4490174949169159,0.33725038170814514,0.2305857241153717
1761475694522055200,5.44105517578125,0.4454355239868164,0.3665318191051483,0.2640635371208191
1761475694532032300,5.4510322265625,0.430472731590271,0.3415226340293884,0.28293028473854065
1761475694542009300,5.46100927734375,0.3940255045890808,0.24418914318084717,0.2850554883480072
1761475694551986200,5.470986083984375,0.3398873805999756,0.13692606985569,0.27027627825737
1761475694561964300,5.48096435546875,0.26808324456214905,-0.017672287300229073,0.23474065959453583
1761475694571941400,5.49094140625,0.19670623540878296,-0.17977890372276306,0.19703815877437592
1761475694581918200,5.500918212890625,0.14735068380832672,-0.26906776428222656,0.1646924614906311
1761475694591895300,5.510895263671875,0.1189744770526886,-0.2822994887828827,0.14630965888500214
1761475694601872100,5.5208720703125,0.12502571940422058,-0.2606258690357208,0.12064742296934128
1761475694611849200,5.53084912109375,0.13874134421348572,-0.22572822868824005,0.07620728015899658
1761475694621826000,5.540825927734375,0.16349808871746063,-0.19401797652244568,-0.005077984184026718
1761475694631803400,5.550803466796875,0.1788310706615448,-0.18677614629268646,-0.11870431154966354
1761475694641780500,5.560780517578125,0.21436083316802979,-0.13922648131847382,-0.25817832350730896
1761475694651758000,5.570758056640625,0.2577548027038574,-0.1094343289732933,-0.3852372169494629
1761475694661735400,5.5807353515625,0.31843894720077515,-0.0344676747918129,-0.5184437036514282
1761475694671712300,5.590712158203125,0.38854891061782837,-0.012262079864740372,-0.6433913111686707
1761475694681689300,5.600689453125,0.4707218110561371,0.08549004793167114,-0.738787055015564
1761475694691666400,5.61066650390625,0.5521158576011658,0.18091115355491638,-0.8025075197219849
1761475694701643300,5.620643310546875,0.6248468160629272,0.3295978605747223,-0.844633162021637
1761475694711620400,5.630620361328125,0.6782760620117188,0.4426862597465515,-0.8638690710067749
1761475694721597200,5.64059716796875,0.7169787287712097,0.5163550972938538,-0.8614157438278198
1761475694731574300,5.65057421875,0.7319469451904297,0.541196882724762,-0.8391658663749695
1761475694741551000,5.660551025390625,0.7159735560417175,0.4920130670070648,-0.8027410507202148
1761475694751529200,5.670529296875,0.6963152885437012,0.4234273433685303,-0.744646430015564
1761475694761506300,5.68050634765625,0.6862325668334961,0.35374653339385986,-0.6637734174728394
1761475694771483100,5.690483154296875,0.6822490692138672,0.22635842859745026,-0.5688871741294861
1761475694781460200,5.700460205078125,0.6581061482429504,0.14895765483379364,-0.45410335063934326
1761475694791437000,5.71043701171875,0.6260243058204651,0.06715162843465805,-0.33222487568855286
1761475694801414100,5.7204140625,0.5676100254058838,-0.01432885229587555,-0.2232842743396759
1761475694811391200,5.73039111328125,0.4940612018108368,-0.09477031975984573,-0.11908500641584396
1761475694821368300,5.740368408203125,0.4127200245857239,-0.15155796706676483,-0.03626655414700508
1761475694831345400,5.750345458984375,0.3396622836589813,-0.23562118411064148,0.01779920794069767
1761475694841322200,5.760322265625,0.2706747055053711,-0.31746146082878113,0.056148461997509
1761475694851300400,5.77030029296875,0.20218347012996674,-0.3572993576526642,0.061988458037376404
1761475694861277400,5.78027734375,0.14952345192432404,-0.3466683030128479,0.07205627113580704
1761475694871254300,5.790254150390625,0.13268162310123444,-0.2699543237686157,0.07589534670114517
1761475694881231400,5.8002314453125,0.13734163343906403,-0.1816662847995758,0.07487829029560089
1761475694891208200,5.810208251953125,0.14398781955242157,-0.09098166227340698,0.06408556550741196
1761475694901185300,5.820185302734375,0.14246715605258942,-0.014128422364592552,0.052149537950754166
1761475694911162400,5.830162353515625,0.13417217135429382,0.011880222707986832,0.046750832349061966
1761475694921139200,5.84013916015625,0.10748756676912308,-0.004659072961658239,0.04991360381245613
1761475694931116300,5.8501162109375,0.07338441908359528,-0.04465911537408829,0.07358872890472412
1761475694941094100,5.86009423828125,0.018544072285294533,-0.09213316440582275,0.11989285051822662
1761475694951071200,5.8700712890625,-0.046645697206258774,-0.14731790125370026,0.1893613189458847
1761475694961048300,5.88004833984375,-0.11622663587331772,-0.2037699967622757,0.26827290654182434
1761475694971025200,5.890025146484375,-0.17308270931243896,-0.26141396164894104,0.34558340907096863
1761475694981002200,5.900002197265625,-0.21761448681354523,-0.31557974219322205,0.4181113839149475
1761475694990979000,5.90997900390625,-0.2401411235332489,-0.34574469923973083,0.4914146363735199
1761475695000956400,5.919956298828125,-0.24232837557792664,-0.3030047118663788,0.574744701385498
1761475695010933200,5.929933349609375,-0.22966139018535614,-0.24684540927410126,0.6630344986915588
1761475695020910300,5.939910400390625,-0.21440520882606506,-0.24236543476581573,0.7364487648010254
1761475695030887400,5.949887451171875,-0.2212405800819397,-0.2910241186618805,0.7520332336425781
1761475695040865300,5.959865234375,-0.27104222774505615,-0.38046663999557495,0.7051783800125122
1761475695050842400,5.96984228515625,-0.35462337732315063,-0.4824599027633667,0.6178603172302246
1761475695060819200,5.979819091796875,-0.4742818772792816,-0.5571370720863342,0.4988255202770233
1761475695070796300,5.98979638671875,-0.6412806510925293,-0.6291084289550781,0.3227011561393738
1761475695080773400,5.9997734375,-0.8036631345748901,-0.7063073515892029,0.12958045303821564
1761475695090750200,6.009750244140625,-0.9318750500679016,-0.6419471502304077,-0.03603539243340492
1761475695100727300,6.019727294921875,-0.9728246331214905,-0.4983114004135132,-0.15371382236480713
1761475695110704000,6.0297041015625,-0.9177960753440857,-0.290479451417923,-0.21389295160770416
1761475695120681500,6.039681396484375,-0.7756050825119019,0.02310405857861042,-0.21937347948551178
1761475695130659600,6.04965966796875,-0.5872939229011536,0.33802470564842224,-0.18784977495670319
1761475695140636700,6.05963671875,-0.3632885217666626,0.5981687307357788,-0.1290101557970047
1761475695150613500,6.069613525390625,-0.16512085497379303,0.7552264332771301,-0.06418969482183456
1761475695160590600,6.079590576171875,-0.022251319140195847,0.7824239730834961,-0.016825906932353973
1761475695170567400,6.0895673828125,0.05093879997730255,0.6649943590164185,-0.001833748072385788
1761475695180544500,6.09954443359375,0.07526517659425735,0.503782331943512,0.008857778273522854
1761475695190521600,6.109521484375,0.06532613188028336,0.3370499908924103,0.0356052927672863
1761475695200498700,6.119498779296875,0.059279151260852814,0.2023925930261612,0.07810747623443604
1761475695210475800,6.129475830078125,0.04436052590608597,0.05640694499015808,0.1403457522392273
1761475695220452600,6.13945263671875,0.011042785830795765,-0.07672873884439468,0.20989979803562164
1761475695230430700,6.1494306640625,-0.049064893275499344,-0.17981353402137756,0.27295756340026855
1761475695240407800,6.15940771484375,-0.11947114020586014,-0.25662732124328613,0.30915844440460205
1761475695250384600,6.169384521484375,-0.17275869846343994,-0.30967843532562256,0.3241104483604431
1761475695260361700,6.17936181640625,-0.22802381217479706,-0.3411354124546051,0.2821912467479706
1761475695270338600,6.189338623046875,-0.27468401193618774,-0.3690442144870758,0.1966412514448166
1761475695280315600,6.199315673828125,-0.3345002233982086,-0.34704890847206116,0.060038674622774124
1761475695290292500,6.20929248046875,-0.40247270464897156,-0.3015395998954773,-0.12499525398015976
1761475695300269600,6.21926953125,-0.46635502576828003,-0.24994084239006042,-0.33073297142982483
1761475695310246700,6.22924658203125,-0.484562486410141,-0.19288617372512817,-0.532858669757843
1761475695320223500,6.239223388671875,-0.45167243480682373,-0.07989571243524551,-0.7030543684959412
1761475695330201600,6.24920166015625,-0.38889217376708984,0.09474053233861923,-0.8277857303619385
1761475695340178400,6.259178466796875,-0.2866891026496887,0.2953527271747589,-0.8882378935813904
1761475695350155500,6.269155517578125,-0.1625087857246399,0.4799860417842865,-0.8925521969795227
1761475695360132600,6.279132568359375,-0.0208914615213871,0.6161497235298157,-0.8508710861206055
1761475695370109400,6.289109375,0.10975570976734161,0.6645777225494385,-0.7669779062271118
1761475695380086800,6.299086669921875,0.19769862294197083,0.6411752104759216,-0.659214973449707
1761475695390063600,6.309063720703125,0.24742212891578674,0.6258641481399536,-0.5351350903511047
1761475695400040700,6.319040771484375,0.26842862367630005,0.5390933156013489,-0.40152886509895325
1761475695410017500,6.329017578125,0.2685645520687103,0.41575226187705994,-0.2681904137134552
1761475695419995600,6.33899560546875,0.241692453622818,0.2569010853767395,-0.12776672840118408
1761475695429972700,6.34897265625,0.19174112379550934,0.07804437726736069,0.018081318587064743
1761475695439949600,6.358949462890625,0.12786918878555298,-0.050198543816804886,0.17046259343624115
1761475695449926700,6.3689267578125,0.07265765964984894,-0.15835435688495636,0.31667059659957886
1761475695459903700,6.37890380859375,0.03312622755765915,-0.25029173493385315,0.43593892455101013
1761475695469880600,6.388880615234375,0.004402356222271919,-0.30366602540016174,0.5118021368980408
1761475695479857700,6.398857666015625,-0.013464258052408695,-0.33914732933044434,0.543103039264679
1761475695489834500,6.40883447265625,-0.0442318394780159,-0.34317001700401306,0.5261058807373047
1761475695499811600,6.4188115234375,-0.09475227445363998,-0.3027919828891754,0.4594269394874573
1761475695509788400,6.428788330078125,-0.14314107596874237,-0.23188337683677673,0.36147555708885193
1761475695519766500,6.4387666015625,-0.15298624336719513,-0.09005727618932724,0.2585872411727905
1761475695529743600,6.44874365234375,-0.11314133554697037,0.0548110157251358,0.17743802070617676
1761475695539720400,6.458720458984375,-0.030733808875083923,0.18482841551303864,0.09422357380390167
1761475695549697500,6.468697509765625,0.06710656732320786,0.2407592087984085,0.023850711062550545
1761475695559674600,6.478674560546875,0.16485096514225006,0.23991365730762482,-0.023281380534172058
1761475695569651700,6.488651611328125,0.25045228004455566,0.21887324750423431,-0.03516256809234619
1761475695579628800,6.49862890625,0.32382556796073914,0.16950276494026184,-0.010249762795865536
1761475695589605600,6.508605712890625,0.3801560401916504,0.13006895780563354,0.05995499715209007
1761475695599582700,6.518582763671875,0.42041558027267456,0.13328179717063904,0.17216382920742035
1761475695609560600,6.528560546875,0.4536955952644348,0.18505217134952545,0.3152562975883484
1761475695619537700,6.53853759765625,0.49352237582206726,0.286990761756897,0.49408942461013794
1761475695629514800,6.5485146484375,0.5436475872993469,0.3446710705757141,0.6724686622619629
1761475695639491600,6.55849169921875,0.5737413167953491,0.27233296632766724,0.79558926820755
1761475695649468700,6.56846875,0.5824015736579895,0.13680948317050934,0.848857581615448
1761475695659445500,6.578445556640625,0.5639567971229553,-0.11390557140111923,0.8387207984924316
1761475695669422600,6.588422607421875,0.4992603659629822,-0.4805235266685486,0.7557090520858765
1761475695679399400,6.5983994140625,0.3605829179286957,-0.8871893286705017,0.6181871294975281
1761475695689376500,6.60837646484375,0.20642083883285522,-1.1417728662490845,0.49831584095954895
1761475695699353600,6.618353515625,0.07667296379804611,-1.1997627019882202,0.4387177526950836
1761475695709331500,6.62833154296875,-0.021780094131827354,-1.0492901802062988,0.4310387670993805
1761475695719308500,6.63830859375,-0.07957468181848526,-0.7693660855293274,0.4560050964355469
1761475695729285600,6.64828564453125,-0.10609781742095947,-0.3271535634994507,0.5008653998374939
1761475695739262500,6.658262451171875,-0.046372707933187485,0.16566148400306702,0.5467686653137207
1761475695749239800,6.66823974609375,0.10242210328578949,0.6086426377296448,0.5687738656997681
1761475695759216600,6.678216552734375,0.26113584637641907,0.9331368207931519,0.5429283976554871
1761475695769193700,6.68819384765625,0.36197274923324585,1.0818123817443848,0.4450565576553345
1761475695779170600,6.698170654296875,0.41381409764289856,1.0990071296691895,0.3000383675098419
1761475695789147600,6.708147705078125,0.43487349152565,1.0465751886367798,0.1399819552898407
1761475695799125800,6.718125732421875,0.4578070342540741,0.9104010462760925,-0.012367903254926205
1761475695809102600,6.7281025390625,0.4798250198364258,0.7367346286773682,-0.14447151124477386
1761475695819079700,6.73807958984375,0.4538581371307373,0.5661450624465942,-0.2816999554634094
1761475695829056500,6.748056396484375,0.38037070631980896,0.39654698967933655,-0.3918363153934479
1761475695839033600,6.75803369140625,0.29630085825920105,0.19958892464637756,-0.47250133752822876
1761475695849010700,6.7680107421875,0.2074265480041504,0.04695544019341469,-0.5295847058296204
1761475695858987500,6.777987548828125,0.14127682149410248,-0.059276990592479706,-0.5653704404830933
1761475695868964600,6.787964599609375,0.10721661895513535,-0.11880162358283997,-0.5818319320678711
1761475695878941400,6.79794140625,0.11464763432741165,-0.11758003383874893,-0.5824061036109924
1761475695888918500,6.80791845703125,0.1577235460281372,-0.04494369775056839,-0.5593376755714417
1761475695898896600,6.817896728515625,0.23160149157047272,0.11913392692804337,-0.5333771705627441
1761475695908873500,6.82787353515625,0.30812475085258484,0.2431086003780365,-0.5194527506828308
1761475695918850600,6.8378505859375,0.3708485960960388,0.3491646945476532,-0.5290217399597168
1761475695928827600,6.84782763671875,0.4082440137863159,0.39956629276275635,-0.577184796333313
1761475695938804700,6.8578046875,0.4193539321422577,0.3341188430786133,-0.658923864364624
1761475695948781600,6.867781494140625,0.42692267894744873,0.20428982377052307,-0.7476181387901306
1761475695958758700,6.877758544921875,0.45973309874534607,0.10336720198392868,-0.8036414980888367
1761475695968735700,6.88773583984375,0.4938560426235199,0.04135981574654579,-0.8369540572166443
1761475695978712600,6.897712646484375,0.5114328861236572,-0.020235639065504074,-0.8355250358581543
1761475695988690700,6.907690673828125,0.5278804302215576,-0.00942650530487299,-0.7905468940734863
1761475695998667800,6.917667724609375,0.5427360534667969,0.05299905687570572,-0.703894317150116
1761475696008644600,6.92764453125,0.5650957226753235,0.10990457981824875,-0.5948189496994019
1761475696018621700,6.93762158203125,0.5835703015327454,0.14008139073848724,-0.4503382444381714
1761475696028598500,6.9475986328125,0.6006889939308167,0.14614705741405487,-0.30221474170684814
1761475696038575600,6.95757568359375,0.6022210717201233,0.10255350172519684,-0.17528392374515533
1761475696048552400,6.967552490234375,0.5821599364280701,0.040108080953359604,-0.06843415647745132
1761475696058529500,6.977529541015625,0.5449331998825073,-0.07202618569135666,0.000741716125048697
1761475696068506600,6.987506591796875,0.4918237030506134,-0.2061624675989151,0.04940251260995865
1761475696078483500,6.9974833984375,0.4202408790588379,-0.3070429861545563,0.08503268659114838
1761475696088461600,7.007461669921875,0.33252403140068054,-0.3326200544834137,0.11869282275438309
1761475696098438400,7.0174384765625,0.2290746122598648,-0.2947821319103241,0.1474272608757019
1761475696108415500,7.02741552734375,0.13148251175880432,-0.2376345843076706,0.15928435325622559
1761475696118392800,7.037392822265625,0.03868093341588974,-0.1667441725730896,0.13872873783111572
1761475696128369700,7.04736962890625,-0.03989912569522858,-0.10239506512880325,0.09739547222852707
1761475696138346500,7.057346435546875,-0.09261666983366013,-0.030245501548051834,0.052476733922958374
1761475696148323600,7.067323486328125,-0.11493613570928574,0.05584416538476944,0.012928339652717113
1761475696158300400,7.077300537109375,-0.12439461797475815,0.1223616749048233,-0.0022604663390666246
1761475696168277500,7.087277587890625,-0.1277935951948166,0.1423427313566208,-0.005216867662966251
1761475696178255600,7.097255615234375,-0.12386836111545563,0.12066726386547089,0.016884172335267067
1761475696188232400,7.107232421875,-0.1165529415011406,0.07262687385082245,0.06482988595962524
1761475696198209500,7.11720947265625,-0.12374667078256607,0.01516357995569706,0.1381874531507492
1761475696208186600,7.1271865234375,-0.15076597034931183,-0.01763516291975975,0.24297519028186798
1761475696218163500,7.13716357421875,-0.1799776554107666,-0.023136721923947334,0.3692502975463867
1761475696228140500,7.147140625,-0.19135399162769318,-0.008427978493273258,0.5116617679595947
1761475696238117400,7.157117431640625,-0.18723168969154358,-0.03903355821967125,0.6401801109313965
1761475696248094500,7.167094482421875,-0.1902899593114853,-0.12078046053647995,0.7149585485458374
1761475696258071300,7.1770712890625,-0.22764265537261963,-0.3193758726119995,0.7115390300750732
1761475696268049400,7.18704931640625,-0.2914954125881195,-0.5158741474151611,0.6534128785133362
1761475696278026500,7.197026611328125,-0.4143845736980438,-0.6971443295478821,0.5231789946556091
1761475696288003300,7.20700341796875,-0.6112106442451477,-0.8073446154594421,0.296877384185791
1761475696297980700,7.216980712890625,-0.8199234008789062,-0.9083940386772156,-0.01687443070113659
1761475696307957500,7.22695751953125,-0.9556828141212463,-0.9630098342895508,-0.3309067189693451
1761475696317934600,7.2369345703125,-1.0118783712387085,-0.7731280326843262,-0.5915585160255432
1761475696327911700,7.24691162109375,-1.0006623268127441,-0.420278400182724,-0.7768349647521973
1761475696337888500,7.256888427734375,-0.9252341985702515,-0.07790932059288025,-0.9125352501869202
1761475696347865600,7.266865478515625,-0.781888484954834,0.2592191696166992,-0.9854553937911987
1761475696357842400,7.276842529296875,-0.5728811621665955,0.5663309097290039,-0.9778110384941101
1761475696367820500,7.286820556640625,-0.33321523666381836,0.8136682510375977,-0.8914265036582947
1761475696377797600,7.296797607421875,-0.11461767554283142,0.9508434534072876,-0.7273227572441101
1761475696387774500,7.3067744140625,0.014130720868706703,0.9807520508766174,-0.5394745469093323
1761475696397751600,7.31675146484375,0.08014355599880219,0.8529557585716248,-0.3402450680732727
1761475696407728400,7.326728271484375,0.09509960561990738,0.6765714287757874,-0.12086479365825653
1761475696417705500,7.33670556640625,0.07919041067361832,0.4845380485057831,0.10141407698392868
1761475696427682300,7.346682373046875,0.03736228495836258,0.267591655254364,0.32557857036590576
1761475696437659400,7.356659423828125,-0.029535789042711258,0.09925991296768188,0.5367014408111572
1761475696447636500,7.366636474609375,-0.13086113333702087,-0.07699127495288849,0.7058209180831909
1761475696457613600,7.376613525390625,-0.26592519879341125,-0.27758321166038513,0.8182191252708435
1761475696467591400,7.38659130859375,-0.39741823077201843,-0.44275081157684326,0.8744013905525208
1761475696477568500,7.396568603515625,-0.5022801756858826,-0.49332478642463684,0.8745808601379395
1761475696487545600,7.406545654296875,-0.5760738849639893,-0.49505430459976196,0.8146116137504578
1761475696497522700,7.416522705078125,-0.6222773194313049,-0.46430251002311707,0.7007332444190979
1761475696507499500,7.42649951171875,-0.6747881174087524,-0.375238299369812,0.49862879514694214
1761475696517476600,7.4364765625,-0.7285674810409546,-0.38453298807144165,0.20220990478992462
1761475696527453400,7.446453369140625,-0.7681309580802917,-0.42907580733299255,-0.12469726800918579
1761475696537430500,7.456430419921875,-0.7453632950782776,-0.410778284072876,-0.4380810260772705
1761475696547407600,7.46640771484375,-0.6826168298721313,-0.28086504340171814,-0.6904626488685608
1761475696557385500,7.476385498046875,-0.5948158502578735,-0.0809953361749649,-0.8657718896865845
1761475696567362600,7.486362548828125,-0.4989173710346222,0.16683311760425568,-0.9837639331817627
1761475696577339400,7.49633935546875,-0.41425520181655884,0.36521199345588684,-1.0513209104537964
1761475696587316500,7.50631640625,-0.32398858666419983,0.4656100273132324,-1.067471981048584
1761475696597293600,7.51629345703125,-0.2347620278596878,0.49434712529182434,-1.0274752378463745
1761475696607270400,7.5262705078125,-0.15024036169052124,0.4566194713115692,-0.9246846437454224
1761475696617247500,7.53624755859375,-0.08414337038993835,0.39454174041748047,-0.782900333404541
1761475696627224300,7.546224365234375,-0.04301304370164871,0.29788169264793396,-0.6133716106414795
1761475696637201700,7.55620166015625,-0.018670685589313507,0.16851863265037537,-0.4213925898075104
1761475696647178500,7.566178466796875,-0.02454470470547676,0.015962954610586166,-0.21270668506622314
1761475696657156400,7.57615625,-0.06179620325565338,-0.09688210487365723,0.003514838172122836
1761475696667133700,7.5861337890625,-0.11687823385000229,-0.15805843472480774,0.20412948727607727
1761475696677110500,7.596110595703125,-0.16860215365886688,-0.22203394770622253,0.3769225776195526
1761475696687087600,7.606087646484375,-0.20769280195236206,-0.2888484001159668,0.4978986382484436
1761475696697064400,7.616064453125,-0.24314506351947784,-0.33308109641075134,0.5441880822181702
1761475696707041500,7.62604150390625,-0.2781503200531006,-0.3970027565956116,0.5239537358283997
1761475696717018600,7.6360185546875,-0.3353435695171356,-0.4706050753593445,0.4370036721229553
1761475696726995500,7.645995361328125,-0.40865734219551086,-0.4856970012187958,0.30541202425956726
1761475696736972500,7.65597265625,-0.4606049358844757,-0.4295959174633026,0.1618114560842514
1761475696746950700,7.66595068359375,-0.4544128179550171,-0.27459216117858887,0.04604778438806534
1761475696756927500,7.675927490234375,-0.39867791533470154,-0.031509220600128174,-0.056394435465335846
1761475696766904600,7.685904541015625,-0.29218506813049316,0.1819009631872177,-0.13684603571891785
1761475696776881400,7.69588134765625,-0.15348924696445465,0.33980828523635864,-0.2027512788772583
1761475696786858500,7.7058583984375,-0.025187276303768158,0.4349324703216553,-0.2529439330101013
1761475696796835300,7.71583544921875,0.10089369863271713,0.45947375893592834,-0.2734510898590088
1761475696806812400,7.7258125,0.22288069128990173,0.3891471326351166,-0.25665000081062317
1761475696816789500,7.73578955078125,0.3116033673286438,0.274904727935791,-0.1935221403837204
1761475696826766600,7.7457666015625,0.3583966791629791,0.16094495356082916,-0.07951631397008896
1761475696836744400,7.755744384765625,0.3525417149066925,0.07577147334814072,0.05999363958835602
1761475696846721500,7.765721435546875,0.318448543548584,-0.021941496059298515,0.22691498696804047
1761475696856698600,7.77569873046875,0.2974300980567932,-0.050402432680130005,0.4404973089694977
1761475696866675700,7.78567578125,0.3003780245780945,0.01689830981194973,0.6740619540214539
1761475696876652500,7.795652587890625,0.30141451954841614,0.053326092660427094,0.8629120588302612
1761475696886629600,7.805629638671875,0.2777133882045746,-0.023967737331986427,0.9634041786193848
1761475696896606500,7.8156064453125,0.2158806473016739,-0.15981264412403107,0.976459801197052
1761475696906583600,7.82558349609375,0.12379269301891327,-0.33934301137924194,0.906308650970459
1761475696916560400,7.835560302734375,0.01904897578060627,-0.5062259435653687,0.7838197946548462
1761475696926537500,7.845537353515625,-0.08539971709251404,-0.6363235116004944,0.6154401302337646
1761475696936515600,7.855515625,-0.1569969356060028,-0.6854606866836548,0.4404848515987396
1761475696946492400,7.865492431640625,-0.21644671261310577,-0.6661056876182556,0.2716926634311676
1761475696956469500,7.875469482421875,-0.2661266624927521,-0.5433558225631714,0.13594096899032593
1761475696966446300,7.8854462890625,-0.29636651277542114,-0.3199670612812042,0.042588550597429276
1761475696976423400,7.89542333984375,-0.31201016902923584,-0.024370569735765457,-0.01822393201291561
1761475696986400500,7.905400390625,-0.2735804617404938,0.2445574700832367,-0.04076695442199707
1761475696996377300,7.91537744140625,-0.190903440117836,0.4892854690551758,-0.03446005657315254
1761475697006354700,7.925354736328125,-0.0916779637336731,0.6970263719558716,0.010489976964890957
1761475697016331500,7.93533154296875,0.028496908023953438,0.8653988838195801,0.08193140476942062
1761475697026309400,7.945309326171875,0.1470106542110443,0.9928756952285767,0.16529449820518494
1761475697036286700,7.95528662109375,0.21933864057064056,1.0142364501953125,0.21266573667526245
1761475697046263600,7.965263671875,0.24903762340545654,0.9324654936790466,0.2257089465856552
1761475697056240600,7.97524072265625,0.2522656321525574,0.7730804085731506,0.21541635692119598
1761475697066217500,7.985217529296875,0.21878507733345032,0.573387086391449,0.1860533058643341
1761475697076194600,7.995194580078125,0.1812068074941635,0.36503469944000244,0.1613764613866806
1761475697086171600,8.005171630859374,0.10540395975112915,0.18400558829307556,0.1326581984758377
1761475697096148500,8.0151484375,0.023771945387125015,-0.0029581659473478794,0.09805867820978165
1761475697106125600,8.02512548828125,-0.03898587450385094,-0.18932192027568817,0.056057434529066086
1761475697116102400,8.035102294921876,-0.05258903279900551,-0.33559656143188477,0.011216460727155209
1761475697126078700,8.04507861328125,-0.027778983116149902,-0.4475933015346527,-0.04897867515683174
1761475697136056600,8.055056640625,0.024576367810368538,-0.5468870997428894,-0.12863169610500336
1761475697146033700,8.06503369140625,0.06674680858850479,-0.6273645758628845,-0.22755983471870422
1761475697156010800,8.0750107421875,0.10210586339235306,-0.5773671865463257,-0.3290340006351471
1761475697165987800,8.08498779296875,0.13355658948421478,-0.43673837184906006,-0.42133828997612
1761475697175965000,8.09496484375,0.17848330736160278,-0.214588925242424,-0.497738242149353
1761475697185941800,8.104941650390625,0.24580079317092896,0.04672608897089958,-0.5688517689704895
1761475697195918800,8.1149189453125,0.3281627595424652,0.26848670840263367,-0.6423014402389526
1761475697205895700,8.124895751953124,0.41401922702789307,0.42203664779663086,-0.7293890714645386
1761475697215872800,8.134872802734375,0.4929044544696808,0.4896937310695648,-0.8054883480072021
1761475697225849600,8.144849609375,0.5566014051437378,0.4960983991622925,-0.8654814958572388
1761475697235827700,8.15482763671875,0.6015875339508057,0.46856024861335754,-0.8865324854850769
1761475697245804800,8.1648046875,0.6263141632080078,0.4124562442302704,-0.8638128042221069
1761475697255781600,8.17478173828125,0.6341025829315186,0.3470229208469391,-0.802695095539093
1761475697265758700,8.1847587890625,0.6320741772651672,0.30223193764686584,-0.705910861492157
1761475697275735600,8.194735595703126,0.6143229007720947,0.2775585651397705,-0.5899413824081421
1761475697285712600,8.204712646484374,0.5882049202919006,0.26063990592956543,-0.47005707025527954
1761475697295689700,8.214689697265625,0.5591788291931152,0.21792946755886078,-0.35356295108795166
1761475697305666600,8.22466650390625,0.5157862901687622,0.1655355542898178,-0.2566591203212738
1761475697315644000,8.234643798828126,0.45914697647094727,0.025967810302972794,-0.1870344877243042
1761475697325620700,8.244620849609374,0.39340800046920776,-0.14897267520427704,-0.1298958659172058
1761475697335598600,8.2545986328125,0.3263634741306305,-0.3108137845993042,-0.07305709272623062
1761475697345576000,8.264575927734375,0.25955814123153687,-0.41885533928871155,-0.014439927414059639
1761475697355552800,8.274552734375,0.185638889670372,-0.4780859053134918,0.04188885912299156
1761475697365529900,8.28452978515625,0.10353028774261475,-0.4859437644481659,0.08622897416353226
1761475697375506700,8.294506591796875,0.021141937002539635,-0.4568498134613037,0.10080418735742569
1761475697385483800,8.30448388671875,-0.05558418110013008,-0.41898995637893677,0.09402833133935928
1761475697395460900,8.3144609375,-0.11769682168960571,-0.3459431529045105,0.07846508920192719
1761475697405437700,8.324437744140624,-0.16043196618556976,-0.21098071336746216,0.060138702392578125
1761475697415414800,8.334414794921875,-0.19122157990932465,-0.07707031071186066,0.042740534991025925
1761475697425392600,8.344392578125,-0.21436555683612823,0.040934670716524124,0.03396577015519142
1761475697435369700,8.35436962890625,-0.22729839384555817,0.1226913183927536,0.025684934109449387
1761475697445346800,8.364346923828125,-0.2416083961725235,0.11047108471393585,0.024419721215963364
1761475697455323600,8.37432373046875,-0.26302605867385864,0.09102334827184677,0.05136451870203018
1761475697465300700,8.38430078125,-0.3025599420070648,0.03301789611577988,0.10404884815216064
1761475697475278600,8.394278564453124,-0.34672075510025024,-0.028787150979042053,0.19041037559509277
1761475697485255700,8.404255615234375,-0.4014996290206909,-0.08343543857336044,0.293371319770813
1761475697495232800,8.414232666015625,-0.4375913441181183,-0.07646381109952927,0.4276670813560486
1761475697505209600,8.424209716796875,-0.43849843740463257,-0.051824670284986496,0.5751969218254089
1761475697515186700,8.434186767578124,-0.42851343750953674,-0.09147540479898453,0.6882206797599792
1761475697525163800,8.444163818359375,-0.4326120615005493,-0.2309999018907547,0.7137374877929688
1761475697535140900,8.454140869140625,-0.4668554961681366,-0.47492653131484985,0.6775954365730286
1761475697545117700,8.46411767578125,-0.5619486570358276,-0.6693463921546936,0.5795532464981079
1761475697555094800,8.4740947265625,-0.6965085864067078,-0.8099716901779175,0.4234113395214081
1761475697565072000,8.48407177734375,-0.8284116387367249,-0.8593776822090149,0.2275671660900116
1761475697575049700,8.4940498046875,-0.9200640320777893,-0.802953839302063,0.039501119405031204
1761475697585026800,8.50402685546875,-0.9496855139732361,-0.6092666387557983,-0.10296094417572021
1761475697595004000,8.51400390625,-0.9043049812316895,-0.32314884662628174,-0.1810711920261383
1761475697604980700,8.523980712890625,-0.7995159029960632,0.0018094757106155157,-0.22257663309574127
1761475697614957800,8.533957763671875,-0.6406354308128357,0.3144477903842926,-0.20639394223690033
1761475697624934700,8.5439345703125,-0.44436514377593994,0.550369918346405,-0.16814880073070526
1761475697634911700,8.553911865234374,-0.26141104102134705,0.6712406873703003,-0.1247459277510643
1761475697644888600,8.563888671875,-0.13454727828502655,0.6788069605827332,-0.08692265301942825
1761475697654865700,8.57386572265625,-0.047601982951164246,0.5859108567237854,-0.04838377982378006
1761475697664843800,8.58384375,-0.0034317446406930685,0.3883730471134186,-0.005036758724600077
1761475697674820600,8.593820556640624,0.006817962974309921,0.13792645931243896,0.05206487700343132
1761475697684797700,8.603797607421875,-0.022982025519013405,-0.05070166662335396,0.1441785842180252
1761475697694774500,8.6137744140625,-0.06866616010665894,-0.12758579850196838,0.2619342505931854
1761475697704751600,8.623751708984376,-0.11335527896881104,-0.1554204225540161,0.3849005699157715
1761475697714729000,8.63372900390625,-0.15428833663463593,-0.18346457183361053,0.47559958696365356
1761475697724705800,8.643705810546875,-0.18445725739002228,-0.1949019432067871,0.5178512930870056
1761475697734683000,8.653682861328125,-0.22298839688301086,-0.19146457314491272,0.48655039072036743
1761475697744659700,8.66365966796875,-0.25013890862464905,-0.16541478037834167,0.4076707661151886
1761475697754636800,8.67363671875,-0.2648068070411682,-0.1154530718922615,0.28887462615966797
1761475697764615000,8.683614990234375,-0.28583526611328125,-0.0860864520072937,0.1347636729478836
1761475697774591700,8.693591796875,-0.3259427547454834,-0.018820326775312424,-0.04814835637807846
1761475697784568800,8.70356884765625,-0.38389477133750916,0.08063233643770218,-0.26492565870285034
1761475697794545700,8.713545654296874,-0.429811954498291,0.12582111358642578,-0.4974667429924011
1761475697804522800,8.723522705078125,-0.41883596777915955,0.15106303989887238,-0.7017637491226196
1761475697814499600,8.73349951171875,-0.35896703600883484,0.19775810837745667,-0.8395242691040039
1761475697824476700,8.7434765625,-0.2845384180545807,0.2731630206108093,-0.9194306135177612
1761475697834453800,8.753453857421874,-0.21995089948177338,0.34457966685295105,-0.9416037797927856
1761475697844430600,8.7634306640625,-0.18260331451892853,0.3914811909198761,-0.9150903820991516
1761475697854408700,8.77340869140625,-0.14650577306747437,0.41090601682662964,-0.8389279842376709
1761475697864385800,8.7833857421875,-0.11394453048706055,0.41062813997268677,-0.7414181232452393
1761475697874362600,8.793362548828124,-0.08294107019901276,0.3204910457134247,-0.6186509132385254
1761475697884339700,8.803339599609375,-0.06497084349393845,0.2358650118112564,-0.47191551327705383
1761475697894316800,8.81331689453125,-0.05931694805622101,0.16814455389976501,-0.31146910786628723
1761475697904294000,8.8232939453125,-0.05505194887518883,0.08070503175258636,-0.16800668835639954
1761475697914270700,8.833270751953124,-0.0493309460580349,-0.060019854456186295,-0.04087803140282631
1761475697924247800,8.843247802734375,-0.06068025529384613,-0.1738104373216629,0.07490020990371704
1761475697934225000,8.853224853515625,-0.08611371368169785,-0.2834245562553406,0.1568794846534729
1761475697944202800,8.86320263671875,-0.1119830533862114,-0.3630640208721161,0.20622393488883972
1761475697954179800,8.873179931640625,-0.134139746427536,-0.4205092191696167,0.2212556153535843
1761475697964156700,8.88315673828125,-0.15904535353183746,-0.48015105724334717,0.19817990064620972
1761475697974133800,8.8931337890625,-0.19907265901565552,-0.4683268666267395,0.15106405317783356
1761475697984110800,8.90311083984375,-0.24596911668777466,-0.38370785117149353,0.09060976654291153
1761475697994087700,8.913087646484374,-0.27641862630844116,-0.26017260551452637,0.02839805744588375
1761475698004064800,8.923064697265625,-0.2573640048503876,-0.07792465388774872,-0.00826938170939684
1761475698014041600,8.93304150390625,-0.20894508063793182,0.1322227269411087,-0.03003726154565811
1761475698024018700,8.943018798828126,-0.11613158881664276,0.2494678646326065,-0.04979192465543747
1761475698033996800,8.952996826171875,0.007234284654259682,0.2849656641483307,-0.06270372122526169
1761475698043973600,8.9629736328125,0.13489383459091187,0.26412540674209595,-0.05141104757785797
1761475698053950700,8.97295068359375,0.25125664472579956,0.19560015201568604,-0.004966051317751408
1761475698063927600,8.982927490234376,0.33768418431282043,0.12946650385856628,0.060162246227264404
1761475698073904600,8.992904541015625,0.4041137993335724,0.05427534505724907,0.16873160004615784
1761475698083881700,9.0028818359375,0.45657798647880554,0.02044026181101799,0.30016806721687317
1761475698093858800,9.01285888671875,0.5003440976142883,-0.024171948432922363,0.44909125566482544
1761475698103836000,9.0228359375,0.5140674114227295,-0.1454300880432129,0.5769661664962769
1761475698113812700,9.032812744140625,0.47986820340156555,-0.41000741720199585,0.6519455909729004
1761475698123790000,9.0427900390625,0.383165180683136,-0.6764092445373535,0.6671719551086426
1761475698133768200,9.052768310546876,0.25369107723236084,-0.8851680755615234,0.6404284834861755
1761475698143745000,9.0627451171875,0.1273365020751953,-1.031108021736145,0.5925622582435608
1761475698153722000,9.07272216796875,0.017185764387249947,-1.089242935180664,0.5515112280845642
1761475698163699000,9.082698974609375,-0.0767470970749855,-1.0403568744659424,0.5188953876495361
1761475698173676000,9.092676025390626,-0.14646600186824799,-0.8939367532730103,0.4883771538734436
1761475698183652900,9.10265283203125,-0.20923495292663574,-0.7105672359466553,0.43397223949432373
1761475698193630000,9.1126298828125,-0.20449158549308777,-0.5038686394691467,0.37597259879112244
1761475698203607000,9.12260693359375,-0.13221681118011475,-0.2866273820400238,0.3289954364299774
1761475698213584000,9.132583984375,-0.029639314860105515,-0.053873490542173386,0.29041075706481934
1761475698223561000,9.14256103515625,0.07096488773822784,0.16252394020557404,0.23915407061576843
1761475698233538800,9.152538818359375,0.14945223927497864,0.3029806613922119,0.19855710864067078
1761475698243516000,9.162515869140625,0.20100919902324677,0.4218522310256958,0.17554813623428345
1761475698253493000,9.172492919921876,0.22996973991394043,0.5237389206886292,0.17258749902248383
1761475698263469800,9.1824697265625,0.24573975801467896,0.5765414237976074,0.191832035779953
1761475698273447000,9.192447021484375,0.2866800129413605,0.5942853093147278,0.2601988613605499
1761475698283424000,9.202424072265625,0.33761176466941833,0.6399485468864441,0.36055466532707214
1761475698293401000,9.212401123046876,0.3614840805530548,0.5904012322425842,0.44784802198410034
1761475698303378000,9.2223779296875,0.35447409749031067,0.4679301977157593,0.5129184126853943
1761475698313355000,9.23235498046875,0.3092102110385895,0.2775413393974304,0.5380522608757019
1761475698323333000,9.2423330078125,0.25582197308540344,0.018290556967258453,0.54111248254776
1761475698333310000,9.25231005859375,0.1942928284406662,-0.23333662748336792,0.5361273288726807
1761475698343287000,9.262287109375,0.14314955472946167,-0.39772599935531616,0.5339421033859253
1761475698353264000,9.27226416015625,0.09836370497941971,-0.5347616076469421,0.5231227278709412
1761475698363241000,9.282240966796875,0.06715775281190872,-0.6344583034515381,0.49092423915863037
1761475698373218000,9.292218017578126,0.04053759202361107,-0.7171238660812378,0.42691516876220703
1761475698383195000,9.30219482421875,0.012516562826931477,-0.7714354991912842,0.3273250162601471
1761475698393172000,9.312171875,-0.02306486666202545,-0.7612326741218567,0.19661864638328552
1761475698403148800,9.322148681640625,-0.060507915914058685,-0.7137633562088013,0.043734773993492126
1761475698413127000,9.332126953125,-0.08253492414951324,-0.5469091534614563,-0.12974220514297485
1761475698423104000,9.34210400390625,-0.06771311163902283,-0.31313636898994446,-0.3131733536720276
1761475698433080800,9.352080810546875,-0.0040377285331487656,-0.07494191825389862,-0.5073640942573547
1761475698443058000,9.362057861328125,0.11285541951656342,0.13821269571781158,-0.7062755227088928
1761475698453034800,9.37203466796875,0.2537821829319,0.29165127873420715,-0.895977795124054
1761475698463012000,9.38201220703125,0.3817688226699829,0.4210070073604584,-1.0457990169525146
1761475698472989200,9.3919892578125,0.47602713108062744,0.5078319311141968,-1.1435505151748657
1761475698482966000,9.401966064453125,0.5599859952926636,0.543788731098175,-1.1738755702972412
1761475698492943000,9.411943115234376,0.6195946931838989,0.5559172630310059,-1.1517306566238403
1761475698502920000,9.421919921875,0.6607885360717773,0.5599889755249023,-1.078207015991211
1761475698512898000,9.43189794921875,0.6820429563522339,0.5459511876106262,-0.9621424674987793
1761475698522875100,9.441875244140626,0.6606225967407227,0.5131533145904541,-0.8445959687232971
1761475698532852000,9.45185205078125,0.6165366172790527,0.43089383840560913,-0.7130669355392456
1761475698542829000,9.4618291015625,0.5842684507369995,0.36646440625190735,-0.5595677495002747
1761475698552806000,9.471805908203125,0.5308430194854736,0.28919360041618347,-0.3849514424800873
1761475698562783000,9.481782958984375,0.46075624227523804,0.22500640153884888,-0.2296133041381836
1761475698572759800,9.491759765625,0.3752831518650055,0.09618770331144333,-0.1068708673119545
1761475698582737000,9.50173681640625,0.2982015311717987,-0.04731327295303345,-0.010142730548977852
1761475698592714000,9.5117138671875,0.24244187772274017,-0.20934292674064636,0.06781971454620361
1761475698602691800,9.52169189453125,0.19206812977790833,-0.3121994435787201,0.12908980250358582
1761475698612669000,9.5316689453125,0.13225539028644562,-0.3764314353466034,0.17494411766529083
1761475698622646000,9.54164599609375,0.07844974100589752,-0.3633817434310913,0.21017126739025116
1761475698632622800,9.551622802734375,0.030369294807314873,-0.29633641242980957,0.23698130249977112
1761475698642600000,9.561599853515625,-0.0030317215714603662,-0.2002817839384079,0.2510128319263458
1761475698652577000,9.571576904296874,-0.024583885446190834,-0.12130521237850189,0.24556028842926025
1761475698662554000,9.58155419921875,-0.0372743122279644,-0.08514523506164551,0.2323082834482193
1761475698672531000,9.591531005859375,-0.047584209591150284,-0.0686434879899025,0.2200436294078827
1761475698682508000,9.601508056640625,-0.05249161645770073,-0.06333421170711517,0.22113846242427826
1761475698692486100,9.611486083984374,-0.07189967483282089,-0.0748334750533104,0.23511898517608643
1761475698702463000,9.621462890625,-0.11178532987833023,-0.08733829110860825,0.257274329662323
1761475698712440000,9.631440185546875,-0.1653502881526947,-0.061323199421167374,0.3033195734024048
1761475698722417000,9.6414169921875,-0.20821070671081543,0.003578826552256942,0.3691007196903229
1761475698732394000,9.65139404296875,-0.2300848513841629,0.03788193687796593,0.43256011605262756
1761475698742371000,9.66137109375,-0.24440571665763855,-0.019827427342534065,0.4677744209766388
1761475698752348000,9.671347900390625,-0.2635538578033447,-0.14862482249736786,0.4690615236759186
1761475698762325000,9.681324951171876,-0.30979716777801514,-0.2314467877149582,0.43834665417671204
1761475698772301800,9.6913017578125,-0.3673829734325409,-0.3239184021949768,0.37206244468688965
1761475698782279000,9.70127880859375,-0.44942623376846313,-0.3663375973701477,0.2751213610172272
1761475698792257000,9.711257080078125,-0.519743025302887,-0.36177000403404236,0.18452195823192596
1761475698802233900,9.72123388671875,-0.5795749425888062,-0.31730028986930847,0.09042608737945557
1761475698812211000,9.7312109375,-0.6111965179443359,-0.20657269656658173,0.006376191508024931
1761475698822187800,9.741187744140625,-0.608645498752594,-0.03983543440699577,-0.04536471143364906
1761475698832165000,9.7511650390625,-0.5684539079666138,0.15496201813220978,-0.06093621626496315
1761475698842142000,9.761141845703126,-0.48651549220085144,0.3516896367073059,-0.04423809051513672
1761475698852119000,9.771119140625,-0.3971874713897705,0.4948800802230835,0.003451934549957514
1761475698862096100,9.78109619140625,-0.32793989777565,0.5826058983802795,0.06124657765030861
1761475698872073000,9.791072998046875,-0.29009905457496643,0.6566497683525085,0.12821868062019348
1761475698882050000,9.801050048828126,-0.2686554789543152,0.6240174174308777,0.18014252185821533
1761475698892028200,9.811028076171874,-0.2598702609539032,0.5408205389976501,0.23590245842933655
1761475698902005000,9.8210048828125,-0.24955281615257263,0.4669203758239746,0.29748737812042236
1761475698911982000,9.830982177734375,-0.24336788058280945,0.3828933835029602,0.3520036041736603
1761475698921959000,9.840958984375,-0.2419460415840149,0.2916032671928406,0.40355151891708374
1761475698931936000,9.85093603515625,-0.22800332307815552,0.18168076872825623,0.45153820514678955
1761475698941912800,9.860912841796875,-0.21815547347068787,0.02990151196718216,0.45921847224235535
1761475698951890000,9.870889892578125,-0.23032984137535095,-0.1282700151205063,0.42745813727378845
1761475698961867000,9.880866943359376,-0.24594251811504364,-0.21165572106838226,0.37612971663475037
1761475698971843800,9.89084375,-0.2783193588256836,-0.17386360466480255,0.30388161540031433
1761475698981822000,9.900822021484375,-0.33210489153862,-0.1086132749915123,0.196522057056427
1761475698991798800,9.910798828125,-0.39371657371520996,-0.05150391906499863,0.054114580154418945
1761475699001775900,9.92077587890625,-0.4403225779533386,0.05393185466527939,-0.10877130180597305
1761475699011753000,9.9307529296875,-0.44031351804733276,0.11654996126890182,-0.3007892370223999
1761475699021730000,9.94072998046875,-0.38944995403289795,0.10210838168859482,-0.4974644184112549
1761475699031707100,9.95070703125,-0.30532070994377136,0.0674302950501442,-0.6666176915168762
1761475699041684000,9.96068408203125,-0.2140965610742569,0.07706540077924728,-0.7736303806304932
1761475699051661000,9.9706611328125,-0.14863605797290802,0.11555686593055725,-0.826389491558075
1761475699061638000,9.980637939453125,-0.09921742230653763,0.15544575452804565,-0.8334023356437683
1761475699071616000,9.990615966796875,-0.05801965668797493,0.19501473009586334,-0.7839218378067017
1761475699081593000,10.000593017578124,-0.01575099490582943,0.26819124817848206,-0.6858973503112793
1761475699091570000,10.01056982421875,0.006161494180560112,0.3295139968395233,-0.5626494288444519
1761475699101547000,10.020547119140625,0.023074349388480186,0.3291283845901489,-0.41325047612190247
1761475699111523800,10.03052392578125,0.04513890668749809,0.3094550669193268,-0.26619952917099
1761475699121500200,10.040500244140626,0.06676939874887466,0.2214709371328354,-0.1357848346233368
1761475699131477200,10.050477294921874,0.06737207621335983,0.11976589262485504,-0.026347560808062553
1761475699141454300,10.060454345703125,0.0592012032866478,0.04176269471645355,0.045888952910900116
1761475699151431400,10.070431396484375,0.037099629640579224,-0.06577681005001068,0.07477439939975739
1761475699161408500,10.080408447265626,0.00858591590076685,-0.1344197392463684,0.077416330575943
1761475699171386400,10.090386474609375,-0.01021147333085537,-0.17435917258262634,0.06465473026037216
1761475699181363500,10.100363525390625,-0.013226766139268875,-0.15996290743350983,0.04177312180399895
1761475699191340500,10.110340576171875,-0.0026803812943398952,-0.10117123275995255,0.01356012374162674
1761475699201317400,10.1203173828125,0.012639280408620834,-0.04945632070302963,-0.034794148057699203
1761475699211294500,10.13029443359375,0.025572922080755234,0.002611673902720213,-0.09842505306005478
1761475699221271300,10.140271240234375,0.04503730311989784,0.08040878921747208,-0.16049940884113312
1761475699231248400,10.150248291015625,0.07105505466461182,0.17237679660320282,-0.20916174352169037
1761475699241225200,10.16022509765625,0.11642450094223022,0.25980839133262634,-0.23441863059997559
1761475699251202300,10.170202392578124,0.1818823367357254,0.3237713873386383,-0.23838913440704346
1761475699261179400,10.180179443359375,0.2684471607208252,0.32921332120895386,-0.21108312904834747
1761475699271157200,10.1901572265625,0.36003726720809937,0.29462310671806335,-0.16710501909255981
1761475699281134300,10.20013427734375,0.4341857135295868,0.22568997740745544,-0.10153384506702423
1761475699291111200,10.210111083984375,0.49138161540031433,0.14086909592151642,-0.017926031723618507
1761475699301088300,10.220088134765625,0.5329058766365051,0.08834931999444962,0.0833430364727974
1761475699311065300,10.2300654296875,0.5718682408332825,0.07807884365320206,0.20921894907951355
1761475699321042200,10.240042236328126,0.6107178926467896,0.014372568577528,0.3169882893562317
1761475699331019500,10.25001953125,0.6205220222473145,-0.08814875036478043,0.37449416518211365
1761475699340996400,10.259996337890625,0.5856556296348572,-0.3218359053134918,0.3546803891658783
1761475699350974200,10.26997412109375,0.5060566663742065,-0.5899128913879395,0.2815646231174469
1761475699360951300,10.279951416015624,0.39327219128608704,-0.8355103135108948,0.1833707094192505
1761475699370928400,10.289928466796875,0.28953754901885986,-0.9897696375846863,0.0971338152885437
1761475699380905500,10.299905517578125,0.19645486772060394,-0.9860177040100098,0.04665301367640495
1761475699390882300,10.30988232421875,0.13517047464847565,-0.849486768245697,0.03747949004173279
1761475699400859400,10.319859375,0.11850663274526596,-0.5784962773323059,0.07156036049127579
1761475699410836500,10.32983642578125,0.1374073475599289,-0.2236282229423523,0.13685227930545807
1761475699420813300,10.339813232421875,0.21130864322185516,0.1193762719631195,0.20512548089027405
1761475699430790400,10.349790283203125,0.3157341480255127,0.4204844534397125,0.27768516540527344
1761475699440767200,10.359767333984376,0.4133826792240143,0.6388961672782898,0.34820592403411865
1761475699450745300,10.369745361328125,0.4979130029678345,0.8064801096916199,0.4106235206127167
1761475699460722400,10.379722412109375,0.5797199010848999,0.9393042325973511,0.46905800700187683
1761475699470699300,10.38969921875,0.6502561569213867,1.032317042350769,0.5018388628959656
1761475699480676400,10.39967626953125,0.6871178150177002,1.0503566265106201,0.5015419125556946
1761475699490653200,10.409653076171875,0.7081174254417419,0.9758126139640808,0.46314895153045654
1761475699500630300,10.41963037109375,0.7120709419250488,0.8144931793212891,0.3905697464942932
1761475699510607400,10.429607421875,0.682555079460144,0.6021785140037537,0.2960033118724823
1761475699520584400,10.43958447265625,0.6519613862037659,0.3572034537792206,0.22059884667396545
1761475699530561500,10.4495615234375,0.5850100517272949,0.14817969501018524,0.15386348962783813
1761475699540539400,10.459539306640625,0.4629596769809723,-0.005918802227824926,0.07283827662467957
1761475699550516500,10.4695166015625,0.34281811118125916,-0.1477489173412323,-0.0011544555891305208
1761475699560493300,10.479493408203124,0.2636638581752777,-0.23554804921150208,-0.07695595920085907
1761475699570470400,10.489470458984375,0.22379155457019806,-0.2870088517665863,-0.15658313035964966
1761475699580447500,10.499447509765625,0.19582605361938477,-0.30786246061325073,-0.24062250554561615
1761475699590424300,10.50942431640625,0.16787351667881012,-0.3159816265106201,-0.3161409795284271
1761475699600401400,10.5194013671875,0.156194806098938,-0.19435885548591614,-0.3615356981754303
1761475699610378200,10.529378173828125,0.17134419083595276,-0.06189509481191635,-0.4053364396095276
1761475699620355300,10.539355224609375,0.22405652701854706,0.022981876507401466,-0.45283180475234985
1761475699630332200,10.549332275390626,0.3096987307071686,0.11288832873106003,-0.5033010840415955
1761475699640310300,10.559310302734374,0.39549142122268677,0.2535620331764221,-0.5476076602935791
1761475699650287400,10.569287353515625,0.47303149104118347,0.35031867027282715,-0.6135973334312439
1761475699660264200,10.57926416015625,0.538206160068512,0.3645213544368744,-0.6872644424438477
1761475699670241300,10.5892412109375,0.5732458829879761,0.3911529779434204,-0.7373965978622437
1761475699680218400,10.59921826171875,0.5800708532333374,0.4281225800514221,-0.7656691670417786
1761475699690195200,10.6091953125,0.5793787240982056,0.4385579228401184,-0.7786973118782043
1761475699700172500,10.619172607421875,0.5798209309577942,0.34745535254478455,-0.784657895565033
1761475699710149400,10.6291494140625,0.5846665501594543,0.21540489792823792,-0.7460758686065674
1761475699720126500,10.63912646484375,0.5906162261962891,0.1454666703939438,-0.6611772179603577
1761475699730104300,10.649104248046875,0.5879213809967041,0.0929800271987915,-0.5669679045677185
1761475699740081400,10.659081298828125,0.5746961236000061,0.017471687868237495,-0.47721534967422485
1761475699750058500,10.66905859375,0.5490394830703735,-0.03931809216737747,-0.40144363045692444
1761475699760035300,10.679035400390624,0.5047720074653625,-0.08672188222408295,-0.34794092178344727
1761475699770012400,10.689012451171875,0.45145368576049805,-0.18973055481910706,-0.3082300126552582
1761475699779989200,10.6989892578125,0.3952360451221466,-0.27323654294013977,-0.24921539425849915
1761475699789966300,10.70896630859375,0.311749666929245,-0.3634849488735199,-0.19582727551460266
1761475699799943400,10.718943359375,0.23319882154464722,-0.386294960975647,-0.13603244721889496
1761475699809920300,10.728920166015625,0.16606107354164124,-0.44462138414382935,-0.10095463693141937
1761475699819897300,10.7388974609375,0.11996942013502121,-0.527492880821228,-0.07086232304573059
1761475699829875200,10.748875244140624,0.09098250418901443,-0.5181052088737488,-0.03589767962694168
1761475699839852300,10.758852294921875,0.062370769679546356,-0.4529292583465576,-0.005780152976512909
1761475699849829400,10.768829345703125,0.028070854023098946,-0.3904762864112854,0.0034136115573346615
1761475699859806200,10.77880615234375,0.00300493068061769,-0.34703385829925537,0.0004574762424454093
1761475699869783300,10.788783203125,-0.013285625725984573,-0.268768846988678,0.00040368037298321724
1761475699879760400,10.798760498046875,-0.013163168914616108,-0.1635875254869461,0.009837474673986435
1761475699889737500,10.808737548828125,-0.006642685271799564,-0.08481574803590775,0.03129323199391365
1761475699899714300,10.81871435546875,-0.0025449669919908047,-0.03407411649823189,0.06005055457353592
1761475699909691400,10.82869140625,-0.03207436203956604,-0.004049105104058981,0.080228790640831
1761475699919669500,10.83866943359375,-0.07333032041788101,-0.033315062522888184,0.10172577202320099
1761475699929646300,10.848646240234375,-0.10105116665363312,-0.016900934278964996,0.14798595011234283
1761475699939623400,10.85862353515625,-0.10124576091766357,0.05323794111609459,0.2162887006998062
1761475699949600500,10.8686005859375,-0.09111456573009491,0.05311037600040436,0.26650580763816833
1761475699959577300,10.878577392578125,-0.09828498214483261,0.03530773147940636,0.28108495473861694
1761475699969554400,10.888554443359375,-0.115541473031044,0.014222685247659683,0.26179248094558716
1761475699979531300,10.89853125,-0.22457070648670197,-0.05247383937239647,0.43199634552001953
1761475699989508400,10.90850830078125,-0.34959837794303894,-0.3912639021873474,0.4708574712276459
1761475699999485200,10.918485107421875,-0.43880748748779297,-0.4520780146121979,0.4817278981208801
1761475700009463300,10.92846337890625,-0.47695592045783997,-0.6375221610069275,0.44618695974349976
1761475700019440400,10.9384404296875,-0.4922630488872528,-0.6783615946769714,0.3908233940601349
1761475700029417200,10.948417236328124,-0.5473257899284363,-0.6683313250541687,0.32408803701400757
1761475700039394300,10.958394287109375,-0.5849918723106384,-0.5891733765602112,0.2448284924030304
1761475700049371100,10.96837109375,-0.5269027352333069,-0.43403226137161255,0.1976681649684906
