time,seconds_elapsed,z,y,x
1761475986926836000,0.1208359375,-0.09330978989601135,0.0948001816868782,0.0729382112622261
1761475986936872000,0.130871826171875,-0.06973768025636673,0.051234208047389984,0.09757301211357117
1761475986946909000,0.140908935546875,-0.05228571593761444,0.002448559273034334,0.13475766777992249
1761475986956945000,0.15094482421875,-0.04681037366390228,-0.03774942830204964,0.18157342076301575
1761475986966982100,0.160982177734375,-0.04382257163524628,-0.04392796382308006,0.2275736778974533
1761475986977018000,0.17101806640625,-0.0379558727145195,-0.021222133189439774,0.2586698830127716
1761475986987055000,0.18105517578125,-0.014371984638273716,0.0013284487649798393,0.29044005274772644
1761475986997092000,0.191092041015625,0.014750480651855469,-0.0025842678733170033,0.30701664090156555
1761475987007128000,0.201128173828125,0.033987823873758316,-0.03793559968471527,0.31560611724853516
1761475987017165000,0.2111650390625,0.04764706268906593,-0.06275233626365662,0.32028883695602417
1761475987027201000,0.221200927734375,0.06685137748718262,-0.009794309735298157,0.3495228886604309
1761475987037238000,0.231238037109375,0.08088146895170212,0.0846450924873352,0.3856133222579956
1761475987047275000,0.24127490234375,0.09208671748638153,0.14206524193286896,0.42269089818000793
1761475987057311000,0.25131103515625,0.08507406711578369,0.1329624056816101,0.43161189556121826
1761475987067348000,0.261347900390625,0.08058691024780273,0.08397089689970016,0.42596572637557983
1761475987077384000,0.271384033203125,0.09006159752607346,0.020012281835079193,0.3937394320964813
1761475987087421000,0.2814208984375,0.13060502707958221,-0.055435337126255035,0.3312382400035858
1761475987097458200,0.291458251953125,0.1813015192747116,-0.1324561983346939,0.2701209485530853
1761475987107494100,0.301494140625,0.21943186223506927,-0.16559870541095734,0.22732605040073395
1761475987117531100,0.31153125,0.21722951531410217,-0.16998153924942017,0.20835396647453308
1761475987127567000,0.321567138671875,0.19340167939662933,-0.18136176466941833,0.20422500371932983
1761475987137608000,0.33160791015625,0.15394115447998047,-0.22317078709602356,0.19951622188091278
1761475987147644000,0.341643798828125,0.12788903713226318,-0.27530908584594727,0.19988346099853516
1761475987157680600,0.3516806640625,0.12232375890016556,-0.29827505350112915,0.2131151705980301
1761475987167717600,0.361717529296875,0.11018481105566025,-0.31785115599632263,0.2430509775876999
1761475987177753600,0.371753662109375,0.08039423823356628,-0.3804517984390259,0.2776831388473511
1761475987187790800,0.381790771484375,-0.008453872054815292,-0.43161672353744507,0.295356422662735
1761475987197826800,0.391826904296875,-0.10609398037195206,-0.5344945192337036,0.2881738841533661
1761475987207863800,0.40186376953125,-0.16805270314216614,-0.6942154765129089,0.21260137856006622
1761475987217899800,0.411899658203125,-0.17699001729488373,-0.8463457822799683,0.060440439730882645
1761475987227936800,0.421936767578125,-0.1528247743844986,-0.9704616069793701,-0.1271534264087677
1761475987237973800,0.431973876953125,-0.1270132064819336,-1.0823267698287964,-0.30369165539741516
1761475987248009700,0.442009765625,-0.10860144346952438,-1.1418566703796387,-0.48548248410224915
1761475987258047000,0.452046875,-0.1084449291229248,-1.0797886848449707,-0.6302399635314941
1761475987268083000,0.4620830078125,-0.09277728199958801,-0.8561984300613403,-0.7880200147628784
1761475987278119700,0.47211962890625,-0.05555448681116104,-0.41201063990592957,-1.0032596588134766
1761475987288156000,0.482156005859375,0.04287940636277199,0.2050885260105133,-1.3769336938858032
1761475987298192600,0.492192626953125,0.16559630632400513,0.626366138458252,-1.6835992336273193
1761475987308229600,0.502229736328125,0.2452823370695114,0.821683943271637,-1.8737488985061646
1761475987318265900,0.512265869140625,0.2851400375366211,0.7798119783401489,-1.9473673105239868
1761475987328302800,0.522302734375,0.3109428584575653,0.6027154922485352,-1.9439507722854614
1761475987338338800,0.5323388671875,0.3108598291873932,0.4064394533634186,-1.8744926452636719
1761475987348375800,0.542375732421875,0.24349862337112427,0.21695154905319214,-1.7522928714752197
1761475987358412800,0.552412841796875,0.16840790212154388,0.13790108263492584,-1.5618443489074707
1761475987368448800,0.56244873046875,0.09444339573383331,0.16461925208568573,-1.321008563041687
1761475987378486000,0.572486083984375,0.020630966871976852,0.2807691991329193,-1.0387552976608276
1761475987388522000,0.58252197265625,-0.041263557970523834,0.3771037459373474,-0.7371944785118103
1761475987398559000,0.59255908203125,-0.1112111434340477,0.474777489900589,-0.42475542426109314
1761475987408595000,0.602594970703125,-0.18045225739479065,0.5834118127822876,-0.10909362137317657
1761475987418631700,0.612631591796875,-0.24923700094223022,0.6435526609420776,0.1928360015153885
1761475987428668700,0.622668701171875,-0.28536784648895264,0.625,0.4595462679862976
1761475987438704600,0.63270458984375,-0.2948875427246094,0.5454018712043762,0.687100887298584
1761475987448742000,0.642741943359375,-0.28773027658462524,0.38046491146087646,0.854233980178833
1761475987458777900,0.65277783203125,-0.28436049818992615,0.06774493306875229,0.9323650002479553
1761475987468814800,0.66281494140625,-0.30455711483955383,-0.35611632466316223,0.8112966418266296
1761475987478850800,0.672850830078125,-0.3722296357154846,-0.5553382635116577,0.47078418731689453
1761475987488887800,0.6828876953125,-0.42043471336364746,-0.5109825134277344,0.16652336716651917
1761475987498924800,0.6929248046875,-0.40591225028038025,-0.3403804898262024,-0.03300110623240471
1761475987508960800,0.702960693359375,-0.39660370349884033,-0.16951367259025574,-0.23567672073841095
1761475987518998000,0.712998046875,-0.4221758544445038,0.021836813539266586,-0.44951748847961426
1761475987529034000,0.723033935546875,-0.4772838354110718,0.23394879698753357,-0.6105769276618958
1761475987539070700,0.73307080078125,-0.5203753709793091,0.34173452854156494,-0.700117290019989
1761475987549107000,0.74310693359375,-0.544360339641571,0.31674662232398987,-0.7310518026351929
1761475987559143700,0.753143798828125,-0.5482534766197205,0.2631568908691406,-0.7108239531517029
1761475987569180700,0.7631806640625,-0.541939914226532,0.20341047644615173,-0.6411718726158142
1761475987579216600,0.773216552734375,-0.5261290669441223,0.137799471616745,-0.5407813191413879
1761475987589254000,0.78325390625,-0.5027251839637756,0.09209909290075302,-0.4285370707511902
1761475987599289900,0.793289794921875,-0.47131720185279846,0.09475956857204437,-0.32470327615737915
1761475987609326800,0.803326904296875,-0.4360167384147644,0.12458857148885727,-0.25384268164634705
1761475987619362800,0.81336279296875,-0.39914000034332275,0.17516189813613892,-0.22008016705513
1761475987629399800,0.82339990234375,-0.3624784052371979,0.199852854013443,-0.20559124648571014
1761475987639436800,0.833436767578125,-0.31278616189956665,0.20104147493839264,-0.21081411838531494
1761475987649472800,0.84347265625,-0.25404053926467896,0.18106403946876526,-0.23182885348796844
1761475987659510000,0.853510009765625,-0.19051435589790344,0.1224452555179596,-0.24950020015239716
1761475987669546000,0.8635458984375,-0.13209927082061768,0.06742434948682785,-0.25476792454719543
1761475987679582700,0.873582763671875,-0.08618156611919403,0.030149035155773163,-0.24445155262947083
1761475987689619700,0.88361962890625,-0.0641564205288887,0.008179822005331516,-0.2310185730457306
1761475987699655700,0.89365576171875,-0.03996749222278595,0.00015238625928759575,-0.2226175218820572
1761475987709692700,0.903692626953125,-0.017547672614455223,-0.0018833340145647526,-0.21521605551242828
1761475987719728600,0.913728759765625,-0.005767529830336571,-0.014022217132151127,-0.1984219253063202
1761475987729766000,0.923765869140625,0.0024653663858771324,-0.038164038211107254,-0.17779122292995453
1761475987739801900,0.9338017578125,0.02597818151116371,-0.03264988586306572,-0.154049351811409
1761475987749838800,0.9438388671875,0.06682921200990677,-0.012227702885866165,-0.1430204063653946
1761475987759875800,0.953875732421875,0.11357421427965164,-0.002633824944496155,-0.1503615826368332
1761475987769911800,0.963911865234375,0.15455733239650726,0.012051377445459366,-0.17132465541362762
1761475987779948800,0.97394873046875,0.16229861974716187,0.006364996545016766,-0.21232055127620697
1761475987789984800,0.98398486328125,0.14176324009895325,-0.029663579538464546,-0.27584198117256165
1761475987800021800,0.994021728515625,0.12218720465898514,-0.09511454403400421,-0.33283713459968567
1761475987810058000,1.00405810546875,0.12163008004426956,-0.1485266387462616,-0.3465798497200012
1761475987820094700,1.0140947265625,0.15474416315555573,-0.17472457885742188,-0.3142802119255066
1761475987830131700,1.024131591796875,0.20990781486034393,-0.19333475828170776,-0.24320444464683533
1761475987840167700,1.034167724609375,0.2730623483657837,-0.1890186220407486,-0.1427180916070938
1761475987850204700,1.04420458984375,0.3215995132923126,-0.16319634020328522,-0.044313229620456696
1761475987860240600,1.05424072265625,0.332716703414917,-0.12240445613861084,0.02838774025440216
1761475987870278000,1.06427783203125,0.3095621168613434,-0.05679268762469292,0.07040363550186157
1761475987880313900,1.07431396484375,0.2666451334953308,0.01797359064221382,0.08752632141113281
1761475987890350800,1.084350830078125,0.21502216160297394,0.08951275795698166,0.086539626121521
1761475987900387800,1.094387939453125,0.17331786453723907,0.1539371758699417,0.07993161678314209
1761475987910423800,1.104423828125,0.14094501733779907,0.17693303525447845,0.07736539095640182
1761475987920460800,1.114460693359375,0.12956131994724274,0.15852218866348267,0.09323401004076004
1761475987930496800,1.124496826171875,0.12872909009456635,0.11477922648191452,0.11815108358860016
1761475987940533800,1.13453369140625,0.12317274510860443,0.08901926130056381,0.16092345118522644
1761475987950570000,1.144570068359375,0.09417944401502609,0.0706343948841095,0.20196089148521423
1761475987960606700,1.154606689453125,0.05463416501879692,0.06433739513158798,0.23410478234291077
1761475987970642700,1.164642578125,0.015843622386455536,0.07539670914411545,0.2646983563899994
1761475987980679700,1.1746796875,0.004106399603188038,0.12286750972270966,0.28319165110588074
1761475987990716700,1.184716552734375,0.02995903789997101,0.1915629357099533,0.2911425232887268
1761475988000752600,1.194752685546875,0.08005823940038681,0.24682274460792542,0.300293505191803
1761475988010790000,1.204789794921875,0.14956913888454437,0.2716852128505707,0.316313236951828
1761475988020825900,1.214825927734375,0.21752050518989563,0.27731895446777344,0.3569740951061249
1761475988030862800,1.22486279296875,0.27359068393707275,0.2693747580051422,0.41265785694122314
1761475988040898800,1.23489892578125,0.3199406564235687,0.2558603882789612,0.5039304494857788
1761475988050935800,1.244935791015625,0.3574659526348114,0.26613324880599976,0.609112560749054
1761475988060972800,1.254972900390625,0.3765667676925659,0.29877927899360657,0.711468517780304
1761475988071008800,1.2650087890625,0.38298073410987854,0.32132455706596375,0.7750216722488403
1761475988081045800,1.275045654296875,0.38312020897865295,0.3247653841972351,0.790658175945282
1761475988091082000,1.28508203125,0.37951189279556274,0.2989031672477722,0.7701284289360046
1761475988101118700,1.29511865234375,0.3828250467777252,0.25586825609207153,0.7365925312042236
1761475988111154700,1.30515478515625,0.38215577602386475,0.20571453869342804,0.713185727596283
1761475988121191700,1.315191650390625,0.36945581436157227,0.19134856760501862,0.6990060210227966
1761475988131227600,1.3252275390625,0.3422505557537079,0.1917075663805008,0.6779934167861938
1761475988141261600,1.335261474609375,0.30317819118499756,0.17058943212032318,0.6460681557655334
1761475988151298600,1.345298583984375,0.2567009925842285,0.15052464604377747,0.595207154750824
1761475988161334500,1.35533447265625,0.21854053437709808,0.12126210331916809,0.5407720804214478
1761475988171371500,1.36537158203125,0.20005711913108826,0.09474687278270721,0.5036124587059021
1761475988181407500,1.375407470703125,0.1947055160999298,0.08572711050510406,0.5036877989768982
1761475988191444700,1.38544482421875,0.17835770547389984,0.09260551631450653,0.5091808438301086
1761475988201480700,1.395480712890625,0.17346088588237762,0.11204957962036133,0.5204225778579712
1761475988211517700,1.405517578125,0.16978038847446442,0.11990270763635635,0.5214686989784241
1761475988221553700,1.4155537109375,0.1580941081047058,0.13124936819076538,0.4993567168712616
1761475988231590400,1.42559033203125,0.14039048552513123,0.15907754004001617,0.46385568380355835
1761475988241626600,1.435626708984375,0.12253198027610779,0.18662336468696594,0.4298955798149109
1761475988251663400,1.445663330078125,0.10912562906742096,0.23904475569725037,0.4192120432853699
1761475988261700600,1.45570068359375,0.10194209218025208,0.27678248286247253,0.4203318655490875
1761475988271736600,1.465736572265625,0.10471364855766296,0.28651660680770874,0.42779695987701416
1761475988281773600,1.475773681640625,0.10780233144760132,0.2658711373806,0.43321627378463745
1761475988291809500,1.4858095703125,0.1133454367518425,0.23567888140678406,0.43272438645362854
1761475988301846500,1.495846435546875,0.11823899298906326,0.19283117353916168,0.4209043085575104
1761475988311882500,1.505882568359375,0.12413790076971054,0.13988086581230164,0.4100878834724426
1761475988321919500,1.51591943359375,0.12345433980226517,0.09711194038391113,0.3958839476108551
1761475988331955500,1.52595556640625,0.12338828295469284,0.0699775293469429,0.37082013487815857
1761475988341992700,1.53599267578125,0.12349176406860352,0.06773359328508377,0.35056519508361816
1761475988352028700,1.546028564453125,0.12397618591785431,0.06489226222038269,0.33441126346588135
1761475988362065700,1.556065673828125,0.12008722126483917,0.06279365718364716,0.32696545124053955
1761475988372102400,1.566102294921875,0.10966227948665619,0.058569617569446564,0.325283944606781
1761475988382138400,1.576138427734375,0.08775337040424347,0.038996197283267975,0.32638517022132874
1761475988392175400,1.58617529296875,0.059095628559589386,0.019448595121502876,0.3290669620037079
1761475988402211600,1.596211669921875,0.03725920990109444,-0.004916166886687279,0.32892030477523804
1761475988412248600,1.60624853515625,0.026709631085395813,-0.06714598834514618,0.31786417961120605
1761475988422284500,1.616284423828125,0.02661309763789177,-0.15784308314323425,0.30078479647636414
1761475988432321500,1.626321533203125,0.03903301805257797,-0.2289268523454666,0.2872604429721832
1761475988442357500,1.636357421875,0.07283422350883484,-0.24856092035770416,0.2777685225009918
1761475988452394500,1.64639453125,0.11447487771511078,-0.2229548990726471,0.25695937871932983
1761475988462430500,1.656430419921875,0.15957793593406677,-0.17511628568172455,0.2153662145137787
1761475988472467700,1.6664677734375,0.19292229413986206,-0.12503686547279358,0.16958275437355042
1761475988482503700,1.676503662109375,0.20660659670829773,-0.06457611918449402,0.1335030198097229
1761475988492540700,1.686540771484375,0.183070108294487,-0.006189773790538311,0.10118529200553894
1761475988502577700,1.69657763671875,0.14743119478225708,0.028825007379055023,0.06661619991064072
1761475988512613600,1.706613525390625,0.09651875495910645,0.040093109011650085,0.03071172535419464
1761475988522650400,1.716650390625,0.0471312552690506,0.024652190506458282,-0.006907027680426836
1761475988532686600,1.7266865234375,0.01022276934236288,-0.004833796061575413,-0.03616238385438919
1761475988542723600,1.7367236328125,-0.018354110419750214,-0.040554698556661606,-0.06792913377285004
1761475988552759600,1.746759521484375,-0.03440631181001663,-0.09379289299249649,-0.08890792727470398
1761475988562796500,1.756796630859375,-0.03988569229841232,-0.1297672986984253,-0.09889446943998337
1761475988572832500,1.76683251953125,-0.03975493460893631,-0.14562243223190308,-0.09875518828630447
1761475988582869500,1.776869384765625,-0.04111742973327637,-0.15083155035972595,-0.08410681039094925
1761475988592905500,1.786905517578125,-0.05002224072813988,-0.12507453560829163,-0.05774977058172226
1761475988602942500,1.7969423828125,-0.061616651713848114,-0.09838580340147018,-0.02917718142271042
1761475988612978400,1.806978515625,-0.08162471652030945,-0.09963881969451904,-0.01979086920619011
1761475988623015700,1.817015625,-0.11693157255649567,-0.10310184210538864,-0.019629670307040215
1761475988633051600,1.8270517578125,-0.15039552748203278,-0.11627197265625,-0.03553992509841919
1761475988643088600,1.837088623046875,-0.18564628064632416,-0.12953421473503113,-0.06832576543092728
1761475988653125600,1.847125732421875,-0.22214943170547485,-0.12740448117256165,-0.11228629946708679
1761475988663161600,1.85716162109375,-0.2634837329387665,-0.1169968843460083,-0.16626064479351044
1761475988673198300,1.8671982421875,-0.29190579056739807,-0.09823811054229736,-0.2157975733280182
1761475988683234600,1.877234619140625,-0.30755677819252014,-0.06311696767807007,-0.2571853995323181
1761475988693271600,1.887271484375,-0.313472718000412,-0.031190194189548492,-0.2779865562915802
1761475988703307500,1.8973076171875,-0.3085106313228607,-0.014458771795034409,-0.27863600850105286
1761475988713344500,1.907344482421875,-0.30335262417793274,-0.009602762758731842,-0.26879191398620605
1761475988723380500,1.91738037109375,-0.29055941104888916,-0.021041279658675194,-0.24818108975887299
1761475988733417500,1.92741748046875,-0.27965083718299866,-0.04624463617801666,-0.22340038418769836
1761475988743453400,1.937453369140625,-0.2747301757335663,-0.08560654520988464,-0.20997455716133118
1761475988753490400,1.947490478515625,-0.28624674677848816,-0.12987519800662994,-0.21587291359901428
1761475988763526400,1.9575263671875,-0.29878079891204834,-0.16869083046913147,-0.2538575828075409
1761475988773563600,1.967563720703125,-0.29576635360717773,-0.18931275606155396,-0.3080989718437195
1761475988783599600,1.977599609375,-0.25225570797920227,-0.17213231325149536,-0.3535310924053192
1761475988793636600,1.98763671875,-0.1832505166530609,-0.16082559525966644,-0.37413063645362854
1761475988803672600,1.997672607421875,-0.1323852688074112,-0.1774149239063263,-0.3785412609577179
1761475988813709600,2.00770947265625,-0.13610942661762238,-0.2064628154039383,-0.3776826560497284
1761475988823745500,2.01774560546875,-0.19634705781936646,-0.2535654306411743,-0.3927885890007019
1761475988833782500,2.027782470703125,-0.2651223838329315,-0.29752621054649353,-0.4313617944717407
1761475988843818800,2.03781884765625,-0.2976319491863251,-0.32081422209739685,-0.4761562943458557
1761475988853855500,2.04785546875,-0.26835981011390686,-0.29445797204971313,-0.5037279725074768
1761475988863891700,2.0578916015625,-0.20850294828414917,-0.23819026350975037,-0.4990327060222626
1761475988873928400,2.067928466796875,-0.14758820831775665,-0.16640260815620422,-0.4609939754009247
1761475988883964400,2.07796435546875,-0.12336662411689758,-0.07923851907253265,-0.4005829393863678
1761475988894001400,2.08800146484375,-0.12201240658760071,0.02734464779496193,-0.3168227970600128
1761475988904037400,2.098037353515625,-0.13250130414962769,0.13814350962638855,-0.22911106050014496
1761475988914074600,2.10807470703125,-0.13636848330497742,0.21769079566001892,-0.14148586988449097
1761475988924110600,2.118110595703125,-0.12090301513671875,0.23944416642189026,-0.06150925159454346
1761475988934147600,2.128147705078125,-0.08259930461645126,0.1977260261774063,0.008904194459319115
1761475988944184600,2.1381845703125,-0.02890448085963726,0.11290986090898514,0.07465379685163498
1761475988954220500,2.148220458984375,0.031198538839817047,-0.0017932895570993423,0.1379009485244751
1761475988964257500,2.158257568359375,0.08465412259101868,-0.09584261476993561,0.19477218389511108
1761475988974293500,2.16829345703125,0.11658621579408646,-0.15334132313728333,0.23784083127975464
1761475988984330800,2.178330810546875,0.12080086022615433,-0.19098015129566193,0.26550838351249695
1761475988994366700,2.18836669921875,0.09412477910518646,-0.1933559626340866,0.2740158438682556
1761475989004403700,2.19840380859375,0.05682212486863136,-0.16557677090168,0.2685847580432892
1761475989014439700,2.208439697265625,0.002133576199412346,-0.11891153454780579,0.24666456878185272
1761475989024476400,2.218476318359375,-0.06431729346513748,-0.04471579194068909,0.22023223340511322
1761475989034512600,2.2285126953125,-0.13962429761886597,0.06291799247264862,0.18915367126464844
1761475989044549400,2.23854931640625,-0.2100280225276947,0.15395601093769073,0.15614961087703705
1761475989054585300,2.24858544921875,-0.26715975999832153,0.19611304998397827,0.11961609870195389
1761475989064622600,2.25862255859375,-0.3026818335056305,0.219868004322052,0.0871877446770668
1761475989074658600,2.268658447265625,-0.3154849708080292,0.21490174531936646,0.06648832559585571
1761475989084695600,2.278695556640625,-0.3063626289367676,0.18572136759757996,0.05241568759083748
1761475989094731500,2.2887314453125,-0.29126301407814026,0.1536792814731598,0.053525160998106
1761475989104768500,2.2987685546875,-0.2762235999107361,0.12158873677253723,0.06983306258916855
1761475989114804500,2.308804443359375,-0.2717854380607605,0.10853844881057739,0.10380487889051437
1761475989124841500,2.318841552734375,-0.28475964069366455,0.12442000210285187,0.15009118616580963
1761475989134877400,2.32887744140625,-0.31020480394363403,0.14908647537231445,0.19500406086444855
1761475989144914400,2.33891455078125,-0.33966198563575745,0.17104440927505493,0.22884565591812134
1761475989154950400,2.348950439453125,-0.36422884464263916,0.18766918778419495,0.25071313977241516
1761475989164986400,2.358986328125,-0.3737070858478546,0.21709328889846802,0.2716631293296814
1761475989175023600,2.369023681640625,-0.3707115650177002,0.23786622285842896,0.2856396734714508
1761475989185059600,2.3790595703125,-0.36529481410980225,0.2449081838130951,0.297209233045578
1761475989195096600,2.3890966796875,-0.3645874857902527,0.2516095042228699,0.31050214171409607
1761475989205132500,2.399132568359375,-0.3764306306838989,0.28338822722435,0.32845810055732727
1761475989215169500,2.40916943359375,-0.4141039550304413,0.32894641160964966,0.3324666917324066
1761475989225205500,2.41920556640625,-0.46519672870635986,0.36492520570755005,0.31331872940063477
1761475989235242200,2.4292421875,-0.5132761001586914,0.38722333312034607,0.27085942029953003
1761475989245278500,2.439278564453125,-0.538118302822113,0.39587774872779846,0.2159445881843567
1761475989255315500,2.4493154296875,-0.5448595285415649,0.38678041100502014,0.15342848002910614
1761475989265351400,2.459351318359375,-0.537186861038208,0.3525480329990387,0.09368811547756195
1761475989275388400,2.469388427734375,-0.5175582766532898,0.3190622329711914,0.050216808915138245
1761475989285424400,2.47942431640625,-0.4890209436416626,0.3066837191581726,0.026634905487298965
1761475989295461400,2.48946142578125,-0.46336618065834045,0.3044240474700928,0.014292484149336815
1761475989305497300,2.499497314453125,-0.44083765149116516,0.28613582253456116,0.015120486728847027
1761475989315534300,2.509534423828125,-0.4277671277523041,0.2907737195491791,0.033125586807727814
1761475989325570600,2.519570556640625,-0.42819973826408386,0.31720224022865295,0.04982162266969681
1761475989335607600,2.529607666015625,-0.42739468812942505,0.3356925845146179,0.0539066419005394
1761475989345643500,2.5396435546875,-0.4208497107028961,0.31122466921806335,0.03272397816181183
1761475989355680500,2.549680419921875,-0.40495970845222473,0.264552503824234,0.009810404852032661
1761475989365716500,2.559716552734375,-0.37750566005706787,0.2104005366563797,-0.010422350838780403
1761475989375753500,2.56975341796875,-0.3531281650066376,0.1502663642168045,-0.02922959253191948
1761475989385789400,2.57978955078125,-0.32856079936027527,0.08754611760377884,-0.04279082268476486
1761475989395826700,2.58982666015625,-0.3170660436153412,0.022854475304484367,-0.0691894069314003
1761475989405862700,2.599862548828125,-0.32282084226608276,-0.023401031270623207,-0.09098297357559204
1761475989415899400,2.6098994140625,-0.341180682182312,-0.03866014629602432,-0.1177717074751854
1761475989425935600,2.619935546875,-0.364641010761261,-0.03179707005620003,-0.15265093743801117
1761475989435972400,2.629972412109375,-0.3856469392776489,-0.022900249809026718,-0.20038942992687225
1761475989446008300,2.64000830078125,-0.39373260736465454,-0.014887590892612934,-0.25138401985168457
1761475989456044500,2.65004443359375,-0.3939656615257263,-0.0019518183544278145,-0.3086283802986145
1761475989466081300,2.660081298828125,-0.38175031542778015,0.000917789526283741,-0.3662438988685608
1761475989476117200,2.6701171875,-0.36164984107017517,-0.009997975081205368,-0.41451871395111084
1761475989486154500,2.680154541015625,-0.3299412429332733,-0.0291571244597435,-0.44457441568374634
1761475989496190500,2.6901904296875,-0.287495493888855,-0.04769672080874443,-0.4445115625858307
1761475989506227500,2.7002275390625,-0.24035857617855072,-0.06509426236152649,-0.4195433557033539
1761475989516263400,2.710263427734375,-0.1914038211107254,-0.08989708125591278,-0.3845504820346832
1761475989526300400,2.720300537109375,-0.14518524706363678,-0.11662745475769043,-0.35352879762649536
1761475989536336400,2.73033642578125,-0.11167681962251663,-0.14154186844825745,-0.32448810338974
1761475989546373400,2.740373291015625,-0.08738046139478683,-0.13348862528800964,-0.30361154675483704
1761475989556409300,2.750409423828125,-0.06758279353380203,-0.10958383232355118,-0.3020349442958832
1761475989566446600,2.760446533203125,-0.0576026476919651,-0.09516170620918274,-0.32181066274642944
1761475989576482600,2.770482666015625,-0.0466298945248127,-0.09432387351989746,-0.3562048673629761
1761475989586519600,2.78051953125,-0.038849323987960815,-0.0898226648569107,-0.3936275243759155
1761475989596555500,2.790555419921875,-0.028241954743862152,-0.07326419651508331,-0.4219995141029358
1761475989606592500,2.800592529296875,-0.01586674153804779,-0.06657584011554718,-0.4407505393028259
1761475989616628500,2.81062841796875,0.003888320177793503,-0.062283892184495926,-0.44576555490493774
1761475989626665500,2.82066552734375,0.029400896281003952,-0.06584668904542923,-0.4327990710735321
1761475989636701700,2.83070166015625,0.0482155978679657,-0.08646674454212189,-0.4066428542137146
1761475989646737700,2.840737548828125,0.05885136127471924,-0.09760233759880066,-0.37434035539627075
1761475989656774400,2.8507744140625,0.061711594462394714,-0.11916409432888031,-0.3483758568763733
1761475989666810600,2.860810546875,0.0553441196680069,-0.13860130310058594,-0.33128705620765686
1761475989676847400,2.870847412109375,0.049013517796993256,-0.15309742093086243,-0.32051777839660645
1761475989686883300,2.88088330078125,0.03767518699169159,-0.16718560457229614,-0.3168485164642334
1761475989696920300,2.89092041015625,0.03407033160328865,-0.17719562351703644,-0.328267902135849
1761475989706956300,2.900956298828125,0.03538189083337784,-0.19001303613185883,-0.3427670896053314
1761475989716993500,2.91099365234375,0.0367632731795311,-0.199900284409523,-0.3665083646774292
1761475989727029500,2.921029541015625,0.038813795894384384,-0.1934521645307541,-0.3923512101173401
1761475989737066500,2.93106640625,0.044899117201566696,-0.17295461893081665,-0.4176243245601654
1761475989747102500,2.9411025390625,0.039995476603507996,-0.1559484601020813,-0.4242907464504242
1761475989757139500,2.951139404296875,0.03844844549894333,-0.13974232971668243,-0.40620094537734985
1761475989767175400,2.961175537109375,0.030004316940903664,-0.11967126280069351,-0.36743220686912537
1761475989777212400,2.97121240234375,0.021691525354981422,-0.10527288168668747,-0.3207091987133026
1761475989787248400,2.981248291015625,0.024991227313876152,-0.1083066388964653,-0.2834097743034363
1761475989797285600,2.99128564453125,0.03327525407075882,-0.10820703953504562,-0.24586986005306244
1761475989807321600,3.001321533203125,0.048463474959135056,-0.10848023742437363,-0.21243828535079956
1761475989817357600,3.011357666015625,0.0626024678349495,-0.09953734278678894,-0.18087637424468994
1761475989827394600,3.02139453125,0.06548064202070236,-0.08184028416872025,-0.15280388295650482
1761475989837430500,3.031430419921875,0.05507540702819824,-0.04606098681688309,-0.1281970739364624
1761475989847467500,3.041467529296875,0.028161976486444473,0.0007132147438824177,-0.11308512091636658
1761475989857503500,3.05150341796875,-0.01401450578123331,0.05390186607837677,-0.09999488294124603
1761475989867540500,3.06154052734375,-0.06208750233054161,0.11078376322984695,-0.10116342455148697
1761475989877576400,3.071576416015625,-0.1119764968752861,0.1372060477733612,-0.11431944370269775
1761475989887613400,3.081613525390625,-0.1642611175775528,0.13375349342823029,-0.13436396420001984
1761475989897649400,3.0916494140625,-0.21156765520572662,0.11363543570041656,-0.16996245086193085
1761475989907686400,3.101686279296875,-0.22044020891189575,0.06425969302654266,-0.19825340807437897
1761475989917722400,3.111722412109375,-0.18752753734588623,0.009453968144953251,-0.2176864892244339
1761475989927759400,3.12175927734375,-0.1307036131620407,-0.02898610569536686,-0.21167883276939392
1761475989937795300,3.13179541015625,-0.0974082350730896,-0.051636021584272385,-0.1959368884563446
1761475989947832600,3.14183251953125,-0.09399666637182236,-0.0469994992017746,-0.1813228875398636
1761475989957868500,3.15186865234375,-0.12132735550403595,-0.02564574033021927,-0.17565195262432098
1761475989967905500,3.161905517578125,-0.14730237424373627,0.0270074475556612,-0.1697918027639389
1761475989977941500,3.17194140625,-0.16053162515163422,0.09320057928562164,-0.15968137979507446
1761475989987978500,3.181978515625,-0.1705719232559204,0.15607962012290955,-0.1265423744916916
1761475989998014500,3.192014404296875,-0.18244829773902893,0.21919786930084229,-0.0813080444931984
1761475990008050400,3.202050537109375,-0.19705596566200256,0.28466448187828064,-0.018585994839668274
1761475990018087400,3.21208740234375,-0.22635473310947418,0.3451067805290222,0.05899748206138611
1761475990028123400,3.222123291015625,-0.2595920264720917,0.4081553816795349,0.14050208032131195
1761475990038160600,3.23216064453125,-0.29321175813674927,0.46916842460632324,0.22405529022216797
1761475990048196600,3.242196533203125,-0.3210449814796448,0.5120510458946228,0.30278176069259644
1761475990058233600,3.252233642578125,-0.3361099362373352,0.5334932208061218,0.3712439239025116
1761475990068269600,3.26226953125,-0.3528205156326294,0.5712622404098511,0.43130946159362793
1761475990078306600,3.272306640625,-0.3693036139011383,0.6353328227996826,0.46779584884643555
1761475990088342500,3.282342529296875,-0.40828976035118103,0.6772833466529846,0.4737904667854309
1761475990098379300,3.292379150390625,-0.45826292037963867,0.701250433921814,0.4465665817260742
1761475990108415500,3.30241552734375,-0.5178766250610352,0.7072674036026001,0.3772393465042114
1761475990118452500,3.312452392578125,-0.5690804123878479,0.7196345925331116,0.2976219952106476
1761475990128488400,3.322488525390625,-0.6031976938247681,0.7327865958213806,0.22571741044521332
1761475990138528500,3.332528564453125,-0.6190181970596313,0.7682545781135559,0.19006779789924622
1761475990148564500,3.342564453125,-0.6140878796577454,0.8110824823379517,0.1901058852672577
1761475990158601500,3.3526015625,-0.5849670171737671,0.8432241678237915,0.2261807918548584
1761475990168637400,3.362637451171875,-0.5393469929695129,0.8592888712882996,0.27737224102020264
1761475990178674400,3.37267431640625,-0.4764617383480072,0.8510602712631226,0.34874096512794495
1761475990188710400,3.38271044921875,-0.4106302857398987,0.8180222511291504,0.417849063873291
1761475990198747600,3.39274755859375,-0.3512737452983856,0.7937648296356201,0.47765353322029114
1761475990208783600,3.40278369140625,-0.3126460313796997,0.7612643837928772,0.5174510478973389
1761475990218819600,3.412819580078125,-0.3049774467945099,0.7236493825912476,0.5057283043861389
1761475990228856600,3.422856689453125,-0.3133315145969391,0.7011021971702576,0.4633733034133911
1761475990238892500,3.432892578125,-0.33256006240844727,0.7046492695808411,0.3852960765361786
1761475990248929500,3.442929443359375,-0.34107261896133423,0.7198963165283203,0.2855157256126404
1761475990258965500,3.452965576171875,-0.32786333560943604,0.7615148425102234,0.19796110689640045
1761475990269002500,3.46300244140625,-0.2925248444080353,0.8127891421318054,0.12616193294525146
1761475990279038700,3.473038818359375,-0.24948258697986603,0.8448256254196167,0.0844871923327446
1761475990289075700,3.48307568359375,-0.19347234070301056,0.862496554851532,0.07258624583482742
1761475990299111700,3.493111572265625,-0.13601277768611908,0.8633798956871033,0.08099570870399475
1761475990309148700,3.503148681640625,-0.0864357054233551,0.8412638306617737,0.09648967534303665
1761475990319184600,3.5131845703125,-0.049566108733415604,0.7958909869194031,0.1253112107515335
1761475990329221400,3.523221435546875,-0.013441171497106552,0.7436918616294861,0.14652705192565918
1761475990339257600,3.533257568359375,0.021981533616781235,0.6907503604888916,0.16030491888523102
1761475990349294600,3.543294677734375,0.0731656402349472,0.6233513951301575,0.17204514145851135
1761475990359330600,3.55333056640625,0.14423607289791107,0.5470398664474487,0.18071454763412476
1761475990369367600,3.563367431640625,0.23303081095218658,0.4785063564777374,0.19694602489471436
1761475990379403500,3.573403564453125,0.3274611830711365,0.42476215958595276,0.229304239153862
1761475990389440500,3.5834404296875,0.40854373574256897,0.3701722025871277,0.2597189247608185
1761475990399476500,3.5934765625,0.4697493016719818,0.3051990568637848,0.3022456169128418
1761475990409513500,3.603513427734375,0.5103801488876343,0.2344972789287567,0.3426084816455841
1761475990419549400,3.613549560546875,0.5256906151771545,0.16059669852256775,0.3971175253391266
1761475990429586700,3.623586669921875,0.5127148628234863,0.10234952718019485,0.446270227432251
1761475990439622700,3.63362255859375,0.464619517326355,0.06846319884061813,0.4823099672794342
1761475990449659600,3.64365966796875,0.37969645857810974,0.04803324490785599,0.4955117702484131
1761475990459695600,3.653695556640625,0.2768017649650574,0.038880493491888046,0.4666953384876251
1761475990469732600,3.663732666015625,0.15853245556354523,0.06189991161227226,0.40126833319664
1761475990479768600,3.6737685546875,0.04401305690407753,0.09990748018026352,0.29817336797714233
1761475990489805600,3.6838056640625,-0.06660008430480957,0.13813987374305725,0.1876697987318039
1761475990499841500,3.693841552734375,-0.16253140568733215,0.16350941359996796,0.07492567598819733
1761475990509877500,3.70387744140625,-0.24090133607387543,0.1811220943927765,-0.0035415850579738617
1761475990519914800,3.713914794921875,-0.3072928488254547,0.21134443581104279,-0.05195599049329758
1761475990529950700,3.72395068359375,-0.3769318759441376,0.24103696644306183,-0.06682772934436798
1761475990539987500,3.733987548828125,-0.45769622921943665,0.26577532291412354,-0.06765064597129822
1761475990550023700,3.744023681640625,-0.5553610920906067,0.29085010290145874,-0.06410137563943863
1761475990560060400,3.754060302734375,-0.6713361740112305,0.30973005294799805,-0.06993209570646286
1761475990570096400,3.764096435546875,-0.7918485403060913,0.31384387612342834,-0.08677160739898682
1761475990580133400,3.77413330078125,-0.9043010473251343,0.32282325625419617,-0.10916692763566971
1761475990590169600,3.784169677734375,-0.9937673807144165,0.3063521087169647,-0.13430705666542053
1761475990600206600,3.79420654296875,-1.0396003723144531,0.26274576783180237,-0.14432719349861145
1761475990610242600,3.80424267578125,-1.0564039945602417,0.2002408504486084,-0.14010471105575562
1761475990620279600,3.814279541015625,-1.0496177673339844,0.14237141609191895,-0.11702815443277359
1761475990630315500,3.8243154296875,-1.0353564023971558,0.08551104366779327,-0.06854315102100372
1761475990640352500,3.8343525390625,-1.0232139825820923,0.05745570361614227,0.005275947041809559
1761475990650388500,3.844388427734375,-1.0166106224060059,0.04858170822262764,0.09001564234495163
1761475990660425700,3.85442578125,-1.0284576416015625,0.03424005210399628,0.16945640742778778
1761475990670461700,3.864461669921875,-1.060518503189087,0.003151192329823971,0.23030869662761688
1761475990680498700,3.874498779296875,-1.1106657981872559,-0.03352027013897896,0.267046183347702
1761475990690534700,3.88453466796875,-1.1696265935897827,-0.06824339926242828,0.29280737042427063
1761475990700571600,3.894571533203125,-1.2328760623931885,-0.0747271329164505,0.30396705865859985
1761475990710607600,3.904607666015625,-1.2922720909118652,-0.08621517568826675,0.3076147437095642
1761475990720644400,3.914644287109375,-1.3489936590194702,-0.09937784820795059,0.30707281827926636
1761475990730680600,3.9246806640625,-1.4007656574249268,-0.09840637445449829,0.29251277446746826
1761475990740717600,3.934717529296875,-1.4655147790908813,-0.08393076062202454,0.27170416712760925
1761475990750753500,3.94475341796875,-1.5338934659957886,-0.0714491605758667,0.24640542268753052
1761475990760790500,3.95479052734375,-1.6142373085021973,-0.06438939273357391,0.23307497799396515
1761475990770826500,3.964826416015625,-1.6854021549224854,-0.05807818844914436,0.2277848869562149
1761475990780863500,3.974863525390625,-1.7409849166870117,-0.06212006136775017,0.24028655886650085
1761475990790899500,3.9848994140625,-1.7868250608444214,-0.08344247937202454,0.25766080617904663
1761475990800936400,3.9949365234375,-1.8121976852416992,-0.11625981330871582,0.2702285051345825
1761475990810972400,4.004972412109375,-1.8316961526870728,-0.16552574932575226,0.2734489440917969
1761475990821009700,4.015009765625,-1.8477107286453247,-0.21816712617874146,0.2774900197982788
1761475990831045600,4.025045654296875,-1.860002040863037,-0.2520488500595093,0.29103758931159973
1761475990841082600,4.03508251953125,-1.8766993284225464,-0.27692756056785583,0.3086370825767517
1761475990851118600,4.04511865234375,-1.894569993019104,-0.2967885434627533,0.32074835896492004
1761475990861155600,4.055155517578125,-1.9130072593688965,-0.3216307759284973,0.33575499057769775
1761475990871191600,4.065191650390625,-1.9305363893508911,-0.3752070665359497,0.3436461389064789
1761475990881228500,4.075228515625,-1.9433717727661133,-0.43641582131385803,0.341205358505249
1761475990891264500,4.085264404296875,-1.9525833129882812,-0.5049315690994263,0.337954580783844
1761475990901301500,4.095301513671875,-1.9526067972183228,-0.5782585144042969,0.34461650252342224
1761475990911337700,4.105337646484375,-1.9479016065597534,-0.6495115756988525,0.35492101311683655
1761475990921374500,4.11537451171875,-1.9385632276535034,-0.704923152923584,0.3626396656036377
1761475990931410400,4.125410400390625,-1.9175729751586914,-0.7504420876502991,0.38899534940719604
1761475990941447400,4.135447509765625,-1.8990453481674194,-0.7676724791526794,0.4192240834236145
1761475990951483400,4.1454833984375,-1.8880387544631958,-0.770423948764801,0.44733235239982605
1761475990961520400,4.155520263671875,-1.8886404037475586,-0.7723858952522278,0.4811672866344452
1761475990971556600,4.165556640625,-1.9012364149093628,-0.7862676382064819,0.5109509825706482
1761475990981593600,4.175593505859375,-1.9182240962982178,-0.8099724054336548,0.5328139066696167
1761475990991629600,4.185629638671875,-1.9338260889053345,-0.8535848259925842,0.54025799036026
1761475991001666600,4.19566650390625,-1.9498628377914429,-0.9220805168151855,0.5274236798286438
1761475991011702500,4.20570263671875,-1.96749746799469,-0.9874643683433533,0.5048884153366089
1761475991021739500,4.215739501953125,-2.0000720024108887,-1.0246258974075317,0.47534647583961487
1761475991031775500,4.225775390625,-2.0508930683135986,-1.0220215320587158,0.4318530857563019
1761475991041812700,4.235812744140625,-2.1161773204803467,-0.9936726689338684,0.3797379434108734
1761475991051848700,4.2458486328125,-2.185364007949829,-0.9464420080184937,0.3114834725856781
1761475991061885700,4.2558857421875,-2.2457644939422607,-0.9083095788955688,0.24113979935646057
1761475991071921700,4.265921630859375,-2.300398588180542,-0.8876556754112244,0.1799677014350891
1761475991081958700,4.275958740234375,-2.3432209491729736,-0.8623354434967041,0.14417482912540436
1761475991091994600,4.28599462890625,-2.380342483520508,-0.8302295804023743,0.1307453066110611
1761475991102031400,4.29603125,-2.411186695098877,-0.8018821477890015,0.13846048712730408
1761475991112067600,4.306067626953125,-2.4379756450653076,-0.7673251628875732,0.15916097164154053
1761475991122104600,4.3161044921875,-2.450840950012207,-0.7336319088935852,0.16647453606128693
1761475991132140500,4.326140625,-2.458117961883545,-0.7225837111473083,0.14940884709358215
1761475991142174000,4.336174072265625,-2.4606845378875732,-0.7364803552627563,0.10035528987646103
1761475991152210000,4.3462099609375,-2.4570271968841553,-0.770841121673584,0.034520991146564484
1761475991162247000,4.356246826171875,-2.4483468532562256,-0.8385277390480042,-0.04744604974985123
1761475991172283000,4.366282958984375,-2.4227709770202637,-0.9262129664421082,-0.1276988536119461
1761475991182320000,4.376320068359375,-2.3977999687194824,-1.0067538022994995,-0.1902458518743515
1761475991192356000,4.386356201171875,-2.3894121646881104,-1.0828038454055786,-0.23641254007816315
1761475991202393000,4.39639306640625,-2.408405065536499,-1.148146152496338,-0.27760472893714905
1761475991212429000,4.406428955078125,-2.454033136367798,-1.1746145486831665,-0.33017632365226746
1761475991222466000,4.416466064453125,-2.5101988315582275,-1.152320146560669,-0.39214807748794556
1761475991232502000,4.426501953125,-2.5600132942199707,-1.0805941820144653,-0.4765551686286926
1761475991242539300,4.436539306640625,-2.5963993072509766,-0.9762095212936401,-0.5627784729003906
1761475991252575200,4.4465751953125,-2.6181068420410156,-0.8407471179962158,-0.6466231942176819
1761475991262612200,4.4566123046875,-2.6143686771392822,-0.6514486074447632,-0.7010901570320129
1761475991272648200,4.466648193359375,-2.570272445678711,-0.43574637174606323,-0.7277736663818359
1761475991282685000,4.476684814453125,-2.492520570755005,-0.2362670749425888,-0.7238137722015381
1761475991292721200,4.48672119140625,-2.3980698585510254,-0.04764997959136963,-0.6932068467140198
1761475991302758000,4.4967578125,-2.3019583225250244,0.10541227459907532,-0.649924635887146
1761475991312793900,4.5067939453125,-2.212628126144409,0.23520423471927643,-0.6008017063140869
1761475991322831000,4.5168310546875,-2.1343321800231934,0.3414270579814911,-0.5708403587341309
1761475991332867000,4.5268671875,-2.058506965637207,0.4071057140827179,-0.5716484785079956
1761475991342904000,4.536904052734375,-1.9950059652328491,0.40797895193099976,-0.6024370193481445
1761475991352940000,4.54693994140625,-1.9217329025268555,0.34818997979164124,-0.6360570192337036
1761475991362977000,4.55697705078125,-1.8096134662628174,0.2678149938583374,-0.6615251302719116
1761475991373013000,4.567012939453125,-1.6271107196807861,0.18612432479858398,-0.6647573113441467
1761475991383050000,4.577050048828125,-1.37380051612854,0.056922927498817444,-0.6414154767990112
1761475991393086000,4.5870859375,-1.083594799041748,-0.11230093240737915,-0.5755218267440796
1761475991403123200,4.597123291015625,-0.8645488619804382,-0.3142220973968506,-0.4788477420806885
1761475991413159200,4.6071591796875,-0.7447271347045898,-0.4869924783706665,-0.35590118169784546
1761475991423196200,4.617196044921875,-0.6383753418922424,-0.5328717827796936,-0.1949426382780075
1761475991433232100,4.627232177734375,-0.5608047246932983,-0.4697383642196655,-0.02608182281255722
1761475991443268000,4.63726806640625,-0.5473892688751221,-0.382510781288147,0.11217884719371796
1761475991453305000,4.64730517578125,-0.6239057183265686,-0.34565722942352295,0.19730643928050995
1761475991463341800,4.657341796875,-0.7887500524520874,-0.3448345959186554,0.20688369870185852
1761475991473378000,4.6673779296875,-0.9716231226921082,-0.3390766382217407,0.15285688638687134
1761475991483415000,4.6774150390625,-1.0952450037002563,-0.3303430676460266,0.07990385591983795
1761475991493451000,4.687450927734375,-1.1388912200927734,-0.3003680109977722,0.00778471864759922
1761475991503487200,4.6974873046875,-1.1173046827316284,-0.2674630582332611,-0.06434087455272675
1761475991513524000,4.70752392578125,-1.082826018333435,-0.233243927359581,-0.12111204862594604
1761475991523560000,4.717559814453125,-1.0726112127304077,-0.19133643805980682,-0.152683287858963
1761475991533597000,4.727596923828125,-1.0959571599960327,-0.11121175438165665,-0.15660807490348816
1761475991543633000,4.7376328125,-1.1584542989730835,-0.01434273086488247,-0.14256548881530762
1761475991553670100,4.747670166015625,-1.2465808391571045,0.06287561357021332,-0.1110423356294632
1761475991563706000,4.7577060546875,-1.3474541902542114,0.09885013103485107,-0.0688093900680542
1761475991573743000,4.7677431640625,-1.4350192546844482,0.08908920735120773,-0.024597831070423126
1761475991583779000,4.777779052734375,-1.4814120531082153,0.04297417774796486,0.0033874642103910446
1761475991593816000,4.787816162109375,-1.4929091930389404,-0.02502725087106228,0.035987064242362976
1761475991603852000,4.79785205078125,-1.4827805757522583,-0.10988488048315048,0.07063478976488113
1761475991613889000,4.807888916015625,-1.4755727052688599,-0.12551981210708618,0.106075219810009
1761475991623925000,4.817925048828125,-1.4702386856079102,-0.06058022752404213,0.14700853824615479
1761475991633962200,4.827962158203125,-1.4662630558013916,0.035758040845394135,0.1778748780488968
1761475991643998200,4.837998291015625,-1.4529938697814941,0.10278500616550446,0.19290070235729218
1761475991654035200,4.84803515625,-1.4286506175994873,0.11663687229156494,0.1991955041885376
1761475991664071200,4.8580712890625,-1.3919267654418945,0.10426542162895203,0.20750029385089874
1761475991674108000,4.86810791015625,-1.3492540121078491,0.07222051173448563,0.23112498223781586
1761475991684144000,4.87814404296875,-1.3101931810379028,0.008618365041911602,0.2688196301460266
1761475991694180900,4.888180908203125,-1.2746809720993042,-0.0794084295630455,0.31797224283218384
1761475991704216800,4.898216796875,-1.2513890266418457,-0.15667952597141266,0.3644936978816986
1761475991714254000,4.908254150390625,-1.234147548675537,-0.23452624678611755,0.40747153759002686
1761475991724290000,4.9182900390625,-1.2136430740356445,-0.28853940963745117,0.42932596802711487
1761475991734327000,4.9283271484375,-1.1821534633636475,-0.3626156747341156,0.43718159198760986
1761475991744363000,4.938363037109375,-1.1342376470565796,-0.38520514965057373,0.43142062425613403
1761475991754400000,4.94839990234375,-1.077933669090271,-0.41726046800613403,0.42790931463241577
1761475991764436000,4.95843603515625,-1.0127462148666382,-0.4466596245765686,0.4419170022010803
1761475991774473000,4.968472900390625,-0.9514245986938477,-0.4454915225505829,0.4814583659172058
1761475991784509000,4.978509033203125,-0.905373752117157,-0.4302172362804413,0.5428282618522644
1761475991794546200,4.988546142578125,-0.8788992762565613,-0.4400266110897064,0.5857608318328857
1761475991804582100,4.99858203125,-0.8546559810638428,-0.4929681122303009,0.6073631048202515
1761475991814619100,5.008619140625,-0.8034668564796448,-0.5741993188858032,0.6209244728088379
1761475991824655000,5.018655029296875,-0.7289364337921143,-0.6697625517845154,0.6203950643539429
1761475991834692000,5.028692138671875,-0.6504077911376953,-0.7768993377685547,0.6180887222290039
1761475991844728000,5.03872802734375,-0.5791264176368713,-0.8815865516662598,0.6074808239936829
1761475991854765000,5.04876513671875,-0.5352135300636292,-0.9491037130355835,0.6099700331687927
1761475991864801300,5.05880126953125,-0.5299966335296631,-0.9551725387573242,0.5968502759933472
1761475991874838000,5.068838134765625,-0.5523019433021545,-0.9426389336585999,0.5645387172698975
1761475991884874000,5.0788740234375,-0.595387876033783,-0.9395893216133118,0.49915358424186707
1761475991894911000,5.088910888671875,-0.638919472694397,-0.9460082650184631,0.41761264204978943
1761475991904947000,5.098947021484375,-0.6619896292686462,-0.9436098337173462,0.3220701515674591
1761475991914984000,5.10898388671875,-0.6641680598258972,-0.9357024431228638,0.2405562698841095
1761475991925020000,5.11902001953125,-0.6669199466705322,-0.8811087012290955,0.18271906673908234
1761475991935057200,5.12905712890625,-0.6895843148231506,-0.7866261601448059,0.14775392413139343
1761475991945093000,5.139093017578125,-0.7473360300064087,-0.6803165078163147,0.11401194334030151
1761475991955130000,5.149130126953125,-0.8210877776145935,-0.5950331687927246,0.07594616711139679
1761475991965166000,5.159166015625,-0.8877956867218018,-0.5237196087837219,0.01991964876651764
1761475991975203000,5.169203125,-0.9267473220825195,-0.48586052656173706,-0.05477668344974518
1761475991985239000,5.179239013671875,-0.9330043792724609,-0.5046461820602417,-0.1198054850101471
1761475991995276000,5.189276123046875,-0.9149130582809448,-0.5587594509124756,-0.1741088330745697
1761475992005312000,5.19931201171875,-0.890156090259552,-0.5992903709411621,-0.19698937237262726
1761475992015348000,5.209347900390625,-0.8790886998176575,-0.6037799715995789,-0.1957840621471405
1761475992025385200,5.21938525390625,-0.8803616762161255,-0.5683844685554504,-0.18682332336902618
1761475992035421200,5.229421142578125,-0.8915165066719055,-0.5066508054733276,-0.18411168456077576
1761475992045458200,5.239458251953125,-0.8962960839271545,-0.4299885332584381,-0.1886742264032364
1761475992055494100,5.249494140625,-0.8923051357269287,-0.35370340943336487,-0.19861653447151184
1761475992065531100,5.25953125,-0.876055896282196,-0.2517858147621155,-0.18511083722114563
1761475992075567000,5.269567138671875,-0.8477305769920349,-0.13805486261844635,-0.15930768847465515
1761475992085603800,5.279603759765625,-0.8138031959533691,-0.04124176874756813,-0.11553838104009628
1761475992095640000,5.28964013671875,-0.7762929797172546,0.03566001355648041,-0.06703533232212067
1761475992105677000,5.299677001953125,-0.7280082702636719,0.1090596616268158,-0.018349822610616684
1761475992115713000,5.309713134765625,-0.6778837442398071,0.1690378338098526,0.02006058394908905
1761475992125750000,5.31975,-0.6266139149665833,0.21963176131248474,0.04392916336655617
1761475992135786000,5.329785888671875,-0.5893175005912781,0.2529090940952301,0.05183630809187889
1761475992145828600,5.33982861328125,-0.5671672224998474,0.2540856897830963,0.03251933678984642
1761475992155864800,5.34986474609375,-0.5557165145874023,0.20016899704933167,-0.01875670626759529
1761475992165901600,5.359901611328125,-0.5447403192520142,0.08619687706232071,-0.09885074198246002
1761475992175937500,5.3699375,-0.5433054566383362,-0.0418659970164299,-0.1941232830286026
1761475992185974500,5.379974609375,-0.5553370714187622,-0.19347389042377472,-0.3013450801372528
1761475992196010800,5.3900107421875,-0.579520046710968,-0.39086076617240906,-0.41700464487075806
1761475992206047700,5.4000478515625,-0.5859760642051697,-0.6185554265975952,-0.5349291563034058
1761475992216083700,5.410083740234375,-0.5503063797950745,-0.8347654342651367,-0.6232419013977051
1761475992226119700,5.42011962890625,-0.48572975397109985,-0.9817120432853699,-0.6560301780700684
1761475992236156700,5.43015673828125,-0.4045643210411072,-0.983572781085968,-0.6110701560974121
1761475992246192600,5.440192626953125,-0.3323726952075958,-0.8271898031234741,-0.48618870973587036
1761475992256229600,5.450229736328125,-0.2796640396118164,-0.5349289178848267,-0.2928386330604553
1761475992266265600,5.460265625,-0.2547094225883484,-0.10907799750566483,-0.07309642434120178
1761475992276302800,5.470302734375,-0.23398365080356598,0.30933043360710144,0.12414977699518204
1761475992286338800,5.4803388671875,-0.22022895514965057,0.5832514762878418,0.24086013436317444
1761475992296375800,5.490375732421875,-0.19935713708400726,0.6873472929000854,0.2739332616329193
1761475992306411800,5.500411865234375,-0.1679251790046692,0.6340353488922119,0.22474147379398346
1761475992316448800,5.51044873046875,-0.11498028039932251,0.4733150899410248,0.11161701381206512
1761475992326484700,5.520484619140625,-0.06333252787590027,0.23638509213924408,-0.02145048975944519
1761475992336521700,5.530521728515625,-0.031221888959407806,-0.04083939641714096,-0.1452951580286026
1761475992346557700,5.5405576171875,-0.031579017639160156,-0.30183422565460205,-0.24681086838245392
1761475992356594700,5.5505947265625,-0.04360244423151016,-0.5106132626533508,-0.31577596068382263
1761475992366631000,5.560630859375,-0.06337481737136841,-0.6384146213531494,-0.35107484459877014
1761475992376667600,5.570667724609375,-0.0796336680650711,-0.6883838772773743,-0.35225555300712585
1761475992386703600,5.58070361328125,-0.07907679677009583,-0.6565425992012024,-0.32613179087638855
1761475992396740600,5.59074072265625,-0.054631948471069336,-0.55178302526474,-0.2803097367286682
1761475992406776600,5.600776611328125,0.005995181389153004,-0.42035922408103943,-0.22269968688488007
1761475992416813600,5.6108134765625,0.08106058090925217,-0.2929573059082031,-0.16698460280895233
1761475992426849500,5.620849609375,0.13981710374355316,-0.19070789217948914,-0.12079046666622162
1761475992436886800,5.63088671875,0.15699976682662964,-0.12333067506551743,-0.08407815545797348
1761475992446922800,5.6409228515625,0.13817521929740906,-0.08593004196882248,-0.062148623168468475
1761475992456958700,5.650958740234375,0.09814243018627167,-0.07498092949390411,-0.03846760094165802
1761475992466995700,5.66099560546875,0.05633639171719551,-0.05732603371143341,-0.004366621375083923
1761475992477031700,5.67103173828125,0.026104561984539032,-0.015760555863380432,0.043814271688461304
1761475992487068700,5.681068603515625,0.025597229599952698,0.035797711461782455,0.10278517752885818
1761475992497104600,5.691104736328125,0.047969475388526917,0.06717436015605927,0.1429596096277237
1761475992507142000,5.701141845703125,0.0769643783569336,0.07278004288673401,0.15145881474018097
1761475992517177900,5.711177734375,0.102057084441185,0.07048235833644867,0.13530316948890686
1761475992527214800,5.72121484375,0.11257657408714294,0.07274898141622543,0.10267198830842972
1761475992537250800,5.731250732421875,0.11235843598842621,0.07944881916046143,0.06027165427803993
1761475992547287800,5.741287841796875,0.10742146521806717,0.05525347217917442,0.02294318750500679
1761475992557323800,5.75132373046875,0.10702624917030334,0.0023537720553576946,0.002099958248436451
1761475992567360500,5.761360595703125,0.1193806529045105,-0.025859758257865906,0.020563386380672455
1761475992577396700,5.771396728515625,0.13842874765396118,-0.032396476715803146,0.05510126054286957
1761475992587433700,5.781433837890625,0.14903850853443146,-0.03847913816571236,0.0959797203540802
1761475992597469700,5.7914697265625,0.15971194207668304,-0.0645010769367218,0.1373329907655716
1761475992607506700,5.801506591796875,0.17115181684494019,-0.09594076126813889,0.1734963208436966
1761475992617542700,5.811542724609375,0.18790864944458008,-0.1293550282716751,0.19374197721481323
1761475992627579600,5.82157958984375,0.20711001753807068,-0.13439959287643433,0.20132240653038025
1761475992637615600,5.83161572265625,0.22598908841609955,-0.08718498796224594,0.18589560687541962
1761475992647652600,5.841652587890625,0.24013713002204895,-0.02159319631755352,0.14640438556671143
1761475992657688600,5.8516884765625,0.25074875354766846,0.04566440358757973,0.082857646048069
1761475992667724500,5.861724609375,0.2602389454841614,0.11130759865045547,-0.001147775910794735
1761475992677761800,5.87176171875,0.25007909536361694,0.1536676287651062,-0.09488659352064133
1761475992687797800,5.8817978515625,0.2187957614660263,0.16026294231414795,-0.17795777320861816
1761475992697834800,5.891834716796875,0.17467255890369415,0.14095619320869446,-0.24306456744670868
1761475992707870700,5.90187060546875,0.12740784883499146,0.07947659492492676,-0.2777610421180725
1761475992717907700,5.91190771484375,0.07907935976982117,0.018831776455044746,-0.28758203983306885
1761475992727943700,5.921943603515625,0.03829411789774895,-0.03489882871508598,-0.27374398708343506
1761475992737980700,5.931980712890625,-0.005683140829205513,-0.0793619379401207,-0.2563563287258148
1761475992748017000,5.942016845703125,-0.04134739190340042,-0.09589164704084396,-0.24196219444274902
1761475992758054000,5.952053955078125,-0.10358095169067383,-0.11570221185684204,-0.25514769554138184
1761475992768089900,5.96208984375,-0.1367333084344864,-0.09791682660579681,-0.2502445578575134
1761475992778126600,5.972126708984375,-0.10418089479207993,-0.03148976340889931,-0.22278466820716858
1761475992788162800,5.982162841796875,-0.04546191915869713,0.03818598762154579,-0.19405502080917358
1761475992798199600,5.992199462890625,0.005915757268667221,0.0609605647623539,-0.18792210519313812
1761475992808235500,6.002235595703125,0.013547312468290329,0.025335989892482758,-0.2005191296339035
1761475992818272800,6.012272705078125,-0.023226909339427948,-0.05734948068857193,-0.23214122653007507
1761475992828308700,6.022308837890625,-0.09117665886878967,-0.1669153869152069,-0.2632826268672943
1761475992838345700,6.032345703125,-0.14987778663635254,-0.2573448419570923,-0.2788565754890442
1761475992848381700,6.042381591796875,-0.1926947683095932,-0.30386361479759216,-0.2647905647754669
1761475992858418700,6.052418701171875,-0.20626309514045715,-0.3135501444339752,-0.2187238186597824
1761475992868454700,6.06245458984375,-0.19472149014472961,-0.2905502915382385,-0.17305833101272583
1761475992878491600,6.07249169921875,-0.168253093957901,-0.26286423206329346,-0.149345263838768
1761475992888527600,6.082527587890625,-0.13406290113925934,-0.24156934022903442,-0.1560966521501541
1761475992898563600,6.0925634765625,-0.09971567988395691,-0.22365692257881165,-0.18106497824192047
1761475992908600800,6.102600830078125,-0.07350484281778336,-0.22451739013195038,-0.22224357724189758
1761475992918636800,6.11263671875,-0.06127972900867462,-0.24313940107822418,-0.2618129849433899
1761475992928673800,6.122673828125,-0.05682586133480072,-0.26539599895477295,-0.2940306067466736
1761475992938709800,6.132709716796875,-0.06406508386135101,-0.28642791509628296,-0.30560019612312317
1761475992948746800,6.142746826171875,-0.066831573843956,-0.31488779187202454,-0.29615238308906555
1761475992958782700,6.15278271484375,-0.06509231775999069,-0.3443177342414856,-0.2665075659751892
1761475992968819700,6.16281982421875,-0.05057196691632271,-0.32311150431632996,-0.21713414788246155
1761475992978855700,6.172855712890625,-0.03369147330522537,-0.27112728357315063,-0.16113750636577606
1761475992988892700,6.182892578125,-0.01929708942770958,-0.2319580465555191,-0.13062886893749237
1761475992998929000,6.192928955078125,-0.011827792041003704,-0.2099340707063675,-0.10353869944810867
1761475993008965600,6.202965576171875,-0.017591938376426697,-0.18495921790599823,-0.0825873464345932
1761475993019001600,6.213001708984375,-0.030768495053052902,-0.16022546589374542,-0.06670959293842316
1761475993029038600,6.22303857421875,-0.051007457077503204,-0.14887107908725739,-0.06949738413095474
1761475993039074600,6.233074462890625,-0.07564854621887207,-0.1370496302843094,-0.09273802489042282
1761475993049111600,6.243111572265625,-0.09150952100753784,-0.1260100156068802,-0.13271500170230865
1761475993059147800,6.253147705078125,-0.10733521729707718,-0.13153481483459473,-0.1772288680076599
1761475993069184800,6.263184814453125,-0.11788133531808853,-0.16517454385757446,-0.230702742934227
1761475993079220700,6.273220703125,-0.1272042840719223,-0.21454620361328125,-0.2735116183757782
1761475993089257700,6.2832578125,-0.13986735045909882,-0.28142350912094116,-0.2962249219417572
1761475993099293700,6.293293701171875,-0.1552954614162445,-0.3291429877281189,-0.28665289282798767
1761475993109330700,6.30333056640625,-0.18178726732730865,-0.3312748372554779,-0.2504291236400604
1761475993119366700,6.31336669921875,-0.21058309078216553,-0.3160839080810547,-0.21065104007720947
1761475993129402600,6.323402587890625,-0.2369728684425354,-0.3013225495815277,-0.17088419198989868
1761475993139434000,6.33343408203125,-0.2599501609802246,-0.2867271602153778,-0.13740327954292297
1761475993149470000,6.343469970703125,-0.27438315749168396,-0.25307518243789673,-0.12178676575422287
1761475993159506700,6.353506591796875,-0.2922581136226654,-0.22525107860565186,-0.10854510962963104
1761475993169543000,6.36354296875,-0.3131122589111328,-0.21243834495544434,-0.10566117614507675
1761475993179579600,6.37357958984375,-0.3434005081653595,-0.21000322699546814,-0.12281611561775208
1761475993189615600,6.38361572265625,-0.37107449769973755,-0.21493539214134216,-0.14547376334667206
1761475993199652900,6.39365283203125,-0.39573734998703003,-0.23268863558769226,-0.17620542645454407
1761475993209688800,6.403688720703125,-0.41161006689071655,-0.2591759264469147,-0.2040405124425888
1761475993219725800,6.413725830078125,-0.41107872128486633,-0.2781570553779602,-0.22129346430301666
1761475993229761800,6.42376171875,-0.4016109108924866,-0.29752784967422485,-0.2257835566997528
1761475993239798800,6.433798828125,-0.38921019434928894,-0.32674604654312134,-0.22583730518817902
1761475993249834800,6.443834716796875,-0.3820071518421173,-0.3441375494003296,-0.2253560721874237
1761475993259872000,6.4538720703125,-0.38026127219200134,-0.3634432554244995,-0.20995870232582092
1761475993269908000,6.463907958984375,-0.3845822513103485,-0.370617538690567,-0.1917535960674286
1761475993279945000,6.473945068359375,-0.39142781496047974,-0.38027334213256836,-0.17570042610168457
1761475993289981000,6.48398095703125,-0.41422685980796814,-0.4001186788082123,-0.18313704431056976
1761475993300018000,6.494017822265625,-0.4431965947151184,-0.4263269007205963,-0.24019865691661835
1761475993310054000,6.504053955078125,-0.45430147647857666,-0.4619453549385071,-0.33449000120162964
1761475993320091000,6.5140908203125,-0.4333948791027069,-0.5225988030433655,-0.43534544110298157
1761475993330126800,6.524126953125,-0.37742000818252563,-0.5746851563453674,-0.4978724718093872
1761475993340163800,6.534163818359375,-0.33008843660354614,-0.5893608331680298,-0.5031134486198425
1761475993350200000,6.544199951171875,-0.331595778465271,-0.574020504951477,-0.4626246392726898
1761475993360236800,6.55423681640625,-0.3837599754333496,-0.5262663960456848,-0.41078808903694153
1761475993370272800,6.564272705078125,-0.44814667105674744,-0.4589291214942932,-0.37061962485313416
1761475993380309000,6.57430908203125,-0.4827858507633209,-0.3822932243347168,-0.353216290473938
1761475993390345700,6.584345703125,-0.462911993265152,-0.3059806227684021,-0.35537585616111755
1761475993400381700,6.594381591796875,-0.3911862075328827,-0.23775672912597656,-0.3515245020389557
1761475993410418700,6.604418701171875,-0.29401570558547974,-0.14491839706897736,-0.32022249698638916
1761475993420454700,6.61445458984375,-0.19519732892513275,-0.041175272315740585,-0.25834038853645325
1761475993430492000,6.624491943359375,-0.11370274424552917,0.061300501227378845,-0.16887414455413818
1761475993440528000,6.63452783203125,-0.06608807295560837,0.16133606433868408,-0.06886930763721466
1761475993450564900,6.64456494140625,-0.05142524465918541,0.2518851161003113,0.037310656160116196
1761475993460600800,6.654600830078125,-0.06557384133338928,0.3012823462486267,0.11643973737955093
1761475993470637800,6.664637939453125,-0.05983739718794823,0.35239824652671814,0.19764110445976257
1761475993480673800,6.674673828125,-0.031873732805252075,0.35959938168525696,0.2536163926124573
1761475993490710800,6.684710693359375,0.01129211112856865,0.27434679865837097,0.27253443002700806
1761475993500746800,6.694746826171875,0.044786758720874786,0.17217445373535156,0.2645934820175171
1761475993510784000,6.704783935546875,0.06176840513944626,0.09681444615125656,0.2332288771867752
1761475993520820000,6.714820068359375,0.06089421734213829,0.029827753081917763,0.16585296392440796
1761475993530857000,6.72485693359375,0.04413547366857529,-0.021309999749064445,0.08239482343196869
1761475993540893000,6.734892822265625,0.011687129735946655,-0.08842384815216064,-0.0038073649629950523
1761475993550929700,6.7449296875,-0.04058193415403366,-0.16483047604560852,-0.059885814785957336
1761475993560966000,6.7549658203125,-0.1140686571598053,-0.19626232981681824,-0.0732850432395935
1761475993571003000,6.7650029296875,-0.19211845099925995,-0.15707524120807648,-0.05556250736117363
1761475993581038800,6.775038818359375,-0.27118319272994995,-0.07817041128873825,-0.046873077750205994
1761475993591075800,6.785075927734375,-0.3380354642868042,0.007557005621492863,-0.07242051512002945
1761475993601111800,6.79511181640625,-0.38286325335502625,0.09289368987083435,-0.12599346041679382
1761475993611148800,6.805148681640625,-0.41014280915260315,0.15383480489253998,-0.193524569272995
1761475993621184800,6.815184814453125,-0.4217350482940674,0.19690833985805511,-0.2666212320327759
1761475993631221800,6.8252216796875,-0.43625009059906006,0.25133270025253296,-0.3071199357509613
1761475993641257700,6.8352578125,-0.46267324686050415,0.2872413694858551,-0.30859410762786865
1761475993651295000,6.845294921875,-0.4850558042526245,0.27061018347740173,-0.26945096254348755
1761475993661331000,6.8553310546875,-0.49374282360076904,0.2057688981294632,-0.19427728652954102
1761475993671368000,6.865367919921875,-0.4839405119419098,0.15296107530593872,-0.10121285915374756
1761475993681404000,6.87540380859375,-0.48070868849754333,0.12976592779159546,0.0007468480616807938
1761475993691439900,6.88543994140625,-0.4832674562931061,0.1384126842021942,0.10236881673336029
1761475993701476900,6.895476806640625,-0.48974066972732544,0.15918846428394318,0.16345617175102234
1761475993711512800,6.905512939453125,-0.4998859763145447,0.17555944621562958,0.18238192796707153
1761475993721549800,6.9155498046875,-0.50395667552948,0.19447100162506104,0.17152874171733856
1761475993731585800,6.925585693359375,-0.5128899812698364,0.2269333302974701,0.14212238788604736
1761475993741623000,6.935623046875,-0.5352765321731567,0.24953360855579376,0.10236012935638428
1761475993751659000,6.945658935546875,-0.5751376152038574,0.2594134211540222,0.06163240969181061
1761475993761695700,6.95569580078125,-0.6290293335914612,0.24214959144592285,0.018288545310497284
1761475993771732000,6.96573193359375,-0.6881517767906189,0.20430713891983032,-0.01528805959969759
1761475993781768700,6.975768798828125,-0.7408077716827393,0.19540618360042572,-0.031647633761167526
1761475993791804700,6.9858046875,-0.7894719839096069,0.20631422102451324,-0.034994691610336304
1761475993801841700,6.995841552734375,-0.8283067941665649,0.21373382210731506,-0.03572431579232216
1761475993811877600,7.005877685546875,-0.860431432723999,0.23108458518981934,-0.04206583648920059
1761475993821915000,7.015914794921875,-0.8883860111236572,0.2462671995162964,-0.06255585700273514
1761475993831950800,7.025950927734375,-0.9166038036346436,0.2538558840751648,-0.0988137349486351
1761475993841987800,7.03598779296875,-0.9381002187728882,0.27028462290763855,-0.14300580322742462
1761475993852023800,7.04602392578125,-0.9513449668884277,0.2891978323459625,-0.1914188712835312
1761475993862060800,7.056060791015625,-0.9479369521141052,0.2749388813972473,-0.2491162270307541
1761475993872096800,7.0660966796875,-0.9315044283866882,0.22794422507286072,-0.3010502755641937
1761475993882134000,7.076134033203125,-0.896763801574707,0.15388943254947662,-0.33705461025238037
1761475993892170000,7.086169921875,-0.8539308309555054,0.06766799837350845,-0.35078105330467224
1761475993902207000,7.09620703125,-0.8100908994674683,-0.01300344243645668,-0.34693223237991333
1761475993912243000,7.106242919921875,-0.7689679861068726,-0.08807049691677094,-0.3320046663284302
1761475993922280000,7.116280029296875,-0.7386829257011414,-0.14263159036636353,-0.31442803144454956
1761475993932316000,7.12631591796875,-0.7138662934303284,-0.15645205974578857,-0.2913208603858948
1761475993942352000,7.136351806640625,-0.6949689984321594,-0.1556667983531952,-0.27773717045783997
1761475993952388900,7.146388916015625,-0.6786112785339355,-0.145814448595047,-0.28176066279411316
1761475993962424800,7.1564248046875,-0.6630969047546387,-0.14159256219863892,-0.3076888918876648
1761475993972461800,7.1664619140625,-0.6475334167480469,-0.1542162150144577,-0.3594666123390198
1761475993982498000,7.176498046875,-0.6412011384963989,-0.18949301540851593,-0.424986869096756
1761475993992534800,7.18653466796875,-0.6346513628959656,-0.21273070573806763,-0.4904542863368988
1761475994002570800,7.19657080078125,-0.6465839147567749,-0.2303086221218109,-0.5435854196548462
1761475994012607700,7.206607666015625,-0.663906991481781,-0.23560166358947754,-0.5878551602363586
1761475994022643700,7.216643798828125,-0.6800169348716736,-0.24169743061065674,-0.6146146655082703
1761475994032680700,7.2266806640625,-0.6880778074264526,-0.24300797283649445,-0.6251674294471741
1761475994042716700,7.236716552734375,-0.6815866231918335,-0.2410057783126831,-0.6249075531959534
1761475994052754000,7.24675390625,-0.6671586632728577,-0.23394601047039032,-0.6161702275276184
1761475994062790000,7.256789794921875,-0.6374408006668091,-0.19828175008296967,-0.5939888954162598
1761475994072827000,7.266826904296875,-0.5970800518989563,-0.15527461469173431,-0.5644800066947937
1761475994082862800,7.27686279296875,-0.5560073256492615,-0.11196261644363403,-0.5394532084465027
1761475994092899800,7.28689990234375,-0.509640634059906,-0.06675013154745102,-0.5183069109916687
1761475994102935800,7.296935791015625,-0.4631071984767914,-0.025252752006053925,-0.5031630992889404
1761475994112971800,7.3069716796875,-0.4127715826034546,-0.005543230567127466,-0.48067086935043335
1761475994123008800,7.3170087890625,-0.37676170468330383,0.018010977655649185,-0.45621395111083984
1761475994133045000,7.327044921875,-0.3477902412414551,0.0504690520465374,-0.4247487187385559
1761475994143082500,7.33708251953125,-0.32868602871894836,0.08781709522008896,-0.3925730288028717
1761475994153118500,7.347118408203125,-0.30717381834983826,0.12000725418329239,-0.3635006248950958
1761475994163155200,7.3571552734375,-0.2765481472015381,0.13820254802703857,-0.33008792996406555
1761475994173191400,7.36719140625,-0.231517031788826,0.126327246427536,-0.3015393614768982
1761475994183228200,7.377228271484375,-0.1740017533302307,0.07022923231124878,-0.2529526650905609
1761475994193264000,7.38726416015625,-0.11549396067857742,0.016299154609441757,-0.17667949199676514
1761475994203301000,7.397301025390625,-0.0609220527112484,-0.0067314887419342995,-0.08047445118427277
1761475994213337000,7.407337158203125,-0.02097756415605545,0.00007128994911909103,0.005262025631964207
1761475994223374300,7.417374267578125,0.0024116747081279755,0.007720934692770243,0.04817575216293335
1761475994233410300,7.427410400390625,0.012960722669959068,0.027981730177998543,0.0613275021314621
1761475994243447300,7.437447265625,0.01887192204594612,0.05848439782857895,0.04724620655179024
1761475994253483300,7.447483154296875,0.02800975739955902,0.06382377445697784,0.02463357523083687
1761475994263519200,7.457519287109375,0.046465784311294556,0.08066609501838684,0.014609327539801598
1761475994273556200,7.46755615234375,0.07265157997608185,0.11028391122817993,0.04476696252822876
1761475994283592200,7.47759228515625,0.10184916108846664,0.1361941546201706,0.10842049866914749
1761475994293629400,7.48762939453125,0.12636728584766388,0.16292349994182587,0.1938648223876953
1761475994303665400,7.49766552734375,0.1384207010269165,0.1830730140209198,0.2782360017299652
1761475994313702400,7.507702392578125,0.13789045810699463,0.19271472096443176,0.33271363377571106
1761475994323738400,7.51773828125,0.1356937438249588,0.1912386268377304,0.34524980187416077
1761475994333775400,7.527775390625,0.1479746401309967,0.16882838308811188,0.33770132064819336
1761475994343811300,7.537811279296875,0.173897847533226,0.1367359608411789,0.31619179248809814
1761475994353848300,7.547848388671875,0.20568907260894775,0.08950401097536087,0.2724885046482086
1761475994363884300,7.55788427734375,0.24012309312820435,0.015734190121293068,0.21716885268688202
1761475994373921300,7.56792138671875,0.2777661085128784,-0.09640539437532425,0.16005897521972656
1761475994383957500,7.57795751953125,0.3319053053855896,-0.2192479968070984,0.1259155571460724
1761475994393994200,7.587994140625,0.40717530250549316,-0.32543566823005676,0.1255405843257904
1761475994404030200,7.5980302734375,0.4842311441898346,-0.3939651548862457,0.16952066123485565
1761475994414066400,7.60806640625,0.5306178331375122,-0.40380820631980896,0.24955956637859344
1761475994424103200,7.618103271484375,0.5226553082466125,-0.328666627407074,0.36045190691947937
1761475994434139100,7.62813916015625,0.46487054228782654,-0.1883247047662735,0.4799753725528717
1761475994444176100,7.638176025390625,0.3788159489631653,0.014987369999289513,0.582438588142395
1761475994454212000,7.648212158203125,0.30542588233947754,0.24901078641414642,0.649838387966156
1761475994464249300,7.658249267578125,0.2643699049949646,0.45288556814193726,0.6720161437988281
1761475994474285300,7.668285400390625,0.24894167482852936,0.5893658995628357,0.6380470395088196
1761475994484322300,7.678322265625,0.257049560546875,0.6388317346572876,0.5623245239257812
1761475994494358300,7.688358154296875,0.26978400349617004,0.6244086027145386,0.488773375749588
1761475994504395300,7.698395263671875,0.30210593342781067,0.5797662138938904,0.42993301153182983
1761475994514431200,7.70843115234375,0.32658782601356506,0.5162569880485535,0.40217089653015137
1761475994524468200,7.71846826171875,0.3534107804298401,0.44416216015815735,0.4082014262676239
1761475994534504400,7.72850439453125,0.3776055872440338,0.3766941726207733,0.4437311887741089
1761475994544541400,7.73854150390625,0.4013642370700836,0.3187752068042755,0.48682838678359985
1761475994554577400,7.748577392578125,0.4210961163043976,0.2790975570678711,0.5294600129127502
1761475994564613400,7.75861328125,0.43606895208358765,0.24436858296394348,0.5420581698417664
1761475994574650400,7.768650390625,0.45080822706222534,0.22414825856685638,0.5164894461631775
1761475994584686300,7.778686279296875,0.4652075469493866,0.19967560470104218,0.4536411166191101
1761475994594723300,7.788723388671875,0.4873828887939453,0.16355541348457336,0.36158573627471924
1761475994604759300,7.79875927734375,0.5196409225463867,0.1199662908911705,0.26782992482185364
1761475994614796300,7.80879638671875,0.5502486228942871,0.056662414222955704,0.19732512533664703
1761475994624832500,7.81883251953125,0.5750998854637146,-0.021128270775079727,0.1551162302494049
1761475994634869200,7.828869140625,0.588884711265564,-0.0854601189494133,0.15815675258636475
1761475994644905200,7.8389052734375,0.5815767049789429,-0.10647778958082199,0.18329007923603058
1761475994654942200,7.848942138671875,0.5621689558029175,-0.10464739799499512,0.22205078601837158
1761475994664978200,7.858978271484375,0.5372940897941589,-0.08261872828006744,0.2447994500398636
1761475994675015200,7.86901513671875,0.5127543807029724,-0.0365055650472641,0.2490389198064804
1761475994685051100,7.879051025390625,0.49551230669021606,0.032204821705818176,0.23270784318447113
1761475994695088400,7.88908837890625,0.4829978346824646,0.10625294595956802,0.19031058251857758
1761475994705124400,7.899124267578125,0.4629124104976654,0.158913716673851,0.1310240924358368
1761475994715160300,7.909160400390625,0.4519873261451721,0.18109704554080963,0.060660697519779205
1761475994725197300,7.919197265625,0.4469600021839142,0.17170658707618713,-0.002791409380733967
1761475994735233300,7.9292333984375,0.45652446150779724,0.15236379206180573,-0.06815070658922195
1761475994745270300,7.939270263671875,0.46451640129089355,0.09896710515022278,-0.10617569088935852
1761475994755306200,7.94930615234375,0.48551809787750244,0.04319704696536064,-0.11911119520664215
1761475994765343200,7.95934326171875,0.517893373966217,0.02617347612977028,-0.10723946243524551
1761475994775379500,7.96937939453125,0.548894464969635,0.026502376422286034,-0.07223780453205109
1761475994785416400,7.97941650390625,0.5707263946533203,0.02950342930853367,-0.03896605968475342
1761475994795452400,7.989452392578125,0.5835511684417725,0.030042454600334167,-0.009234262630343437
1761475994805489400,7.999489501953125,0.5980680584907532,0.02453749254345894,0.008948538452386856
1761475994815525400,8.009525390625,0.6123375296592712,0.02768188714981079,0.00024346448481082916
1761475994825562000,8.01956201171875,0.6192488074302673,0.03742410987615585,-0.0191594697535038
1761475994835598300,8.029598388671875,0.6159033179283142,0.03619106486439705,-0.04210633039474487
1761475994845635300,8.03963525390625,0.6089007258415222,0.05880255252122879,-0.05743054300546646
1761475994855671300,8.04967138671875,0.6004382967948914,0.10289624333381653,-0.057501114904880524
1761475994865708300,8.059708251953126,0.6010830402374268,0.1325184404850006,-0.042709000408649445
1761475994875744300,8.069744140625,0.6037078499794006,0.16036206483840942,-0.0147524643689394
1761475994885780200,8.0797802734375,0.6063339710235596,0.191803976893425,0.017400182783603668
1761475994895817200,8.089817138671876,0.602717399597168,0.2092551440000534,0.053123556077480316
1761475994905853200,8.099853271484376,0.5931999683380127,0.20808281004428864,0.08849826455116272
1761475994915890200,8.10989013671875,0.5758516192436218,0.19872072339057922,0.11842714250087738
1761475994925926100,8.119926025390624,0.5554118752479553,0.17948704957962036,0.14261329174041748
1761475994935963400,8.12996337890625,0.53444504737854,0.16138075292110443,0.16566428542137146
1761475994945999400,8.139999267578125,0.5181543827056885,0.14534953236579895,0.1892240196466446
1761475994956036400,8.150036376953125,0.5034891366958618,0.11964629590511322,0.20738518238067627
1761475994966072300,8.160072265625,0.48136281967163086,0.09465226531028748,0.20662085711956024
1761475994976109300,8.170109375,0.45907774567604065,0.07009392231702805,0.19547392427921295
1761475994986145300,8.180145263671875,0.4379836618900299,0.03503367304801941,0.1687222123146057
1761475994996182300,8.190182373046875,0.41008278727531433,-0.007061315234750509,0.1308552473783493
1761475995006218200,8.20021826171875,0.3805791139602661,-0.04341564327478409,0.08949565887451172
1761475995016255500,8.21025537109375,0.3373727798461914,-0.07492350041866302,0.05796410143375397
1761475995026291500,8.22029150390625,0.28644704818725586,-0.08251649141311646,0.03634495288133621
1761475995036328200,8.230328125,0.22821807861328125,-0.09012886881828308,0.02225363440811634
1761475995046364400,8.240364501953126,0.1639576107263565,-0.0840989425778389,0.02399907074868679
1761475995056400400,8.250400390625,0.10903044790029526,-0.07260233908891678,0.026074739173054695
1761475995066437000,8.26043701171875,0.06396689265966415,-0.07209022343158722,0.020660366863012314
1761475995076473300,8.270473388671874,0.022877246141433716,-0.09097948670387268,0.004953576251864433
1761475995086510000,8.280510009765624,-0.010463600978255272,-0.09833640605211258,-0.017257096245884895
1761475995096546300,8.29054638671875,-0.05148985981941223,-0.10104110836982727,-0.04308443143963814
1761475995106583300,8.300583251953125,-0.08554645627737045,-0.10936540365219116,-0.06495501101016998
1761475995116619300,8.310619384765625,-0.12665314972400665,-0.11501502990722656,-0.06527166068553925
1761475995126656300,8.32065625,-0.1648906022310257,-0.1041429340839386,-0.05556187778711319
1761475995136692200,8.330692138671875,-0.19805388152599335,-0.09327804297208786,-0.03456232324242592
1761475995146728400,8.340728515625,-0.23036521673202515,-0.07726255804300308,-0.013262147083878517
1761475995156764400,8.350764404296875,-0.26336976885795593,-0.04196768254041672,0.00020812172442674637
1761475995166801400,8.360801513671875,-0.2916041910648346,-0.011063145473599434,-0.003969641402363777
1761475995176837400,8.37083740234375,-0.3100079596042633,0.011728718876838684,-0.018031131476163864
1761475995186874600,8.38087451171875,-0.3097790777683258,0.014146985486149788,-0.024637307971715927
1761475995196910600,8.39091064453125,-0.3038751184940338,0.002775819506496191,-0.02333395555615425
1761475995206947600,8.400947509765626,-0.2969130277633667,-0.016700202599167824,-0.011921809054911137
1761475995216983600,8.410983642578126,-0.2999016046524048,-0.008752264082431793,0.013873567804694176
1761475995227020500,8.4210205078125,-0.3182627558708191,0.032416727393865585,0.038977403193712234
1761475995237056500,8.431056396484376,-0.34762808680534363,0.06948686391115189,0.053728654980659485
1761475995247093500,8.441093505859374,-0.3869932293891907,0.08703786134719849,0.04205779731273651
1761475995257129700,8.451129638671874,-0.41811603307724,0.07038911432027817,0.0178640428930521
1761475995267166700,8.461166748046875,-0.4379073977470398,0.020424244925379753,-0.004319736734032631
1761475995277202700,8.47120263671875,-0.4434424936771393,-0.04302476719021797,-0.008727801032364368
1761475995287238700,8.48123876953125,-0.4386545717716217,-0.04738200828433037,0.010559070855379105
1761475995297275600,8.491275634765625,-0.4405909478664398,-0.009089216589927673,0.043715156614780426
1761475995307311600,8.5013115234375,-0.44786274433135986,0.02959960699081421,0.07185643911361694
1761475995317348600,8.5113486328125,-0.46417540311813354,0.06352294981479645,0.07406578958034515
1761475995327384600,8.521384521484375,-0.48892995715141296,0.08115267008543015,0.054734934121370316
1761475995337421600,8.531421630859375,-0.516548752784729,0.0760340765118599,0.010027650743722916
1761475995347457500,8.54145751953125,-0.5315505862236023,0.04686303064227104,-0.03387472406029701
1761475995357494500,8.55149462890625,-0.5446176528930664,-0.002298923209309578,-0.0632413998246193
1761475995367530500,8.561530517578126,-0.5525753498077393,-0.05263029411435127,-0.06988713890314102
1761475995377567500,8.5715673828125,-0.5607360601425171,-0.09406908601522446,-0.06404656171798706
1761475995387603500,8.581603515625,-0.5677944421768188,-0.13633491098880768,-0.054689664393663406
1761475995397640400,8.591640380859374,-0.5743224024772644,-0.1638869047164917,-0.04725544899702072
1761475995407676400,8.601676513671874,-0.5802905559539795,-0.177815243601799,-0.042645517736673355
1761475995417714700,8.611714599609375,-0.5900300145149231,-0.19944116473197937,-0.03454205393791199
1761475995427751400,8.62175146484375,-0.6066221594810486,-0.22451341152191162,-0.012682178057730198
1761475995437787600,8.63178759765625,-0.6363020539283752,-0.22918778657913208,0.021779660135507584
1761475995447824400,8.641824462890625,-0.6702645421028137,-0.20728063583374023,0.06610477715730667
1761475995457860400,8.6518603515625,-0.6939752101898193,-0.1944199651479721,0.10130111128091812
1761475995467897600,8.661897705078125,-0.7030406594276428,-0.21800047159194946,0.11229561269283295
1761475995477933600,8.67193359375,-0.7011929750442505,-0.27444911003112793,0.08945448696613312
1761475995487970600,8.681970458984376,-0.6827012300491333,-0.34277546405792236,0.04623028635978699
1761475995498006500,8.692006591796876,-0.6575103998184204,-0.4202375113964081,-0.010469743981957436
1761475995508043500,8.70204345703125,-0.6313672065734863,-0.4991503059864044,-0.06117352098226547
1761475995518079500,8.71207958984375,-0.6165392398834229,-0.5540635585784912,-0.10389701277017593
1761475995528116500,8.722116455078124,-0.6076881885528564,-0.5860061645507812,-0.12306920439004898
1761475995538152400,8.73215234375,-0.6180867552757263,-0.6031968593597412,-0.12538109719753265
1761475995548189700,8.742189697265625,-0.6356573700904846,-0.5974302887916565,-0.11037508398294449
1761475995558225700,8.7522255859375,-0.6688203811645508,-0.5809354782104492,-0.09132789075374603
1761475995568262700,8.7622626953125,-0.7167595624923706,-0.5677847862243652,-0.07673829048871994
1761475995578298600,8.772298583984375,-0.780092716217041,-0.56862473487854,-0.07933752983808517
1761475995588334600,8.78233447265625,-0.8494105339050293,-0.590749204158783,-0.12480773776769638
1761475995598371600,8.79237158203125,-0.9031339287757874,-0.6603227257728577,-0.21809720993041992
1761475995608407600,8.802407470703125,-0.918431282043457,-0.7769826650619507,-0.3377421498298645
1761475995618444500,8.812444580078125,-0.9011833071708679,-0.866911768913269,-0.46166330575942993
1761475995628480500,8.82248046875,-0.9053991436958313,-0.895834743976593,-0.581760585308075
1761475995638517500,8.832517578125,-0.9585414528846741,-0.8821130394935608,-0.7063823938369751
1761475995648553700,8.8425537109375,-1.040366530418396,-0.8496351838111877,-0.8200821876525879
1761475995658590500,8.852590576171876,-1.1118305921554565,-0.7710328102111816,-0.8952579498291016
1761475995668626400,8.86262646484375,-1.1541011333465576,-0.6078176498413086,-0.9028603434562683
1761475995678663400,8.872663330078124,-1.1790629625320435,-0.37838178873062134,-0.8569706082344055
1761475995688699400,8.882699462890624,-1.2182426452636719,-0.09865352511405945,-0.7840902209281921
1761475995698736600,8.892736572265624,-1.2924574613571167,0.20278862118721008,-0.7195197343826294
1761475995708772600,8.902772705078124,-1.3773294687271118,0.45243602991104126,-0.6879780888557434
1761475995718809600,8.9128095703125,-1.4292964935302734,0.6140424609184265,-0.6973329782485962
1761475995728845600,8.922845458984375,-1.4225587844848633,0.6800544261932373,-0.7258167862892151
1761475995738882600,8.932882568359375,-1.3633253574371338,0.6512355804443359,-0.7473833560943604
1761475995748918500,8.94291845703125,-1.257396936416626,0.5174039602279663,-0.7413644790649414
1761475995758955500,8.95295556640625,-1.133052945137024,0.302981436252594,-0.6990354061126709
1761475995768991500,8.962991455078125,-1.0011590719223022,0.06627917289733887,-0.6130882501602173
1761475995779028700,8.97302880859375,-0.8747665286064148,-0.10574504733085632,-0.49294614791870117
1761475995789064700,8.983064697265625,-0.7624809741973877,-0.19956426322460175,-0.3595738410949707
1761475995799101700,8.993101806640626,-0.6920704245567322,-0.20398271083831787,-0.23011144995689392
1761475995809137700,9.0031376953125,-0.6703939437866211,-0.1711726039648056,-0.11724290251731873
1761475995819174700,9.013174560546876,-0.695131778717041,-0.14724436402320862,-0.03297968953847885
1761475995829210600,9.023210693359376,-0.7362111210823059,-0.14009541273117065,0.020900342613458633
1761475995839247400,9.033247314453124,-0.7835213541984558,-0.13204626739025116,0.03471096232533455
1761475995849283600,9.04328369140625,-0.8194969296455383,-0.12764516472816467,0.0162050761282444
1761475995859320600,9.053320556640625,-0.8460198640823364,-0.11930520832538605,-0.046587198972702026
1761475995869356500,9.0633564453125,-0.8650879263877869,-0.10394629091024399,-0.12174525856971741
1761475995879393500,9.0733935546875,-0.8818698525428772,-0.07398652285337448,-0.211660236120224
1761475995889429500,9.083429443359375,-0.896552562713623,-0.037425681948661804,-0.2977185547351837
1761475995899466500,9.093466552734375,-0.8994168043136597,-0.01897503435611725,-0.3683607578277588
1761475995909502500,9.10350244140625,-0.8928560614585876,-0.02720763348042965,-0.4084291458129883
1761475995919539500,9.11353955078125,-0.8841637969017029,-0.020513776689767838,-0.40357711911201477
1761475995929575400,9.123575439453125,-0.8854542970657349,0.041026242077350616,-0.3632713556289673
1761475995939611400,9.133611328125,-0.8965255618095398,0.09920646250247955,-0.3041593134403229
1761475995949648600,9.143648681640625,-0.9210903644561768,0.11013700067996979,-0.24277077615261078
1761475995959684600,9.1536845703125,-0.9483283758163452,0.06916000694036484,-0.18835386633872986
1761475995969721600,9.1637216796875,-0.9688038229942322,-0.011792723089456558,-0.15148285031318665
1761475995979757600,9.173757568359376,-0.975829005241394,-0.10124777257442474,-0.1220056489109993
1761475995989794600,9.183794677734374,-0.9889976978302002,-0.18116998672485352,-0.09939950704574585
1761475995999830500,9.19383056640625,-1.0208061933517456,-0.20437943935394287,-0.07982607185840607
1761475996009867800,9.20386767578125,-1.0817327499389648,-0.18037323653697968,-0.07100283354520798
1761475996019903700,9.21390380859375,-1.1695791482925415,-0.11473723500967026,-0.07060256600379944
1761475996029940500,9.2239404296875,-1.2729887962341309,-0.019036371260881424,-0.07619348168373108
1761475996039976700,9.233976806640625,-1.3784446716308594,0.08554968982934952,-0.08727063238620758
1761475996050013400,9.244013427734375,-1.481720209121704,0.17067457735538483,-0.10926127433776855
1761475996060049400,9.25404931640625,-1.5709409713745117,0.21032504737377167,-0.13494639098644257
1761475996070086400,9.26408642578125,-1.6571481227874756,0.20193618535995483,-0.1671144962310791
1761475996080122400,9.274122314453125,-1.7302255630493164,0.19426734745502472,-0.19103020429611206
1761475996090159600,9.28415966796875,-1.789610505104065,0.1798669546842575,-0.20224787294864655
1761475996100195600,9.294195556640625,-1.8340022563934326,0.17325086891651154,-0.20396187901496887
1761475996110232600,9.304232666015626,-1.8576079607009888,0.19779402017593384,-0.1884170025587082
1761475996120268500,9.3142685546875,-1.8629130125045776,0.21688754856586456,-0.16289088129997253
1761475996130305500,9.324305419921876,-1.8588224649429321,0.21945156157016754,-0.11644705384969711
1761475996140341500,9.334341552734376,-1.854040503501892,0.2093704342842102,-0.04938466474413872
1761475996150379300,9.344379150390624,-1.856541633605957,0.18512645363807678,0.029028691351413727
1761475996160415200,9.354415283203124,-1.8629052639007568,0.15427160263061523,0.10624464601278305
1761475996170452200,9.3644521484375,-1.8795350790023804,0.10939694195985794,0.1655799150466919
1761475996180488200,9.37448828125,-1.9086014032363892,0.04008950665593147,0.19682306051254272
1761475996190525000,9.38452490234375,-1.933829426765442,-0.027976132929325104,0.20095457136631012
1761475996200561200,9.39456103515625,-1.9512526988983154,-0.07039070129394531,0.1970093697309494
1761475996210598000,9.404597900390625,-1.9647693634033203,-0.09556246548891068,0.18750956654548645
1761475996220633900,9.4146337890625,-1.9849449396133423,-0.1049003079533577,0.19280819594860077
1761475996230671000,9.424671142578125,-2.019444704055786,-0.09915919601917267,0.2035028040409088
1761475996240707000,9.43470703125,-2.063711166381836,-0.11429420858621597,0.21627426147460938
1761475996250744000,9.444744140625,-2.110055685043335,-0.12393520772457123,0.23662185668945312
1761475996260780000,9.454780029296876,-2.161324977874756,-0.1453491449356079,0.24123631417751312
1761475996270817000,9.464817138671876,-2.209275007247925,-0.18156391382217407,0.23460456728935242
1761475996280853000,9.47485302734375,-2.2617173194885254,-0.21183021366596222,0.22474022209644318
1761475996290890000,9.484889892578124,-2.3116748332977295,-0.23933184146881104,0.21956591308116913
1761475996300926200,9.49492626953125,-2.367748975753784,-0.23838801681995392,0.2293948382139206
1761475996310963200,9.504963134765624,-2.4224326610565186,-0.21327796578407288,0.2501924932003021
1761475996320999200,9.514999267578125,-2.478074312210083,-0.21063610911369324,0.27963587641716003
1761475996331036200,9.5250361328125,-2.517063856124878,-0.21753443777561188,0.3035486936569214
1761475996341072100,9.535072021484375,-2.5327162742614746,-0.22076299786567688,0.3235597014427185
1761475996351109000,9.545109130859375,-2.5361485481262207,-0.23161141574382782,0.33798032999038696
1761475996361145000,9.55514501953125,-2.5317258834838867,-0.26428359746932983,0.33907967805862427
1761475996371182000,9.56518212890625,-2.5318353176116943,-0.31416869163513184,0.33257368206977844
1761475996381218300,9.57521826171875,-2.5313282012939453,-0.37939828634262085,0.3247844874858856
1761475996391255000,9.585255126953125,-2.535922050476074,-0.44556692242622375,0.32167473435401917
1761475996401291000,9.595291015625,-2.5407071113586426,-0.49190646409988403,0.3232034146785736
1761475996411328000,9.605327880859376,-2.5548243522644043,-0.5183867812156677,0.32077720761299133
1761475996421364000,9.615364013671876,-2.5700762271881104,-0.539880633354187,0.31210091710090637
1761475996431401000,9.62540087890625,-2.5880751609802246,-0.570072591304779,0.3021540641784668
1761475996441437000,9.63543701171875,-2.5939340591430664,-0.5757951736450195,0.29683732986450195
1761475996451474200,9.64547412109375,-2.582399368286133,-0.5772154331207275,0.2883155643939972
1761475996461510100,9.65551025390625,-2.5575456619262695,-0.6016837954521179,0.2706894278526306
1761475996471547100,9.665547119140625,-2.5230042934417725,-0.6439512968063354,0.2423391044139862
1761475996481583000,9.6755830078125,-2.4908857345581055,-0.6803575158119202,0.19888296723365784
1761475996491620000,9.6856201171875,-2.4597373008728027,-0.7011482119560242,0.15948686003684998
1761475996501656000,9.695656005859375,-2.4293086528778076,-0.710660457611084,0.12522050738334656
1761475996511693000,9.705693115234375,-2.411020278930664,-0.7271958589553833,0.0998314917087555
1761475996521729000,9.71572900390625,-2.3883590698242188,-0.7305474281311035,0.08888589590787888
1761475996531766300,9.725766357421875,-2.3665342330932617,-0.7084003686904907,0.08448494225740433
1761475996541802200,9.73580224609375,-2.3378660678863525,-0.676917552947998,0.08132456988096237
1761475996551839200,9.745839111328126,-2.311342477798462,-0.6445199251174927,0.07192551344633102
1761475996561875200,9.755875244140626,-2.2866930961608887,-0.5963864922523499,0.0456310510635376
1761475996571912000,9.765911865234376,-2.263004779815674,-0.5576167702674866,0.020660921931266785
1761475996581948200,9.7759482421875,-2.232128143310547,-0.5513026714324951,-0.0018422557041049004
1761475996591985000,9.78598486328125,-2.184288501739502,-0.563197672367096,-0.013597340323030949
1761475996602020900,9.796020751953124,-2.1234304904937744,-0.5805798768997192,-0.015932666137814522
1761475996612058000,9.80605810546875,-2.0616462230682373,-0.5981162190437317,-0.008533571846783161
1761475996622094000,9.816093994140624,-1.9992163181304932,-0.6260000467300415,0.0023014992475509644
1761475996632131000,9.826131103515625,-1.93512761592865,-0.6529848575592041,0.03728661313652992
1761475996642167000,9.8361669921875,-1.8726005554199219,-0.6328742504119873,0.0851910188794136
1761475996652204000,9.8462041015625,-1.8269712924957275,-0.5883187055587769,0.14200514554977417
1761475996662240000,9.856239990234375,-1.7888990640640259,-0.5563173294067383,0.17911683022975922
1761475996672277000,9.866277099609375,-1.777733564376831,-0.5659016370773315,0.1859392374753952
1761475996682313200,9.876313232421875,-1.7789210081100464,-0.6013019680976868,0.15075995028018951
1761475996692350200,9.88635009765625,-1.7777565717697144,-0.6433618068695068,0.07744760811328888
1761475996702386200,9.89638623046875,-1.7668689489364624,-0.6860293745994568,-0.014066592790186405
1761475996712423200,9.906423095703126,-1.742753267288208,-0.7262464761734009,-0.11347714066505432
1761475996722459100,9.916459228515626,-1.7242629528045654,-0.7354945540428162,-0.20923668146133423
1761475996732496100,9.92649609375,-1.71724534034729,-0.7130907773971558,-0.29831376671791077
1761475996742532000,9.936531982421876,-1.7176010608673096,-0.6663584113121033,-0.3874436318874359
1761475996752569000,9.946569091796874,-1.717287540435791,-0.6201179623603821,-0.4720035493373871
1761475996762605300,9.956605224609374,-1.7090022563934326,-0.572823166847229,-0.541696310043335
1761475996772642000,9.96664208984375,-1.6796852350234985,-0.4828023612499237,-0.5913339257240295
1761475996782678000,9.976677978515625,-1.642651081085205,-0.38252928853034973,-0.6120306849479675
1761475996792715000,9.986715087890625,-1.5976684093475342,-0.2617638409137726,-0.6073686480522156
1761475996802751000,9.9967509765625,-1.545552134513855,-0.1416017711162567,-0.5844976902008057
1761475996812788000,10.0067880859375,-1.477800726890564,-0.04791705682873726,-0.5536068081855774
1761475996822824000,10.016823974609375,-1.4043318033218384,0.01909739524126053,-0.5229202508926392
1761475996832861200,10.026861083984375,-1.332228183746338,0.0405968576669693,-0.4952811896800995
1761475996842897200,10.036897216796875,-1.2608599662780762,0.03163878619670868,-0.4615969955921173
1761475996852934100,10.04693408203125,-1.194321632385254,0.004356957972049713,-0.4214766323566437
1761475996862970000,10.05697021484375,-1.121786117553711,-0.07844685018062592,-0.39287641644477844
1761475996873007000,10.067007080078126,-1.051841378211975,-0.2475849986076355,-0.38077446818351746
1761475996883043000,10.07704296875,-0.9852297902107239,-0.48716455698013306,-0.398811012506485
1761475996893080000,10.087080078125,-0.9115443229675293,-0.7112236022949219,-0.4348016381263733
1761475996903116000,10.097115966796874,-0.8379853963851929,-0.9003413319587708,-0.4564611315727234
1761475996913153300,10.1071533203125,-0.774006187915802,-0.9958126544952393,-0.4599241316318512
1761475996923189200,10.117189208984374,-0.7306757569313049,-1.0032711029052734,-0.4374963045120239
1761475996933226000,10.12722607421875,-0.7058032155036926,-0.9112004041671753,-0.38550859689712524
1761475996943262200,10.13726220703125,-0.6965529918670654,-0.7324967384338379,-0.30695971846580505
1761475996953299000,10.147298828125,-0.7071951031684875,-0.4687981605529785,-0.2098395973443985
1761475996963335000,10.1573349609375,-0.7290862798690796,-0.14817966520786285,-0.10997558385133743
1761475996973372000,10.167371826171875,-0.7572231888771057,0.10755330324172974,-0.03645673766732216
1761475996983407900,10.177407958984375,-0.7735183238983154,0.23734033107757568,0.0004823710769414902
1761475996993445000,10.187445068359375,-0.7652361989021301,0.27111008763313293,0.004956440068781376
1761475997003481000,10.197481201171875,-0.7295940518379211,0.20981290936470032,-0.008308500051498413
1761475997013518000,10.20751806640625,-0.6780554056167603,0.0834595337510109,-0.03316620737314224
1761475997023554000,10.217553955078126,-0.6342349648475647,-0.08554013818502426,-0.05734504759311676
1761475997033591000,10.227591064453126,-0.6135084629058838,-0.2661564350128174,-0.06623689830303192
1761475997043627000,10.237626953125,-0.5981292128562927,-0.37588346004486084,-0.056022077798843384
1761475997053664300,10.247664306640624,-0.5877133011817932,-0.4539533853530884,-0.04425489529967308
1761475997063700200,10.2577001953125,-0.5824958682060242,-0.4972715675830841,-0.05395066738128662
1761475997073737200,10.2677373046875,-0.5894168615341187,-0.5162549614906311,-0.095216304063797
1761475997083773200,10.277773193359375,-0.6157944202423096,-0.4932415783405304,-0.16436181962490082
1761475997093810200,10.28781005859375,-0.6573112607002258,-0.42807719111442566,-0.2510473430156708
1761475997103847000,10.297846923828125,-0.7117704749107361,-0.32820945978164673,-0.33801713585853577
1761475997113883100,10.307883056640625,-0.7639502882957458,-0.22504782676696777,-0.4117508828639984
1761475997123919000,10.317919189453125,-0.7996262311935425,-0.1169343963265419,-0.465684175491333
1761475997133956000,10.3279560546875,-0.8054915070533752,-0.01663045771420002,-0.49241676926612854
1761475997143993000,10.3379931640625,-0.7669845819473267,0.0449114665389061,-0.4945417046546936
1761475997154029000,10.348029052734375,-0.6977011561393738,0.049398910254240036,-0.48003849387168884
1761475997164066000,10.358066162109376,-0.6007959246635437,0.006270349957048893,-0.4371594786643982
1761475997174102000,10.36810205078125,-0.4921824634075165,-0.08204362541437149,-0.3799448013305664
1761475997184139300,10.37813916015625,-0.38202160596847534,-0.18997329473495483,-0.2969561517238617
1761475997194175200,10.38817529296875,-0.2895777225494385,-0.28619372844696045,-0.19825637340545654
1761475997204212200,10.398212158203124,-0.22414758801460266,-0.36135345697402954,-0.07893715798854828
1761475997214248200,10.408248291015624,-0.18887165188789368,-0.3966752886772156,0.030768556520342827
1761475997224285200,10.41828515625,-0.1857949048280716,-0.39723828434944153,0.11821691691875458
1761475997234321200,10.428321044921875,-0.20528514683246613,-0.4150290787220001,0.16653628647327423
1761475997244358100,10.438358154296875,-0.23777838051319122,-0.43145838379859924,0.1757929027080536
1761475997254394400,10.448394287109375,-0.28874412178993225,-0.4350582957267761,0.1552271991968155
1761475997264431400,10.458431396484375,-0.34590035676956177,-0.4316055178642273,0.12170759588479996
1761475997274467300,10.46846728515625,-0.40096619725227356,-0.39945918321609497,0.07053867727518082
1761475997284504000,10.478504150390625,-0.4543364644050598,-0.35144397616386414,0.009133911691606045
1761475997294540300,10.488540283203125,-0.49329128861427307,-0.3016180694103241,-0.07689547538757324
1761475997304577000,10.498576904296876,-0.5194949507713318,-0.26004132628440857,-0.19497977197170258
1761475997314613000,10.508613037109376,-0.5473717451095581,-0.2634986937046051,-0.3327922523021698
1761475997324650200,10.518650146484376,-0.5835771560668945,-0.2719190716743469,-0.45345956087112427
1761475997334686200,10.528686279296876,-0.6127122044563293,-0.22543708980083466,-0.5149908661842346
1761475997344723200,10.53872314453125,-0.6307641267776489,-0.15859360992908478,-0.5151317715644836
1761475997354759200,10.54875927734375,-0.6531745791435242,-0.08685102313756943,-0.4764941930770874
1761475997364796200,10.558796142578124,-0.6792727708816528,-0.04304095357656479,-0.4185779094696045
1761475997374832000,10.56883203125,-0.701196014881134,-0.052795398980379105,-0.35588082671165466
1761475997384869000,10.578869140625,-0.7089436650276184,-0.08883755654096603,-0.2883441150188446
1761475997394905000,10.588905029296875,-0.6963015794754028,-0.1370454728603363,-0.23409588634967804
1761475997404942300,10.5989423828125,-0.6686142683029175,-0.17621390521526337,-0.19457298517227173
1761475997414978300,10.608978271484375,-0.6429393887519836,-0.2078564465045929,-0.17480529844760895
1761475997425015300,10.619015380859375,-0.6327762603759766,-0.217342346906662,-0.1645135134458542
1761475997435051300,10.62905126953125,-0.6345332860946655,-0.1603759527206421,-0.1668212115764618
1761475997445088300,10.639088134765625,-0.633904755115509,-0.0985322818160057,-0.17303383350372314
1761475997455124200,10.649124267578125,-0.6278747320175171,-0.04175231605768204,-0.18711689114570618
1761475997465161000,10.659160888671876,-0.6160563826560974,-0.0034339549019932747,-0.2160060703754425
1761475997475197200,10.669197265625,-0.5843404531478882,0.013001343235373497,-0.24475888907909393
1761475997485234200,10.679234130859374,-0.5509833097457886,-0.00824695359915495,-0.2633863687515259
1761475997495270100,10.689270263671874,-0.5350540280342102,-0.0326811745762825,-0.2589782476425171
1761475997505307100,10.69930712890625,-0.552708625793457,-0.05963423103094101,-0.2473016381263733
1761475997515343000,10.709343017578124,-0.5978982448577881,-0.07763554155826569,-0.233864888548851
1761475997525380000,10.719380126953125,-0.6529777646064758,-0.08640240132808685,-0.23623695969581604
1761475997535417000,10.7294169921875,-0.7044169902801514,-0.10004884004592896,-0.27019211649894714
1761475997545453000,10.739453125,-0.7644119262695312,-0.11632421612739563,-0.3389682471752167
1761475997555490300,10.749490234375,-0.7987086176872253,-0.2025766670703888,-0.44866809248924255
1761475997565526300,10.7595263671875,-0.8131037950515747,-0.3629298508167267,-0.5680991411209106
1761475997575563300,10.769563232421875,-0.8244304656982422,-0.46716761589050293,-0.6448976397514343
1761475997585599200,10.77959912109375,-0.8486580848693848,-0.505283534526825,-0.6437455415725708
1761475997595636200,10.78963623046875,-0.8934957385063171,-0.4615415632724762,-0.579781174659729
1761475997605672200,10.799672119140626,-0.9473959803581238,-0.42623522877693176,-0.47600308060646057
1761475997615709200,10.809709228515626,-1.0087283849716187,-0.44434884190559387,-0.36215248703956604
1761475997625745200,10.8197451171875,-1.052539587020874,-0.49046653509140015,-0.26776498556137085
1761475997635782100,10.8297822265625,-1.0616836547851562,-0.5323255062103271,-0.20287372171878815
1761475997645818000,10.839818115234374,-1.0328527688980103,-0.5267384648323059,-0.19090653955936432
1761475997655855000,10.849855224609374,-0.961330771446228,-0.5477048754692078,-0.20952294766902924
1761475997665891000,10.85989111328125,-0.8658306002616882,-0.5439322590827942,-0.22190505266189575
1761475997675928000,10.869927978515625,-0.7607578039169312,-0.40923207998275757,-0.21252810955047607
1761475997685964000,10.879964111328125,-0.6672395467758179,-0.183488130569458,-0.1906486451625824
1761475997696001300,10.890001220703125,-0.6002601981163025,-0.0007408591918647289,-0.17252498865127563
1761475997706037200,10.900037353515625,-0.5677091479301453,0.08539668470621109,-0.15369351208209991
1761475997716074200,10.91007421875,-0.5637100338935852,0.12997278571128845,-0.13277779519557953
1761475997726110200,10.920110107421875,-0.571435809135437,0.17464730143547058,-0.11368612945079803
1761475997736147200,10.930147216796875,-0.5761505365371704,0.19406412541866302,-0.09143032878637314
1761475997746183200,10.94018310546875,-0.5690641403198242,0.17673759162425995,-0.06721153855323792
1761475997756220200,10.95022021484375,-0.5606241822242737,0.14128123223781586,-0.0358552485704422
1761475997766256000,10.960256103515626,-0.5532274842262268,0.08574739098548889,-0.006541568785905838
1761475997776293400,10.97029345703125,-0.5573886632919312,0.011130117811262608,0.006368678994476795
1761475997786329300,10.980329345703124,-0.5758115649223328,-0.0673266127705574,-0.00703527731820941
1761475997796366300,10.990366455078124,-0.6084595918655396,-0.11263103783130646,-0.035987116396427155
1761475997806403000,11.000403076171875,-0.6490949392318726,-0.11258949339389801,-0.08815843611955643
1761475997816439000,11.01043896484375,-0.6854375600814819,-0.07019276171922684,-0.15792563557624817
1761475997826476000,11.02047607421875,-0.7009387612342834,-0.016493849456310272,-0.20044779777526855
1761475997836512000,11.030511962890625,-0.7097547650337219,0.03583214432001114,-0.2193892002105713
1761475997846549200,11.04054931640625,-0.7003183960914612,0.07141197472810745,-0.21228308975696564
1761475997856585200,11.050585205078125,-0.6787558794021606,0.08026113361120224,-0.20008671283721924
1761475997866622200,11.060622314453125,-0.6614820957183838,0.04891465976834297,-0.18308669328689575
1761475997876658200,11.070658203125,-0.6508916020393372,0.009094543755054474,-0.16187089681625366
1761475997886695200,11.080695068359375,-0.6557883620262146,-0.03677068278193474,-0.13481104373931885
1761475997896731100,11.090731201171875,-0.6671212315559387,-0.09136893600225449,-0.11666092276573181
1761475997906768100,11.10076806640625,-0.6678054332733154,-0.15328210592269897,-0.10208917409181595
1761475997916804000,11.11080419921875,-0.6529737710952759,-0.1939147412776947,-0.10640580952167511
1761475997926841300,11.12084130859375,-0.6174999475479126,-0.19609986245632172,-0.1231248676776886
1761475997936877300,11.130877197265624,-0.5850251317024231,-0.16636976599693298,-0.1410667896270752
1761475997946914300,11.140914306640624,-0.5672780871391296,-0.1411440372467041,-0.1686858832836151
1761475997956950300,11.1509501953125,-0.5725812315940857,-0.10379549115896225,-0.21022167801856995
1761475997966987000,11.160987060546875,-0.5783413648605347,-0.07684030383825302,-0.2632148563861847
1761475997977023200,11.171023193359375,-0.5793357491493225,-0.07800828665494919,-0.31243687868118286
1761475997987060000,11.18106005859375,-0.5677829384803772,-0.07420343160629272,-0.34667447209358215
1761475997997096000,11.191095947265625,-0.5486451983451843,-0.07448799163103104,-0.3540870249271393
1761475998007133200,11.20113330078125,-0.5203347206115723,-0.09844499081373215,-0.3398178219795227
1761475998017169200,11.211169189453125,-0.5027393698692322,-0.13445109128952026,-0.307086318731308
1761475998027206100,11.2212060546875,-0.49082890152931213,-0.1590922772884369,-0.22043879330158234
1761475998037242000,11.2312421875,-0.5200133323669434,-0.26839974522590637,-0.16587243974208832
1761475998047279000,11.241279052734376,-0.5954287052154541,-0.3038299083709717,-0.1311565488576889
1761475998057315000,11.251315185546876,-0.6976326107978821,-0.3040979206562042,-0.12276457995176315
1761475998067352000,11.26135205078125,-0.7935007810592651,-0.3363988697528839,-0.13264544308185577
1761475998077388300,11.27138818359375,-0.8511310815811157,-0.38626742362976074,-0.12133853137493134
1761475998087425300,11.28142529296875,-0.8464058041572571,-0.4192834198474884,-0.08967647701501846
