time,seconds_elapsed,z,y,x
1761470454734350600,0.0743505859375,0.2747591904222965,-0.4679825456693768,-0.44104865377545355
1761470454744327000,0.084326904296875,0.41870121288895606,-0.35788799387738107,-0.33108101629875597
1761470454754302700,0.094302734375,0.5302542929261923,-0.26076544412225483,-0.28691121784579005
1761470454764279800,0.10427978515625,0.5783481694877147,-0.2626169172078371,-0.32584183700364083
1761470454774255900,0.114255859375,0.5367237812012434,-0.3042350218839943,-0.38891247955318536
1761470454784232000,0.12423193359375,0.448781878376007,-0.2791739381246269,-0.36824977688323707
1761470454794207700,0.134207763671875,0.24907120693624019,-0.28582959662154317,-0.2939520032027736
1761470454804184600,0.1441845703125,0.060634209182858466,-0.31664997455999255,-0.20606234202142804
1761470454814161000,0.154160888671875,-0.051010640791058534,-0.30385186778530476,-0.1851808455016464
1761470454824136700,0.16413671875,-0.1581307068169117,-0.314425138117373,-0.19813268153332173
1761470454834113800,0.17411376953125,-0.18402035035490988,-0.3650359659358859,-0.22713052021972835
1761470454844089900,0.18408984375,-0.02821487161517143,-0.3911101722605526,-0.3545020412335172
1761470454854066000,0.19406591796875,0.09244096781015396,-0.4115469572201371,-0.4794852423386648
1761470454864042800,0.204042724609375,0.17898410975337029,-0.4861050623372197,-0.5034082254461943
1761470454874018800,0.214018798828125,0.26439211018681524,-0.543664101858437,-0.529459489286691
1761470454883995000,0.223994873046875,0.2569610834032297,-0.6380006741568446,-0.5695690890960395
1761470454893970700,0.233970703125,0.243411281478405,-0.7376531807810067,-0.5873355588678271
1761470454903947800,0.24394775390625,0.25430384689271446,-0.7635602138452231,-0.6163419461868703
1761470454913923800,0.253923828125,0.24613982965946196,-0.746349405194819,-0.6961945044502615
1761470454923900000,0.26389990234375,0.22092530890405176,-0.6994308560229837,-0.7692240848258137
1761470454933876700,0.273876708984375,0.0943956090092659,-0.6825190303191542,-0.8148945336326956
1761470454943852800,0.283852783203125,-0.13922200820744038,-0.6964408804267644,-0.8908303568437695
1761470454953828900,0.293828857421875,-0.2583715347230434,-0.6488771652191877,-0.8924994590997696
1761470454963805700,0.3038056640625,-0.2652390824049711,-0.5864448205731809,-0.866503651773557
1761470454973781800,0.31378173828125,-0.2226841352701187,-0.5901394373074174,-0.8486379594109952
1761470454983757800,0.3237578125,-0.16970716284215448,-0.5674472746364772,-0.7674317945815622
1761470454993734000,0.33373388671875,-0.051852936834096905,-0.47829935702234505,-0.7262325729046016
1761470455003710700,0.343710693359375,0.08816226757764815,-0.39400165591835973,-0.7328723762452602
1761470455013686800,0.353686767578125,0.14887772530317306,-0.3403939843714237,-0.6906032603144645
1761470455023662800,0.363662841796875,0.18332827643752098,-0.35762335159182546,-0.6111574562210589
1761470455033640000,0.373639892578125,0.14044541252255438,-0.39840456705242394,-0.6043752852676436
1761470455043615700,0.38361572265625,0.09877776961624622,-0.40559097142517564,-0.588728803324513
1761470455053591800,0.393591796875,-0.013726912057399749,-0.46569092760086056,-0.5274805538965389
1761470455063568000,0.40356787109375,-0.10781798516213893,-0.536359770194441,-0.42925694756433364
1761470455073544700,0.413544677734375,-0.13141104219555855,-0.4463740865819156,-0.34541776735018936
1761470455083520800,0.423520751953125,-0.05828676927387714,-0.2612279470674693,-0.2262162914516404
1761470455093496800,0.433496826171875,0.054094578281044955,-0.17506576726585626,-0.10071195254921912
1761470455103474000,0.443473876953125,0.13835691581070422,-0.16809782794937492,-0.07917495126277208
1761470455113449700,0.45344970703125,0.14865034628808496,-0.2205949079059064,-0.050985506349802014
1761470455123425800,0.46342578125,0.2071680017083883,-0.285635827615112,0.09099507985077798
1761470455133403000,0.47340283203125,0.31426644042432306,-0.34265257695317264,0.19450619813185185
1761470455143378700,0.483378662109375,0.3740180215537548,-0.37652854306995864,0.19818269468750804
1761470455153355000,0.49335498046875,0.4724941778749227,-0.3027281244523823,0.12895038770306855
1761470455163330800,0.503330810546875,0.6201005680680275,-0.19380773100629448,0.044986485130712385
1761470455173308000,0.513307861328125,0.6842553525924682,-0.11699088717699051,0.041315468467772
1761470455183283700,0.52328369140625,0.6091209088921546,-0.17274229275435207,0.14372947569452224
1761470455193259800,0.533259765625,0.5276917489618063,-0.27978549415171144,0.375011708766222
1761470455203236900,0.54323681640625,0.4721235909968614,-0.45604704707339405,0.5610557835010811
1761470455213212700,0.553212646484375,0.4373509683012962,-0.6929965851917862,0.6691812637098133
1761470455223189000,0.56318896484375,0.428971847012639,-0.9204640092156827,0.7204279052138328
1761470455233164800,0.573164794921875,0.50813949175179,-1.0187405513115226,0.6829569833450019
1761470455243142000,0.583141845703125,0.5526742145270109,-0.9912444954901933,0.6320870661988854
1761470455253117700,0.59311767578125,0.4493412658244371,-0.921805340822041,0.521639134391956
1761470455263093800,0.60309375,0.26782442272305484,-0.8731649362936615,0.482856070478633
1761470455273070800,0.61307080078125,0.1087082120001316,-0.885375160177797,0.4885301705922931
1761470455283046700,0.623046630859375,0.04236848465204238,-0.9276600581996143,0.508907480449602
1761470455293023000,0.63302294921875,0.10276362438201904,-0.9539246725298464,0.5425129955945536
1761470455302999800,0.642999755859375,0.20660043095350264,-1.02942721889019,0.533641962603107
1761470455312976000,0.652975830078125,0.3216547971099615,-1.1308860442839561,0.5312841474305838
1761470455322951700,0.66295166015625,0.48227439813315864,-1.2520957181997596,0.5151305927481502
1761470455332927700,0.672927734375,0.6837421423733234,-1.374377697522193,0.4606496454980224
1761470455342904800,0.68290478515625,0.8097662308335304,-1.4795296783454714,0.49547567888125776
1761470455352880600,0.692880615234375,0.7621586764842271,-1.5320255892582237,0.5679644303783774
1761470455362857000,0.70285693359375,0.5413116935133934,-1.4618645500563083,0.6214891728822142
1761470455372833800,0.712833740234375,0.35166882710158825,-1.347198160304129,0.6234577695414424
1761470455382809900,0.722809814453125,0.16057634640336035,-1.3270549514636396,0.6254970202840864
1761470455392785700,0.73278564453125,0.034384500160813326,-1.3263190384045243,0.6305402751483022
1761470455402761700,0.74276171875,0.012038228318095206,-1.2531933041781187,0.5747909153975546
1761470455412738800,0.75273876953125,0.1057452705413103,-1.1689359350845216,0.4960078860618174
1761470455422714600,0.762714599609375,0.2464607321768999,-1.0851963062547147,0.4602747477710247
1761470455432691000,0.77269091796875,0.30346213781535625,-1.0463180018059908,0.5245255765484645
1761470455442667800,0.782667724609375,0.3792828102141618,-1.0248227938346564,0.682822177984193
1761470455452643800,0.792643798828125,0.48965983220934867,-0.9799997556373476,0.8882976234957576
1761470455462620000,0.802619873046875,0.6188800863623619,-1.0117945315659045,1.0718718375183642
1761470455472597000,0.812596923828125,0.7492547712475061,-1.1079534969858824,1.1841212292566894
1761470455482572800,0.82257275390625,0.8217448379188775,-1.2145054077349602,1.1924703937985002
1761470455492548600,0.832548583984375,0.9027297612130641,-1.3315249364845454,1.17728495349586
1761470455502525000,0.84252490234375,0.9677367786526679,-1.4511194302886723,1.108201772658527
1761470455512501800,0.852501708984375,0.9738467859655618,-1.4568399998925625,1.0221309244021772
1761470455522477800,0.862477783203125,0.9501777410864829,-1.3326714761711655,0.980392919673398
1761470455532454000,0.872453857421875,0.8572194714039564,-1.2198121358409524,1.0117486465975642
1761470455542431000,0.882430908203125,0.6532002891153097,-1.2333658832885324,1.0579683998502791
1761470455552406800,0.89240673828125,0.43738428604900836,-1.2384839569546282,1.0995938110500574
1761470455562382600,0.902382568359375,0.20726094068884848,-1.20408951992169,1.1057760068163276
1761470455572359000,0.91235888671875,-0.04819149171710014,-1.1470241091363131,1.0456565422225743
1761470455582335700,0.922335693359375,-0.3577338262289762,-1.099935025703162,0.8315416439857334
1761470455592311800,0.932311767578125,-0.6411357573121785,-1.1204073203675449,0.659428662110865
1761470455602287900,0.942287841796875,-0.7987871561795472,-1.1744627356819808,0.494091202252917
1761470455612265000,0.952264892578125,-0.8968307663023471,-1.21347533403486,0.3103097021551803
1761470455622240800,0.96224072265625,-1.086390046083927,-1.2330994874373078,0.09939955477640032
1761470455632216600,0.972216552734375,-1.4793997683554887,-1.1861788924388588,-0.09034114598669112
1761470455642194000,0.98219384765625,-1.824634178495407,-1.0506468247905374,-0.15593655777350068
1761470455652169700,0.992169677734375,-2.0045827493667603,-0.8657615281693637,-0.19436773950923233
1761470455662145800,1.002145751953125,-2.02948045925796,-0.7160461829982697,-0.22707579435780642
1761470455672121900,1.012121826171875,-2.079983150526881,-0.7741638793155551,-0.06842413240671158
1761470455682099000,1.022098876953125,-2.084804287073016,-1.0205682051301002,0.257560072209686
1761470455692074800,1.03207470703125,-1.9906991854429243,-1.1621097423262894,0.37032855591867114
1761470455702050600,1.042050537109375,-1.821335136950016,-1.0237519497327505,0.18175971194654703
1761470455712028000,1.05202783203125,-1.56837685944736,-0.7533486164323985,-0.07737451424468308
1761470455722003700,1.062003662109375,-1.2215198165416716,-0.5589537331879139,-0.1873053999075666
1761470455731980000,1.07197998046875,-0.8340700664848089,-0.36794235490188,-0.1895933281816542
1761470455741957000,1.08195703125,-0.43203415719270705,-0.14966595307141542,-0.21124533414989707
1761470455751933200,1.09193310546875,-0.10437573575377464,0.09070581458061933,-0.23317319791745392
1761470455761909200,1.1019091796875,-0.003234744137525558,0.26623861483633515,-0.1977626061119139
1761470455771885000,1.111885009765625,-0.06970014369189739,0.47778775423839687,-0.25370467542316766
1761470455781862100,1.121862060546875,-0.15821078631579874,0.7459396553501486,-0.34040300792809575
1761470455791838200,1.131838134765625,-0.29683249054253097,0.9041584788419306,-0.34673812923375513
1761470455801814000,1.14181396484375,-0.4500567206174135,0.9163964675158262,-0.2960739637928083
1761470455811791000,1.151791015625,-0.4831295536577701,0.9556611409336327,-0.32715438090693205
1761470455821767200,1.16176708984375,-0.3461076858431101,1.102764842301607,-0.469670425691083
1761470455831743200,1.1717431640625,-0.16478548853099345,1.2402359151884912,-0.6358164619855582
1761470455841719000,1.181718994140625,-0.002469604983925819,1.3058366607375442,-0.7876488723758608
1761470455851696000,1.191696044921875,0.10015373414456843,1.260466510051489,-0.8476489483736455
1761470455861672200,1.201672119140625,0.20171148986816406,1.1204757094286382,-0.8069239931449294
1761470455871648000,1.21164794921875,0.4155477172940969,0.9135749803543091,-0.6627342064622789
1761470455881625000,1.221625,0.665671063631773,0.685899758798629,-0.4263036507166922
1761470455891601200,1.23160107421875,0.9321978477597236,0.522148581751436,-0.2664651536012068
1761470455901577200,1.2415771484375,1.2321698053717614,0.42210079219937324,-0.23497458478361366
1761470455911554000,1.251553955078125,1.5295552536219357,0.3681049981176853,-0.3097266050375998
1761470455921530400,1.2615302734375,1.8186153565973042,0.33887188937067986,-0.39768027136586603
1761470455931506200,1.271506103515625,2.010268978309631,0.23861440259069203,-0.4143305235240608
1761470455941482000,1.28148193359375,2.017193809136748,0.061896484203636644,-0.43685215193368493
1761470455951459000,1.291458984375,1.878115008792281,-0.07525237099155783,-0.5573097653731703
1761470455961435100,1.30143505859375,1.7756962523251771,-0.08970584375783801,-0.6822898246731609
1761470455971411200,1.3114111328125,1.7702227893501519,-0.12068214291036128,-0.6530884262386709
1761470455981388000,1.321387939453125,1.7947750468045471,-0.1992659964121878,-0.46567609535790977
1761470455991364400,1.3313642578125,1.790297609129548,-0.27605419866889713,-0.22838643856495616
1761470456001340200,1.341340087890625,1.6101012009769677,-0.30866102163270115,-0.0872248405970633
1761470456011316000,1.35131591796875,1.2701339175850153,-0.24871903249770402,0.03805361712761223
1761470456021293000,1.36129296875,1.007610523879528,-0.12305121012926101,0.1870772537074983
1761470456031269000,1.37126904296875,0.8873714485615491,0.027273206850886342,0.2118126126438379
1761470456041245200,1.3812451171875,0.8065390854805707,0.11481164344176649,0.2720858064945787
1761470456051222000,1.391221923828125,0.6589052227586507,0.029226094484329224,0.38183724393732843
1761470456061198300,1.4011982421875,0.3046650838643312,-0.23301789775788784,0.3794930919639766
1761470456071174100,1.411174072265625,-0.10598726260364055,-0.420360232142359,0.19797500675357876
1761470456081151200,1.421151123046875,-0.27405074989199635,-0.4951843677844852,-0.02097286459766328
1761470456091127000,1.431126953125,-0.3293359992623329,-0.5571025523632764,-0.18958492567948995
1761470456101103000,1.44110302734375,-0.3915016557961702,-0.7281838531028479,-0.24528569704815745
1761470456111079200,1.4510791015625,-0.5052478619635105,-0.9453384843617677,-0.30437289598472417
1761470456121056000,1.461055908203125,-0.5793804351449012,-1.1368296089887617,-0.3932479149416089
1761470456131032300,1.4710322265625,-0.5867874965310096,-1.3093971296980977,-0.4559294851083308
1761470456141008100,1.481008056640625,-0.5182447061806917,-1.430224526298046,-0.5020766845814884
1761470456150985200,1.490985107421875,-0.4142816428810358,-1.4580214647620915,-0.7047636684183031
1761470456160961000,1.5009609375,-0.34132103608846664,-1.473286692302674,-0.9741318134520203
1761470456170937000,1.51093701171875,-0.3349053238272667,-1.5588202188119291,-1.1579353792510927
1761470456180914200,1.5209140625,-0.30773499282896516,-1.6458194339595733,-1.2512345713257789
1761470456190890000,1.530889892578125,-0.37731472501158714,-1.6800382221646606,-1.2106509973291306
1761470456200866300,1.5408662109375,-0.454983071103692,-1.675554793140292,-1.0583095414381474
1761470456210842000,1.550842041015625,-0.5575953043162822,-1.5944897903472184,-0.8373571253314613
1761470456220819200,1.560819091796875,-0.6935422363758087,-1.4900155626550315,-0.5312036295402794
1761470456230795300,1.570795166015625,-0.853598358297348,-1.3720897327154875,-0.19539426954537628
1761470456240771000,1.58077099609375,-0.9612398178488015,-1.2375475528873503,-0.04856617024838924
1761470456250748200,1.590748046875,-1.1070219152241945,-1.1901720537282525,0.06368957816548645
1761470456260724000,1.600723876953125,-1.393596046602726,-1.3188362814337014,0.2383948415558785
1761470456270700300,1.6107001953125,-1.6753075403809548,-1.5960367275282739,0.45362559208013115
1761470456280676000,1.620676025390625,-1.6845353874534368,-1.7794670030355453,0.5584648536924273
1761470456290653200,1.630653076171875,-1.5398042604357003,-1.7174872244626282,0.424826856162399
1761470456300629200,1.640629150390625,-1.4170505719482898,-1.4909107579290866,0.09777560683637856
1761470456310605000,1.65060498046875,-1.3831179072082043,-1.2411664740368724,-0.22078414686769246
1761470456320582100,1.66058203125,-1.4357938508629797,-0.9125099814713,-0.533852317418158
1761470456330558000,1.670557861328125,-1.580441391250491,-0.5727779681399464,-0.6831180921908467
1761470456340534300,1.6805341796875,-1.6642624147534368,-0.21973390716239807,-0.6136820793278515
1761470456350511000,1.690510986328125,-1.703573265400529,0.18208178350776433,-0.546545173720084
1761470456360487200,1.700487060546875,-1.7526999921411275,0.62021235787943,-0.4649990728791803
1761470456370463200,1.710463134765625,-1.6858283498734234,0.9912534094490111,-0.36732352888379244
1761470456380439300,1.720439208984375,-1.5141583625257014,1.2270353650927543,-0.22761468700747936
1761470456390416100,1.730416015625,-1.3257815705269573,1.2610875645592807,-0.051052214910462496
1761470456400392000,1.740391845703125,-1.1358885287463665,1.1345968815006315,0.1893429336171597
1761470456410368300,1.7503681640625,-0.8937596882939338,1.0113552633658052,0.4491860021974891
1761470456420345000,1.760344970703125,-0.5094646028757095,0.9707850603073834,0.6708095955640078
1761470456430321200,1.770321044921875,0.1159369942098856,1.0708533081255853,0.7897549047444016
1761470456440297200,1.780297119140625,0.7796680296897888,1.1817971702232957,0.8505693658649921
1761470456450273300,1.790273193359375,1.3446762406110764,1.229031215085089,0.9524770310048013
1761470456460250000,1.80025,1.8425123650133608,1.1745527520529926,1.1091338658768684
1761470456470226200,1.81022607421875,2.154987830367684,1.0186612024649977,1.242015492081642
1761470456480202200,1.8202021484375,2.2373592395842072,0.8280695108957589,1.363192725032568
1761470456490179000,1.830178955078125,2.20978909561336,0.8173482103951275,1.3261863519355654
1761470456500155100,1.840155029296875,2.0371745208919045,1.0493477248907088,1.1204577353805303
1761470456510131200,1.850131103515625,1.8036112642109392,1.4026969062946737,0.9206732680521905
1761470456520108300,1.8601083984375,1.4933254178553819,1.6154519143551587,0.7757339781764895
1761470456530084000,1.870083984375,1.227075112581253,1.6250782592259347,0.7543287865761668
1761470456540060200,1.88006005859375,0.9791092365384101,1.5232656519584358,0.8299338434629142
1761470456550036200,1.8900361328125,0.8568991534084082,1.3768090163223445,0.9137626118808985
1761470456560013000,1.900012939453125,0.9509037172734737,1.2135586284041404,0.9449616869386285
1761470456569989000,1.909989013671875,1.2547229979634285,1.0515458194568752,0.9374877708613872
1761470456579965200,1.919965087890625,1.5391823291450737,0.7787202274456619,0.9173837980527431
1761470456589942300,1.9299423828125,1.7318699700802564,0.48379663926437494,0.9022121670797467
1761470456599918000,1.93991796875,1.8268360724538564,0.23370222676023839,0.790852344592288
1761470456609894400,1.949894287109375,1.8128589850276708,-0.008177461236715316,0.6178275085695087
1761470456619870200,1.9598701171875,1.8003864569455383,-0.21222864609882233,0.4218537951683625
1761470456629847000,1.969846923828125,1.660536087706685,-0.3881597980223596,0.26263982315938916
1761470456639823000,1.979822998046875,1.357286131337285,-0.504974597980082,0.1203054916176945
1761470456649799200,1.989799072265625,0.9969488446116447,-0.5112123233258724,0.03573722994402051
1761470456659776300,1.9997763671875,0.6083195293813943,-0.4882233696654439,-0.05703662308230996
1761470456669752000,2.009751953125,0.2380687514066696,-0.47572322292402386,-0.10577500809244811
1761470456679728400,2.019728271484375,-0.05515022481381893,-0.4899206751026213,-0.10499934754483402
1761470456689705200,2.029705322265625,-0.25342004979550836,-0.5382692570775747,-0.03651318275257945
1761470456699681300,2.039681396484375,-0.40998306890428066,-0.6059405252903699,0.05899520980417728
1761470456709657000,2.049656982421875,-0.5161474416404962,-0.6874269683659077,0.15111732092350721
1761470456719633200,2.059633056640625,-0.46776948744058605,-0.7006003381937742,0.13432429929375647
1761470456729610200,2.0696103515625,-0.4635895714074373,-0.7621078230798244,0.048263387909531594
1761470456739585800,2.079585693359375,-0.5810077440857887,-0.8633471605040133,-0.017595570184290407
1761470456749562000,2.08956201171875,-0.6634633244544267,-0.8946306259095669,-0.12202756616994738
1761470456759539000,2.0995390625,-0.7823381256818771,-0.8148357891827821,-0.23344788667298852
1761470456769514800,2.1095146484375,-0.9376602048188447,-0.7447345173440874,-0.3089990214154124
1761470456779491000,2.119490966796875,-1.0902689333438873,-0.6516004527032375,-0.34116854894049464
1761470456789468000,2.129468017578125,-1.2734160079956054,-0.6335622533179819,-0.24829437734484672
1761470456799444000,2.13944384765625,-1.462123639383912,-0.6810583101168275,-0.14043368555214256
1761470456809419800,2.149419677734375,-1.607303094691038,-0.7410891465790569,-0.09828235078211874
1761470456819396000,2.15939599609375,-1.6441449248760938,-0.7218181905284523,-0.17470676122773438
1761470456829373000,2.169373046875,-1.6915426358669996,-0.6228264859005809,-0.2983840308334678
1761470456839349000,2.179348876953125,-1.7687433644473551,-0.4931535195440054,-0.42711087544634935
1761470456849325000,2.189324951171875,-1.84700850738883,-0.27643106915727256,-0.606029263019748
1761470456859302000,2.199302001953125,-1.8095833243578672,-0.0872201644219458,-0.7135078966923057
1761470456869278000,2.20927783203125,-1.8256120836168526,-0.14765212903097272,-0.5438051177643239
1761470456879253800,2.219253662109375,-1.8777075970351695,-0.5111784210562705,-0.037105157296359534
1761470456889230000,2.22922998046875,-1.8084043437063693,-0.9420777290001511,0.4660644736209884
1761470456899207000,2.23920703125,-1.5739245567023754,-1.1395246932916343,0.7181127601392566
1761470456909183000,2.249182861328125,-1.2778607124447823,-1.1434412822134792,0.7800238573901355
1761470456919159000,2.259158935546875,-0.798878926116228,-1.0144389085948466,0.5655159777803346
1761470456929135900,2.269135986328125,-0.14928455253839493,-0.7980189482860267,0.10222761780917644
1761470456939112000,2.27911181640625,0.3647498424708843,-0.5433905456140637,-0.42701570797618477
1761470456949087700,2.289087646484375,0.7239303603768348,-0.28031331741809845,-0.8767010014653205
1761470456959065000,2.299065185546875,0.9018079701930284,0.1852916854649782,-1.2550215425185858
1761470456969041000,2.309041015625,0.7196463994473219,0.8424147009819746,-1.3013039857439697
1761470456979017000,2.319016845703125,0.22167700405418872,1.4539058461368084,-0.9069597269330173
1761470456988993000,2.328992919921875,-0.3727367495715618,1.952964644201845,-0.3329125425748527
1761470456998970000,2.33897021484375,-0.8907020542889833,2.277903723679483,0.24024801340820268
1761470457008946000,2.34894580078125,-1.1349854424268007,2.392913081650436,0.7150543224167079
1761470457018921700,2.358921630859375,-1.0012988565146923,2.385858633094281,0.9574312193460762
1761470457028899000,2.368899169921875,-0.6597136165320873,2.279686223182082,0.8240152670688927
1761470457038875000,2.378875,-0.2368582065731287,1.9669782642461358,0.6353386153407394
1761470457048851000,2.388850830078125,0.17254560113847256,1.6053452386215328,0.44216045094225553
1761470457058827000,2.398826904296875,0.5332511366546153,1.1856202356427907,0.32314156506899744
1761470457068804000,2.40880419921875,0.880635418304801,0.8596887841269374,0.173683555659838
1761470457078780000,2.41877978515625,1.2441051578372717,0.7206799802787601,-0.08345061928797513
1761470457088756000,2.428755859375,1.5126023652553557,0.6415956299088895,-0.290218515762873
1761470457098733000,2.438733154296875,1.6487170550972223,0.5170055197745561,-0.37153128277193753
1761470457108708900,2.448708984375,1.6366636292099952,0.414885453993082,-0.38594226810336113
1761470457118685000,2.458684814453125,1.6124609158456324,0.3316539208158851,-0.3333636108106002
1761470457128661800,2.468661865234375,1.6303794343739748,0.2604883807465434,-0.3863573517102748
1761470457138638000,2.47863818359375,1.5447499001443386,0.225755213278532,-0.46128980656508356
1761470457148614000,2.48861376953125,1.4770464832276105,0.1930585200741887,-0.5028020031813532
1761470457158590000,2.49858984375,1.5517244153320788,0.15707856741547582,-0.5384203925186768
1761470457168567000,2.508567138671875,1.6500667161405085,0.10447627351880073,-0.4980669740160927
1761470457178542800,2.51854296875,1.731219397217035,0.008394611118733882,-0.39449714781772344
1761470457188519000,2.528518798828125,1.6837620649933813,-0.06972893139496446,-0.24208529357165096
1761470457198495700,2.538495849609375,1.4978519553691148,-0.11342954143360257,-0.13434578047320245
1761470457208472000,2.54847216796875,1.2652671883314848,-0.09499225972816347,-0.09736140001229941
1761470457218448000,2.55844775390625,1.0988906312167643,0.0005601181007921695,-0.036262349796667696
1761470457228424000,2.568423828125,0.9404033660471439,0.06754676505029202,0.04636274191997945
1761470457238401000,2.578401123046875,0.830884422186017,0.006468611492216587,0.10065722668729722
1761470457248376800,2.588376953125,0.8140034300118685,-0.06207929342463612,0.08892996401451528
1761470457258353000,2.598352783203125,0.8273264374434948,-0.1141825517579913,0.022422771145030856
1761470457268330000,2.608330078125,0.7521031464159488,-0.22266572283059358,0.029962884326279162
1761470457278306000,2.61830615234375,0.5334989739358424,-0.35435236709713935,0.11381561814174056
1761470457288281900,2.62828173828125,0.3744084821760654,-0.48093701204955575,0.17265826773270965
1761470457298259000,2.638259033203125,0.26718144864439963,-0.626515111285448,0.1298101098049432
1761470457308235000,2.648235107421875,0.11535890206098556,-0.8253120288811624,0.06509352667927741
1761470457318210800,2.6582109375,-0.02402209610044956,-0.9978805725038051,0.07792400135360658
1761470457328187000,2.668186767578125,-0.03910100728869438,-1.1072760361157357,-0.018188932967558503
1761470457338164000,2.6781640625,-0.013325345519185065,-1.186388005144894,-0.1663924122709781
1761470457348140000,2.68814013671875,-0.058745034435391426,-1.3173697160124778,-0.2890023083735257
1761470457358115800,2.69811572265625,-0.154051328548789,-1.4077199951536952,-0.3970762410581112
1761470457368093000,2.708093017578125,-0.22452304113507268,-1.301463560219854,-0.5548124686647207
1761470457378069000,2.718069091796875,-0.28164602732658384,-1.1918681901216506,-0.6110995154887437
1761470457388044800,2.728044921875,-0.33202187734544275,-1.0546379402533173,-0.5608983644496649
1761470457398020900,2.738020751953125,-0.4406359813213348,-1.0065348574720323,-0.40541437274925407
1761470457407998000,2.747998046875,-0.6802765120893717,-1.0365369047649204,-0.22764285365603862
1761470457417974000,2.75797412109375,-0.8911053743928671,-0.985064345550537,-0.15037797379828988
1761470457427949800,2.76794970703125,-1.1828268055319786,-0.9356886124849318,-0.12701339175850151
1761470457437927000,2.777927001953125,-1.5055957013636827,-0.9651001465387642,-0.10280819417610763
1761470457447903000,2.787903076171875,-1.7687521322757005,-1.2332241367302834,0.07712682309392839
1761470457457878800,2.797878662109375,-1.7742875545710324,-1.6425087019763887,0.23395079469382762
1761470457467856000,2.80785595703125,-1.4264093519240617,-1.7277672109365463,0.059749023846164345
1761470457477832000,2.81783203125,-1.0624299093037843,-1.5212614725291729,-0.29468367847818877
1761470457487808000,2.82780810546875,-0.972658452963829,-1.3425984114237128,-0.6150872699506581
1761470457497783800,2.83778369140625,-1.2365320922344922,-1.1949269931703805,-0.7559308880105614
1761470457507761000,2.847760986328125,-1.6331775406599043,-0.9555265547685324,-0.9049087126873433
1761470457517737000,2.857737060546875,-1.9560136565089226,-0.5752556102998554,-1.0485906229130924
1761470457527712800,2.867712646484375,-2.2088731498122214,-0.10716098255813121,-1.0980640441995113
1761470457537689900,2.87768994140625,-2.333609536549449,0.36501024697273965,-0.9975875809065997
1761470457547666000,2.887666015625,-2.190249697884917,0.8422400750674307,-0.7551888374716043
1761470457557642000,2.89764208984375,-1.8913970996916294,1.2550684504002332,-0.4229167482247576
1761470457567617800,2.90761767578125,-1.5742618258327246,1.3691115936875342,0.0799157870921772
1761470457577595000,2.917594970703125,-1.1582868230372667,1.2664734953813255,0.5719161636788398
1761470457587571000,2.927571044921875,-0.6297212138503789,1.115240292993188,0.8303294186517596
1761470457597546800,2.937546630859375,-0.054471594899892804,0.992386359001696,0.9704907535359263
1761470457607523800,2.94752392578125,0.4610393024027347,0.8363193067163228,1.0723929387830198
1761470457617500000,2.9575,0.875551246908307,0.6964569547787308,1.1015256558954716
1761470457627476000,2.96747607421875,1.2785615541905164,0.6147463475584983,1.089609957978502
1761470457637452800,2.977452880859375,1.5871493644565342,0.5501385585695505,1.0295767103634774
1761470457647428900,2.987428955078125,1.7562509626209735,0.43066316110044717,1.0026488098189235
1761470457657405000,2.997405029296875,1.7579811474144458,0.3507929210498929,1.063282069153711
1761470457667380700,3.007380615234375,1.669680348148942,0.40783991939574477,1.1161883874982594
1761470457677357800,3.01735791015625,1.4939911882877348,0.698773122766614,1.015992713908106
1761470457687334000,3.027333984375,1.315914841029048,1.052905709633231,0.796207514949888
1761470457697310000,3.03731005859375,1.17445002233088,1.3405018775358795,0.5859450908901169
1761470457707286800,3.047286865234375,0.977089713409543,1.5162699478521942,0.4813588541908189
1761470457717263000,3.05726318359375,0.8045505420118569,1.6425003725394605,0.4091957179188728
1761470457727239000,3.067239013671875,0.7025117247730494,1.6931610308490692,0.3367461293883621
1761470457737215700,3.0772158203125,0.744791946619749,1.6926950207725167,0.2269094613475725
1761470457747192600,3.087192626953125,0.8916828820198773,1.5847418649233878,0.18985194258522242
1761470457757169000,3.0971689453125,1.0127619152933358,1.3185438743583857,0.3211854990977794
1761470457767144700,3.107144775390625,1.2084031453371047,1.042534245483577,0.45444852583557366
1761470457777121800,3.117121826171875,1.4639368262857198,0.8306015135914087,0.44919893474429845
1761470457787097600,3.12709765625,1.5848329042077063,0.5850283779039979,0.3534505228865891
1761470457797073700,3.13707373046875,1.484766848346591,0.37170375326201316,0.11995678777787834
1761470457807050800,3.14705078125,1.2233575533628462,0.2417136837802827,-0.10577829602807759
1761470457817026600,3.157026611328125,0.9578408230602741,0.12867533362135292,-0.22531430111061782
1761470457827003000,3.1670029296875,0.7351999424099922,0.022607406996935604,-0.21949728539492933
1761470457836978700,3.176978759765625,0.6488333260774612,-0.023057634982466695,-0.21091281425990163
1761470457846955800,3.186955810546875,0.6051864920526743,-0.05375073327943682,-0.16861238987538962
1761470457856931600,3.196931640625,0.5117512525081634,-0.13038549854010342,-0.09780249484330415
1761470457866907600,3.20690771484375,0.3408756304085254,-0.27266864788383244,-0.0029143530767410993
1761470457876884700,3.216884765625,0.13033376835286617,-0.3641942544147372,0.06142214469015598
1761470457886860500,3.226860595703125,-0.06482113947868347,-0.46445612510889767,0.09922894744984805
1761470457896836900,3.2368369140625,-0.21860709508955478,-0.607818594121933,0.1609964715115726
1761470457906813700,3.246813720703125,-0.29207798949182034,-0.8314107841476798,0.27967922076564283
1761470457916789800,3.256789794921875,-0.2729460035204887,-1.0269999917432666,0.303884856739454
1761470457926765600,3.266765625,-0.23396599226295947,-1.090380430894345,0.1962814641760662
1761470457936741600,3.27674169921875,-0.21412848837077617,-1.0595881100066005,-0.000038870705664157864
1761470457946718700,3.28671875,-0.23679332464337347,-1.0620235204599797,-0.1411321526776999
1761470457956694500,3.296694580078125,-0.38155601584315296,-1.144319087961316,-0.1576298811553046
1761470457966670800,3.3066708984375,-0.6020493630707263,-1.2498770192369817,-0.05665580707117915
1761470457976647700,3.316647705078125,-0.7790566197931766,-1.2920824222818017,0.10964699068758636
1761470457986623700,3.326623779296875,-0.7954051125258207,-1.2423834486111998,0.1739792872034013
1761470457996599600,3.336599609375,-0.8006020966470241,-1.1103376156434417,0.1575456369379535
1761470458006575600,3.34657568359375,-0.9710878426462412,-0.9628628890059888,0.19841091395281255
1761470458016552700,3.356552734375,-1.150520280689001,-0.7395730429276823,0.1085563459066674
1761470458026528500,3.366528564453125,-1.2907143487989903,-0.48505643006712196,-0.032345359016023575
1761470458036504800,3.3765048828125,-1.3607833258032798,-0.2747442851141095,-0.15475586008895187
1761470458046481700,3.386481689453125,-1.4057394888609647,-0.15543167699128388,-0.15673972738254816
1761470458056457700,3.396457763671875,-1.590133933225274,-0.3577254967920482,0.14631015810379758
1761470458066433800,3.406433837890625,-1.632203142669797,-0.7523717342242598,0.49818614341635253
1761470458076409600,3.41640966796875,-1.3155553600668906,-0.9168440651528537,0.45898978599440304
1761470458086386700,3.42638671875,-0.887796980497241,-0.8357071661673485,0.1853384289498441
1761470458096362500,3.436362548828125,-0.6043395198345184,-0.8803663921050727,0.0461038352554664
1761470458106338800,3.4463388671875,-0.32715164096057414,-0.9029955725423991,-0.19133447276055812
1761470458116315600,3.456315673828125,-0.018130699974298475,-0.4398164816319942,-0.7320769150186329
1761470458126291700,3.466291748046875,-0.0678828651368618,0.3060805036202073,-1.2344479794368146
1761470458136267800,3.476267822265625,-0.5443097062855958,0.8789433735646307,-1.3342667825385928
1761470458146244900,3.486244873046875,-1.0386340231746434,1.2388036904282866,-1.1338755084235221
1761470458156220700,3.496220703125,-1.4146300668030976,1.540227308153361,-0.9240656139042228
1761470458166196500,3.506196533203125,-1.5794880360484123,1.8056427700385451,-0.7839293403960764
1761470458176172800,3.5161728515625,-1.43943016153872,2.0543743697568773,-0.6763594117108732
1761470458186149600,3.526149658203125,-1.078376250976324,2.147327524872869,-0.5781089173717424
1761470458196125700,3.536125732421875,-0.7372516142427921,1.995822812066972,-0.3506452927401289
1761470458206101800,3.546101806640625,-0.5389110621124505,1.710824990094453,-0.10018210172252728
1761470458216078800,3.556078857421875,-0.39080373665988444,1.3912208419039844,0.023987454045331105
1761470458226054700,3.5660546875,-0.10448445682525634,1.105746780721843,0.009794623242923989
1761470458236030500,3.576030517578125,0.2871428711771965,0.8877332676112651,-0.08812827397650107
1761470458246007800,3.5860078125,0.6323381183505058,0.7601799237571656,-0.23749086018716914
1761470458255983600,3.595983642578125,0.9811147311419248,0.7125076336085796,-0.3764823293080553
1761470458265959700,3.605959716796875,1.300716687375307,0.6220723065324127,-0.43313199889939275
1761470458275935700,3.615935791015625,1.5704080730140209,0.5409058891914784,-0.507340304198116
1761470458285912800,3.625912841796875,1.7474521546155213,0.5072798061825334,-0.6636194648642093
1761470458295888600,3.635888671875,1.8046926297068595,0.4556915116339922,-0.7343873839180917
1761470458305864400,3.645864501953125,1.757066955178976,0.34272885705977674,-0.7075410972423851
1761470458315841800,3.655841796875,1.6340601687133312,0.23517288383468984,-0.6277217105962336
1761470458325817600,3.665817626953125,1.4985615649431943,0.1538365167543292,-0.5450792658859863
1761470458335793700,3.675793701171875,1.4301280801862477,0.04034370082616806,-0.45074769855625924
1761470458345769700,3.685769775390625,1.4800924267947673,-0.06729468998536467,-0.39587311234604566
1761470458355746800,3.695746826171875,1.5752689570486544,-0.15339447207525372,-0.30919366720467806
1761470458365722600,3.70572265625,1.611948874670267,-0.19448723770305512,-0.26533443253822625
1761470458375698700,3.71569873046875,1.6218828241854906,-0.20628902691677212,-0.21645188981704414
1761470458385675800,3.72567578125,1.441103063187003,-0.19339257433414458,-0.1907363607369363
1761470458395651600,3.735651611328125,1.1861655945658682,-0.2266677980788052,-0.16452238061539828
1761470458405627600,3.745627685546875,0.8807423858106136,-0.25931129979118706,-0.1399985090052709
1761470458415603700,3.755603759765625,0.6257774446606635,-0.29958383507728575,-0.10113017796128988
1761470458425580800,3.765580810546875,0.42420740908980364,-0.35123759607747196,-0.0845623068569228
1761470458435556600,3.775556640625,0.24629414343833922,-0.43135450436547396,-0.09365447178576142
1761470458445532700,3.78553271484375,0.11663900499939918,-0.5317968461930751,-0.14814320048354565
1761470458455509800,3.795509765625,-0.02176116543114185,-0.6761665925525129,-0.2861755970476195
1761470458465485600,3.805485595703125,-0.058816346105933184,-0.8199502095870673,-0.4903529655726626
1761470458475461600,3.815461669921875,0.006313420930504798,-0.9414194112218915,-0.6436835420988499
1761470458485438500,3.8254384765625,0.10038052863776684,-1.1459370445519685,-0.7286939945820718
1761470458495414800,3.835414794921875,0.20809154629409313,-1.3251516020603478,-0.8027855781659483
1761470458505390600,3.845390625,0.22964053027927875,-1.4766058998532592,-0.8768718279875815
1761470458515366700,3.85536669921875,0.15320844798386096,-1.526271555776149,-0.968851023504883
1761470458525343700,3.86534375,0.07639467289447784,-1.5344183296136558,-0.9725776428125799
1761470458535319600,3.875319580078125,-0.06569266161620617,-1.6020537958607077,-0.7647441629327834
1761470458545295600,3.885295654296875,-0.2698363470673561,-1.642877243027836,-0.483321167239733
1761470458555272700,3.895272705078125,-0.504286323454976,-1.5362601580880582,-0.3343884968789294
1761470458565248800,3.905248779296875,-0.793319538423419,-1.3326526253402233,-0.23155100354310124
1761470458575224600,3.915224609375,-1.2204074713855981,-1.138862283860147,-0.018879582112841308
1761470458585201700,3.92520166015625,-1.796135229241848,-0.9949326824836432,0.25620379876252264
1761470458595177700,3.935177734375,-2.3721207612514497,-0.9648054013758898,0.6235549463056027
1761470458605153500,3.945153564453125,-2.857610614299774,-1.168804709920287,1.1630378169566393
1761470458615129600,3.955129638671875,-2.9542507873654364,-1.4341525133967399,1.5399813705682754
1761470458625106700,3.965106689453125,-2.5694161882430313,-1.443260825742781,1.606234880937636
1761470458635082800,3.975082763671875,-1.9268220488160848,-1.1026948458053172,1.231600334920734
1761470458645058600,3.98505859375,-1.3342413558363915,-0.6874830824673175,0.6062966817842796
1761470458655035000,3.995034912109375,-1.3386603413224218,-0.665670040718466,0.6652737348772585
1761470458665011700,4.00501171875,-1.0261398677825928,-0.30885508290007707,0.0833674345165491
1761470458674987500,4.014987548828125,-1.1356745937347412,-0.047613984090089795,-0.30142562701907005
1761470458684963600,4.024963623046875,-1.581763579764962,0.2778388901285827,-0.40606976791806515
1761470458694940700,4.034940673828125,-2.0489649119287727,0.6871274008974433,-0.3241545780364424
1761470458704916700,4.044916748046875,-2.433140170359611,1.0549994670420884,-0.22757895810697226
1761470458714892500,4.054892578125,-2.7327397875279185,1.3523691332012415,-0.02525379331987351
1761470458724869600,4.06486962890625,-2.9200059879362583,1.5353692005977033,0.2100739340166561
1761470458734845700,4.074845703125,-2.736272637829184,1.5715765322715043,0.41822015137374396
1761470458744821000,4.084821044921875,-2.402289689543843,1.4009545926719904,0.578371111971885
1761470458754797300,4.09479736328125,-1.6865502344071863,1.2169253283582626,0.4933191219018772
1761470458764774100,4.104774169921875,-1.0189151772260665,0.9828864169895648,0.5654786049120127
1761470458774750200,4.114750244140625,-0.3954582844674587,0.8590934485822915,0.6672734573271125
1761470458784726000,4.12472607421875,0.2047165169030428,0.75919719633013,0.8182156408794223
1761470458794703400,4.134703369140625,0.7183902619063853,0.6226819628633559,0.9917113092843443
1761470458804679200,4.14467919921875,1.1306827767968177,0.49024333118572827,1.1747408950362355
1761470458814655000,4.154655029296875,1.4637562090218066,0.4039107632532716,1.2884329598635433
1761470458824631300,4.16463134765625,1.740035740879178,0.41721331241875886,1.295907679658383
1761470458834608000,4.174608154296875,2.032914525359869,0.5989981588065624,1.091175819055736
1761470458844584200,4.184584228515625,2.305235090458393,0.8485951431825757,0.7976791949376464
1761470458854560300,4.194560302734375,2.408071195554733,1.0691139171123505,0.524231452440098
1761470458864537300,4.204537353515625,2.213340650615096,1.2177271462604402,0.34264578188620504
1761470458874513200,4.21451318359375,1.8160954827308653,1.3128461011081933,0.28869886844754217
1761470458884489000,4.224489013671875,1.3720926553249357,1.3734078295767307,0.31357644886616615
1761470458894465300,4.23446533203125,1.0619739822298289,1.4377230653598905,0.4058116284385323
1761470458904442000,4.244442138671875,0.8954442803800106,1.442747907784581,0.5383749094091356
1761470458914418200,4.254418212890625,1.0003110145211218,1.3834662822544574,0.6536837617833167
1761470458924394200,4.264394287109375,1.2462860090076924,1.2302699630998075,0.7831987610992044
1761470458934371300,4.274371337890625,1.5341285528868436,1.05528559050709,0.8215665587425232
1761470458944347100,4.28434716796875,1.8284335707783699,0.8663675312384963,0.7575596582561731
1761470458954323000,4.294322998046875,1.9581138436585663,0.5675542421422899,0.6728915894698351
1761470458964300000,4.304300048828125,1.9091987138420343,0.32561390999928114,0.5831827500373125
1761470458974276000,4.314276123046875,1.8330057009994982,0.1933446435391903,0.4093951494811103
1761470458984252200,4.324252197265625,1.7471856126338243,0.08843100151643156,0.24649342887010423
1761470458994229000,4.33422900390625,1.4986024814754724,-0.035327918490767475,0.1310792529579252
1761470459004205300,4.344205322265625,1.179612519660592,-0.11916852347701787,-0.01305993604864925
1761470459014181000,4.35418115234375,0.953575566831231,-0.1466359377257526,-0.10984178260732441
1761470459024157000,4.364156982421875,0.6041138943850993,-0.28649507479295133,-0.10041925321295857
1761470459034134300,4.37413427734375,0.1921504653185606,-0.3994542222358286,-0.16790782180260866
1761470459044110000,4.384110107421875,-0.17949381284117696,-0.43659649667218325,-0.24967874437533316
1761470459054086100,4.394086181640625,-0.38805706830024717,-0.4953917999900877,-0.3325899960896
1761470459064063000,4.40406298828125,-0.5005687642365694,-0.5835718954853714,-0.3838220245463773
1761470459074039300,4.414039306640625,-0.445874466496706,-0.6026623804025352,-0.48803003905043
1761470459084015000,4.42401513671875,-0.4315864134252071,-0.5915143789224326,-0.6349798650309443
1761470459093992200,4.4339921875,-0.5042968448489904,-0.60695671659559,-0.7302063719063997
1761470459103968300,4.44396826171875,-0.6295593012869358,-0.5828723689138889,-0.7715133648067712
1761470459113944000,4.453944091796875,-0.8013754191070794,-0.579852728831768,-0.8037796307045966
1761470459123920100,4.463920166015625,-1.1052478912889956,-0.6549949174471199,-0.7409343213435262
1761470459133897000,4.47389697265625,-1.3952180948466062,-0.6594711860783398,-0.6423986168548464
1761470459143873300,4.483873291015625,-1.581489438998699,-0.6379249785721302,-0.5304626749798655
1761470459153849000,4.49384912109375,-1.5385469538509844,-0.5919780509114265,-0.41434889943096787
1761470459163826200,4.503826171875,-1.3831295976459979,-0.545683917248249,-0.39090237472876904
1761470459173802200,4.51380224609375,-1.216442659407854,-0.5374835135273635,-0.41081422249879684
1761470459183778000,4.523778076171875,-1.2239075884610413,-0.6749084091849624,-0.27234884134493764
1761470459193754000,4.533754150390625,-1.4226602285236118,-1.0794823125220834,0.20191842888342215
1761470459203731000,4.54373095703125,-1.4686246918410062,-1.44123019669801,0.5659654020482674
1761470459213707300,4.553707275390625,-1.2412392470121383,-1.5043386870399116,0.6653611939650028
1761470459223683000,4.56368310546875,-0.8666302738279104,-1.4351587678298354,0.5388382526045665
1761470459233660200,4.57366015625,-0.4850590604156255,-1.30559744515419,0.33766963744144884
1761470459243636200,4.58363623046875,-0.06248363644182681,-1.0109814616173505,-0.015086037332064005
1761470459253612300,4.5936123046875,0.3570417523115873,-0.5595806329146027,-0.49650611790753896
1761470459263589000,4.603589111328125,0.4062807072550058,-0.07083850007206201,-0.8454136636022478
1761470459273565000,4.61356494140625,0.15480360822081565,0.412582145486772,-0.9733628018409013
1761470459283541200,4.623541259765625,-0.40541503033638,0.8367290565609932,-0.8423279725465923
1761470459293517000,4.63351708984375,-1.014037342056632,1.277419106157124,-0.5840789316920563
1761470459303494100,4.643494140625,-1.5681389590382575,1.6266126291863618,-0.1687853900884278
1761470459313470200,4.65347021484375,-1.8870032486468553,1.8113557408578693,0.2945381142613478
1761470459323446300,4.6634462890625,-1.8070850778013468,1.9085808742046355,0.6104567606057971
1761470459333423000,4.673423095703125,-1.2916817325264214,1.9608862309813497,0.7671588959243149
1761470459343399200,4.683399169921875,-0.6684072105973958,1.866357204850763,0.8313505053278059
1761470459353375200,4.693375244140625,-0.18300620487630367,1.6828759298086164,0.8300375230330973
1761470459363352000,4.70335205078125,0.15031974080502986,1.355705145756155,0.8868968167871236
1761470459373328100,4.713328125,0.35989421913325786,0.9826074539177119,1.0204598493847996
1761470459383304200,4.72330419921875,0.612268559268117,0.6768037214122712,0.962266530548036
1761470459393280300,4.7332802734375,0.9127642484933137,0.5378447480551898,0.6617040596969426
1761470459403257000,4.743257080078125,1.224310908564925,0.5411680472590029,0.23384225628543645
1761470459413233400,4.7532333984375,1.4445546649456023,0.5939347379371523,-0.14892887096852064
1761470459423209200,4.763209228515625,1.6069102959811687,0.6093341132514178,-0.4112696381160989
1761470459433186000,4.77318603515625,1.6808640054643154,0.5094071736000478,-0.5727361382922157
1761470459443162000,4.783162109375,1.669877916547656,0.4205114771813154,-0.6847697318553924
1761470459453138200,4.79313818359375,1.600070805349946,0.42942426695525643,-0.8071573635093867
1761470459463114200,4.8031142578125,1.5137205556303261,0.4820078561514616,-0.8503301502816378
1761470459473091000,4.813091064453125,1.4978876112043857,0.5543586604826152,-0.734221160505712
1761470459483067400,4.8230673828125,1.4691010771811008,0.51378582707569,-0.4996597231002524
1761470459493043200,4.833043212890625,1.375928872486949,0.3964548942893743,-0.25510957378502935
1761470459503020000,4.84302001953125,1.2787579535454512,0.29542729991972444,-0.06412994234412908
1761470459512996000,4.85299609375,1.1718272726118564,0.2517474404081702,0.0010609072297811507
1761470459522972200,4.86297216796875,1.0519763198286294,0.2082803468644619,0.03951272989474237
1761470459532949200,4.87294921875,0.8330711185753344,0.17004560101628302,0.0975509312350303
1761470459542925000,4.882925048828125,0.6197773274630308,0.1499783800214529,0.10258673344515264
1761470459552901400,4.8929013671875,0.46088615766763685,0.08315963698476553,0.11435118632316589
1761470459562877200,4.902877197265625,0.3142693630337715,-0.033378099597245456,0.1355004304010421
1761470459572854300,4.912854248046875,0.1430073719650507,-0.1779791704945266,0.1477155496560037
1761470459582830000,4.922830078125,0.057953591796755785,-0.3278684109278023,0.14345321603640912
1761470459592806100,4.93280615234375,0.1049222637206316,-0.47382893361002204,0.176427703268826
1761470459602783200,4.942783203125,0.26743454662263394,-0.6157200148962437,0.2541519442666322
1761470459612759000,4.952759033203125,0.48855333227217196,-0.7594448874808848,0.26228322827406225
1761470459622735400,4.9627353515625,0.6099135205745697,-0.8852889431990683,0.2590099787570536
1761470459632712200,4.972712158203125,0.5820838488847017,-1.0431751737356185,0.13062734447196125
1761470459642688300,4.982688232421875,0.6135112528055906,-1.10283381588459,-0.11140753408670424
1761470459652664000,4.9926640625,0.6326631125211716,-1.178914454393834,-0.3483803069502115
1761470459662640000,5.00264013671875,0.6236661515951156,-1.2677166273102163,-0.649488648181036
1761470459672617200,5.0126171875,0.5615250449806451,-1.3262354517742991,-0.8440361647039651
1761470459682593000,5.022593017578125,0.3889870426267385,-1.4264391625404358,-0.8435092182204127
1761470459692569300,5.0325693359375,0.10026537782549858,-1.446779209127277,-0.8134636240467429
1761470459702546200,5.042546142578125,-0.3192874834567308,-1.311938630874455,-0.815794697342813
1761470459712522200,5.052522216796875,-0.7671282815903425,-1.102517735672742,-0.8036443138871342
1761470459722498300,5.062498291015625,-1.1571066733419895,-0.87518212133497,-0.7707533402197062
1761470459732474000,5.07247412109375,-1.4750778135031462,-0.6482897207200526,-0.6729063486475497
1761470459742451200,5.082451171875,-1.719007565897703,-0.5423248160786927,-0.512331975005567
1761470459752427000,5.092427001953125,-1.9863392366677521,-0.6316356691695749,-0.2907468139532953
1761470459762403300,5.1024033203125,-2.242858421522379,-0.9013064504116773,-0.11482837538085877
1761470459772380200,5.112380126953125,-2.3009312557846306,-1.2104095167234539,0.049096550798043606
1761470459782356200,5.122356201171875,-2.1463819145858287,-1.4641251884646713,0.0950518078956753
1761470459792332300,5.132332275390625,-1.903513069421053,-1.5614469140537082,0.07604432508684694
1761470459802309400,5.142309326171875,-1.5859183613568544,-1.5867846227973699,0.001094663368910551
1761470459812285200,5.15228515625,-1.3309867379546165,-1.486348564580083,-0.07621712437048554
1761470459822261000,5.162260986328125,-1.292756668281555,-1.1747697558045387,-0.24865846141688525
1761470459832237300,5.1722373046875,-1.534140827846527,-0.6415840856015682,-0.5137122503828258
1761470459842214100,5.182214111328125,-1.928335960510373,-0.06766907625570893,-0.7490598331972956
1761470459852190200,5.192190185546875,-2.3261983835101128,0.5462175857335329,-0.8413122926980257
1761470459862166300,5.202166259765625,-2.6485622056722637,1.032906731569022,-0.7048420674167573
1761470459872143400,5.212143310546875,-2.881605822393298,1.3228643679060041,-0.35035262993648647
1761470459882119200,5.222119140625,-2.8717905308216807,1.4390807635791598,0.1783280204648152
1761470459892095000,5.232094970703125,-2.512746791037917,1.3937911307834088,0.6567192570216953
1761470459902071300,5.2420712890625,-1.69812552138865,1.342107705297321,0.8945337414063512
1761470459912048000,5.252048095703125,-0.7475304316729307,1.2994105732128023,0.980468761388585
1761470459922024200,5.262024169921875,0.1091349129796028,1.2001352293379604,1.0410412304468453
1761470459932000300,5.272000244140625,0.8023650146663188,1.0655231991440057,1.1194542574264108
1761470459941977300,5.281977294921875,1.3761422229766844,0.9827962544880807,1.1445539196304977
1761470459951953200,5.291953125,1.6764093641430138,0.8537357209414244,1.17974213738963
1761470459961929000,5.301928955078125,1.7698732452601194,0.741681121122837,1.1674332023713736
1761470459971906300,5.31190625,1.7546587249934673,0.7873283351846039,1.0756030599359423
1761470459981882000,5.321882080078125,1.6310376060217617,1.069166816343367,0.901664689264819
1761470459991858200,5.331858154296875,1.4896967059642077,1.3534477222181855,0.7075280916303396
1761470460001834200,5.341834228515625,1.238865503618121,1.5486682426318525,0.6022383097715676
1761470460011811300,5.351811279296875,0.9233096079051494,1.6949733409680425,0.4850798109427094
1761470460021787100,5.361787109375,0.6503419770747423,1.7375266806676983,0.32080179700981826
1761470460031763200,5.37176318359375,0.4672445867836475,1.6633132973350584,0.1997067624496296
1761470460041740300,5.381740234375,0.5349591096162796,1.5815079975686968,0.12918923796024173
1761470460051716000,5.391716064453125,0.8698784619688987,1.4501751351758836,0.12340630717724561
1761470460061692200,5.401692138671875,1.3223475044250488,1.2571581161558627,0.21839882263373583
1761470460071669000,5.4116689453125,1.7167016270428894,1.0190401187799871,0.39491800357829776
1761470460081645300,5.421645263671875,2.0413409929215907,0.788420075944066,0.5136913537252694
1761470460091621000,5.43162109375,2.341089663171768,0.5668542771793902,0.5527781132929027
1761470460101597200,5.44159716796875,2.5714859802544114,0.27074659378007054,0.5221457322072237
1761470460111574300,5.45157421875,2.6749416785538194,-0.018896423649787903,0.4545157458528876
1761470460121550000,5.461550048828125,2.5671441516578195,-0.27906463253125546,0.25435565014518796
1761470460131526100,5.471526123046875,2.3004297360032795,-0.4488821238800883,-0.00819908854663372
1761470460141503000,5.4815029296875,1.9314380181789397,-0.49495545439943667,-0.23930859539993105
1761470460151479300,5.491479248046875,1.5194628986746073,-0.47429479755610227,-0.3030394554238766
1761470460161455000,5.501455078125,1.0898019003540276,-0.44666050230786203,-0.24495989915989339
1761470460171431200,5.51143115234375,0.8101029154419899,-0.42876931017786263,-0.17158362423852086
1761470460181408300,5.521408203125,0.704539431208372,-0.39394101177230473,-0.10163345130831003
1761470460191384000,5.531384033203125,0.7023644252568483,-0.4689180729538202,-0.030609219405800102
1761470460201360100,5.541360107421875,0.7520213133513927,-0.6344473655894398,0.012303235929831862
1761470460211337200,5.551337158203125,0.6893307561606168,-0.8753511942915618,0.07711736114583909
1761470460221313300,5.561313232421875,0.41076106753945346,-1.073855558681488,0.1149588333601132
1761470460231289000,5.5712890625,0.07874795802235603,-1.09272085654065,0.07369480281863361
1761470460241266200,5.58126611328125,-0.09084346948564052,-1.0305229051724076,-0.05430602907463908
1761470460251242200,5.5912421875,-0.2601841371029615,-1.0051704372510313,-0.17972645255327224
1761470460261218000,5.601218017578125,-0.6021709436237812,-1.0347162652090192,-0.20391097267381847
1761470460271194000,5.611194091796875,-0.9132850574970245,-1.121432864023,-0.20256982373055069
1761470460281171200,5.621171142578125,-1.166794539141655,-1.164913693831116,-0.20633513108082113
1761470460291147300,5.631147216796875,-1.3713853838384151,-1.1018733002893626,-0.21602489657662807
1761470460301123000,5.641123046875,-1.5959610319435595,-0.9714844407483935,-0.2104780943707563
1761470460311100200,5.65110009765625,-1.8627841686695814,-0.7542253992669284,-0.17767773986253887
1761470460321076200,5.661076171875,-2.0943635580569504,-0.4321101450383663,-0.17118719053314999
1761470460331052000,5.671052001953125,-2.269942243281007,-0.11138912164717912,-0.1995887620931491
1761470460341029000,5.681029052734375,-2.4763930366307494,0.10474851458892226,-0.15085072414288297
1761470460351005200,5.691005126953125,-2.729382293793559,-0.006119651924073695,0.1714598882609978
1761470460360981200,5.700981201171875,-2.819107572904229,-0.399844244466722,0.6304945363104343
1761470460370957000,5.71095703125,-2.4920079543918368,-0.7060201712854206,0.720778691412881
1761470460380934100,5.72093408203125,-2.0077420901805163,-0.8020163473591208,0.516114452686347
1761470460390910200,5.73091015625,-1.598360494300723,-0.8308975739285349,0.28615353134628385
1761470460400886000,5.740885986328125,-1.2379881362617016,-0.8176156291596591,-0.066454366703704
1761470460410863000,5.750863037109375,-0.8434300155043601,-0.6406552803188562,-0.436127856247127
1761470460420839200,5.760839111328125,-0.49907531080842016,-0.2501752226553857,-0.9216064572490751
1761470460430815200,5.770815185546875,-0.3255184868007898,0.2700216405063867,-1.214584683516249
1761470460440791000,5.780791015625,-0.35414252373874183,0.7230956631183624,-1.1223781820490957
1761470460450768100,5.79076806640625,-0.5150292512655258,1.0453697611704469,-0.7748121140912174
1761470460460744200,5.800744140625,-0.6546323677450419,1.2855856076084076,-0.4093443691419437
1761470460470720000,5.810719970703125,-0.6264917304098606,1.4951576017186046,-0.14533312063203194
1761470460480697000,5.820697021484375,-0.3294049728453159,1.6852308223716914,0.16635818120781332
1761470460490673200,5.830673095703125,0.22254268097281454,1.8899960007220507,0.3628991000376642
1761470460500649200,5.840649169921875,0.9509370350211859,2.0651199279159305,0.38621070978119965
1761470460510626000,5.8506259765625,1.6290554922938345,2.0831641186505556,0.37772615535669024
1761470460520602000,5.86060205078125,2.3058313027858732,2.062816327148676,0.21070793933756649
1761470460530578200,5.870578125,3.063960869884491,2.0013409909665585,-0.07383877786658703
1761470460540554000,5.880553955078125,3.636567865371704,1.756876401042938,-0.16230919807795435
1761470460550531000,5.890531005859375,3.8788586183875795,1.363142456150055,-0.19296057612504808
1761470460560507100,5.900507080078125,3.7487709337502717,1.117131221306324,-0.2835007883477956
1761470460570483200,5.910483154296875,3.461443353655934,1.1475842272371053,-0.23840362765053286
1761470460580460000,5.9204599609375,3.197069363647699,1.2914274655044078,-0.21994232574868947
1761470460590436000,5.93043603515625,2.9344939474940297,1.4214318557724355,-0.19519193363999945
1761470460600412200,5.940412109375,2.693708338344097,1.4581877612397074,-0.02651271647294052
1761470460610389200,5.95038916015625,2.33371884214282,1.4124331412807105,0.27483700489886104
1761470460620365000,5.960364990234375,1.8750445153057573,1.3942238231122492,0.43900169465038924
1761470460630341000,5.970341064453125,1.466810335895419,1.4315347321137786,0.33001609048098324
1761470460640317200,5.980317138671875,1.248858489844203,1.543919002278149,-0.015511165125668048
1761470460650294000,5.9902939453125,1.0408815098404884,1.5329682769358157,-0.20291998887509105
1761470460660270300,6.000270263671875,0.6110346335589886,1.300181265324354,-0.07524325610334053
1761470460670246100,6.01024609375,0.18295476695001126,1.0299345838904381,0.09579133768398314
1761470460680223200,6.02022314453125,-0.1861146922856569,0.851317261622846,-0.03776880883686244
1761470460690199000,6.030198974609375,-0.4499865779906511,0.7429185539633035,-0.24962851202543823
1761470460700175000,6.040175048828125,-0.6259896261066198,0.6525999851346016,-0.44045850586257873
1761470460710151200,6.050151123046875,-0.6856944454848766,0.5983353109836578,-0.5581465449908748
1761470460720128000,6.0601279296875,-0.6470493652701378,0.3544220713324845,-0.49252756966538724
1761470460730104300,6.070104248046875,-0.528456888115406,0.0635575492836535,-0.4046576360978186
1761470460740080600,6.08008056640625,-0.2541542092889547,-0.08409823300912976,-0.4703769299926236
1761470460750057700,6.0900576171875,0.2597884157836437,-0.13954203394204379,-0.7850289722010493
1761470460760033500,6.100033447265625,0.6015747312963009,-0.46407136357501144,-0.8561734694823622
1761470460770009900,6.110009765625,0.6590992840260267,-0.9705321084596216,-0.6628313101612031
1761470460779986700,6.119986572265625,0.6095376729995012,-1.346230192054808,-0.5330386994803324
1761470460789962800,6.129962646484375,0.47988078099489206,-1.5204161077462135,-0.48672852799780664
1761470460799938600,6.1399384765625,0.09191431358754634,-1.60964454325065,-0.4554947469528764
1761470460809914600,6.14991455078125,-0.37164544720351694,-1.7002154794052242,-0.3817850753586739
1761470460819891700,6.1598916015625,-0.6943395242333412,-1.6955996561728417,-0.338546858667396
1761470460829867500,6.169867431640625,-0.8721060748904943,-1.6403852800816296,-0.39650534583497793
1761470460839843800,6.17984375,-1.066048684322834,-1.5817307004086671,-0.3543906167482957
1761470460849820700,6.189820556640625,-1.244822366195917,-1.4968148674063384,-0.2701964856166392
1761470460859796700,6.199796630859375,-1.5462871927142143,-1.4214416465140878,-0.3011274477900937
1761470460869772800,6.209772705078125,-1.910427963376045,-1.3925953451275825,-0.4251264236308634
1761470460879750000,6.21975,-2.159507353618741,-1.2045042382024227,-0.4347208024607971
1761470460889725700,6.2297255859375,-2.389363572475314,-0.9099002373643219,-0.26854784162677825
1761470460899701500,6.239701416015625,-2.7211709302872418,-0.7946535635061561,0.19826061876192688
1761470460909677800,6.249677734375,-3.068088178947568,-0.7367775669902563,0.6826289934996516
1761470460919654700,6.259654541015625,-3.0271517729252575,-0.5072270530819892,0.6613843262232839
1761470460929630700,6.269630615234375,-2.8119132774859663,-0.3797288004159927,0.4217352468226105
1761470460939606800,6.279606689453125,-2.669166602283716,-0.4038300992324948,0.2864037797803059
1761470460949584000,6.289583984375,-2.4711323396235705,-0.3808694948837161,0.06436619878541677
1761470460959559700,6.2995595703125,-2.240042195057869,-0.2767513871528208,-0.19369097275882957
1761470460969535500,6.309535400390625,-2.1185054811447857,-0.10400514887571334,-0.4704080923158675
1761470460979512600,6.3195126953125,-1.9928525640845298,0.09785510181337595,-0.7116156532049178
1761470460989488600,6.329488525390625,-1.8500152879893779,0.32172435521483417,-0.8248601934604346
1761470460999464700,6.339464599609375,-1.7393395753085612,0.49464521940648554,-0.7297424076564609
1761470461009440800,6.349440673828125,-1.6357973677694797,0.5951913138695061,-0.5549778883595019
1761470461019417900,6.35941796875,-1.3919132080823182,0.6606029665872454,-0.3488634142920375
1761470461029393700,6.3693935546875,-0.9425380399882793,0.6783757930345833,-0.1374737032353878
1761470461039369700,6.37936962890625,-0.3196241680651903,0.5715872970506548,0.027860359089076518
1761470461049346600,6.3893466796875,0.3263075913518667,0.39184681597203014,0.17122618910297752
1761470461059322600,6.399322509765625,0.8236620697170496,0.23682152782455085,0.3196404616128653
1761470461069298700,6.409298583984375,1.1195990727245806,0.12020385787412524,0.5526388509526848
1761470461079274800,6.419274658203125,1.2986059788316489,0.045852673505991697,0.7716983659848571
1761470461089251800,6.429251953125,1.4339111058562992,0.021226912423968312,0.9476661235917359
1761470461099227600,6.4392275390625,1.4312421789079903,0.08292670501172542,0.9866960384055972
1761470461109203700,6.44920361328125,1.326539695417881,0.26650734877511856,0.9538613980352878
1761470461119180800,6.459180908203125,1.0484510683119297,0.49389250134304163,0.8582370509486645
1761470461129156600,6.469156494140625,0.6252922914922237,0.8215455159544944,0.6914350349634886
1761470461139132700,6.479132568359375,0.2311673014551401,1.1030553496807813,0.5350345860052853
1761470461149109500,6.489109619140625,0.006489946541190147,1.2683908733099698,0.4529038171442225
1761470461159085800,6.4990859375,-0.19225100308358667,1.384811559383571,0.46240438021086155
1761470461169061600,6.5090615234375,-0.3605190730333328,1.4249498007655144,0.4414984433695674
1761470461179037700,6.51903759765625,-0.421674091219902,1.383496677392721,0.36794725027270614
1761470461189014800,6.529014892578125,-0.28171266282200813,1.320425888712704,0.30800211933255195
1761470461198990800,6.538990966796875,0.08431786710917949,1.2046624975040554,0.41071072559170424
1761470461208966700,6.548966552734375,0.564736992764473,0.9603478374451399,0.6203034702289849
1761470461218943500,6.558943603515625,1.0236726008862256,0.640442075959593,0.8184098482772707
1761470461228919800,6.568919921875,1.3687550353348255,0.37468408424705263,0.8674506503000855
1761470461238895600,6.5788955078125,1.6094389376759528,0.1567718395538628,0.7823144525453448
1761470461248872700,6.588872802734375,1.73078159032166,-0.06523191223666072,0.5649664906714111
1761470461258848800,6.598848876953125,1.6877648708939552,-0.32650384457632897,0.3274637756496668
1761470461268824800,6.608824951171875,1.5119330876916646,-0.5519450234696268,0.12383501745071261
1761470461278800600,6.618800537109375,1.2852864785313605,-0.7238115563027561,-0.09813300543930381
1761470461288777500,6.628777587890625,1.06128132379055,-0.8002763718239962,-0.23053689459711313
1761470461298753800,6.63875390625,0.7837275342136621,-0.7981291306622326,-0.2909923131469637
1761470461308729600,6.6487294921875,0.4008703726440668,-0.6805616126410663,-0.23898367429450154
1761470461318706700,6.658706787109375,0.08065174581706523,-0.5338833701435476,-0.16202588762454687
1761470461328682800,6.668682861328125,-0.0759907682687044,-0.4232642830207944,-0.08523914667256176
1761470461338658800,6.678658935546875,-0.10407295341491699,-0.4557374696675688,0.0390916549384594
1761470461348635600,6.6886357421875,-0.14355448445379734,-0.6110231623169035,0.1364186412245035
1761470461358611700,6.69861181640625,-0.22057459577023983,-0.7446136674433946,0.1558882251197472
1761470461368587800,6.708587890625,-0.3134983786612749,-0.8083673238210379,0.11192523781787603
1761470461378563600,6.7185634765625,-0.4427975432693958,-0.8810143346197903,0.00009893032982945441
1761470461388540700,6.728540771484375,-0.560835309150815,-0.9057494743604212,-0.08553031163886189
1761470461398516700,6.738516845703125,-0.6730833857148886,-0.9609618776902555,-0.17210154716540127
1761470461408492800,6.748492919921875,-0.7859878803610801,-1.0198220629379153,-0.2227672469763085
1761470461418469600,6.7584697265625,-0.8599585409790277,-1.04551779133901,-0.25423352160286156
1761470461428445700,6.76844580078125,-0.9032809653550385,-1.040114470990747,-0.28569194171652196
1761470461438421800,6.778421875,-0.9673965869128703,-1.0272208679523318,-0.3479536059707403
1761470461448397600,6.7883974609375,-1.0929676709085703,-0.9366595033437013,-0.34595096091143784
1761470461458374700,6.798374755859375,-1.1137222896456718,-0.7775666734963655,-0.33091658298466353
1761470461468350700,6.808350830078125,-1.0606927102476358,-0.6476062685005366,-0.2701786576990038
1761470461478326800,6.818326904296875,-1.08134912930727,-0.6341355231612921,-0.1838650867279619
1761470461488303600,6.8283037109375,-1.2019225511461495,-0.5935688272342086,-0.09160824331305921
1761470461498280000,6.838280029296875,-1.4309282906532286,-0.5746791255861521,-0.007925934161059557
1761470461508255700,6.848255859375,-1.6257728173613548,-0.7153264904215931,0.11039481338020414
1761470461518232800,6.85823291015625,-1.5161089120715856,-0.7884637689553201,0.09566924567427486
1761470461528208600,6.868208740234375,-1.1865391040533781,-0.71471683409065,-0.03169986418671906
1761470461538184700,6.878184814453125,-0.8241431312322616,-0.6941407867908478,-0.16867409346736967
1761470461548160800,6.888160888671875,-0.49251288355290884,-0.7257207509249448,-0.19170747079141437
1761470461558137600,6.8981376953125,-0.274676188313961,-0.7246627663046121,-0.15348668040335178
1761470461568114000,6.908114013671875,-0.12462182044684886,-0.44901144934818144,-0.27597601886615153
1761470461578089700,6.91808984375,-0.09113163877725601,0.039503304479271174,-0.45324821013510225
1761470461588066800,6.92806689453125,-0.25801731445789333,0.4235870852343738,-0.4665345388181507
1761470461598042600,6.938042724609375,-0.6735556794017553,0.6826027630798518,-0.29752821772173044
1761470461608018700,6.948018798828125,-1.0046551812052726,0.8605214355587959,-0.17480558195970952
1761470461617995800,6.957995849609375,-1.1000018073290585,1.1077420461922884,-0.08220650097839534
1761470461627971600,6.9679716796875,-1.0223743777692318,1.2492083261951803,-0.08759696184508502
1761470461637948000,6.977947998046875,-0.7739169188171625,1.2773691295355558,-0.08906637681052088
1761470461647923700,6.987923828125,-0.5084066182553768,1.2227518425546586,-0.10409443459436296
1761470461657900800,6.99790087890625,-0.27835575360953807,1.1279475066140294,-0.10312931588925421
1761470461667876600,7.007876708984375,-0.15112579649090765,1.010296401962638,-0.0078614175574854
1761470461677852700,7.017852783203125,-0.05434650721549988,0.8349601471923291,0.10043653314132243
1761470461687829800,7.027829833984375,0.15767653330862522,0.7563906144767999,0.1551206748133525
1761470461697805600,7.0378056640625,0.4980845462054014,0.7559817414149641,0.06995755251906811
1761470461707782000,7.047781982421875,0.8594482533693313,0.7725010606698691,-0.08684972367435694
1761470461717758700,7.0577587890625,1.1323135928690433,0.7407404792718589,-0.26258622980862856
1761470461727734800,7.06773486328125,1.1689157690793275,0.6699412882968783,-0.37077209843508896
1761470461737710600,7.077710693359375,1.087136480537057,0.6282559636034071,-0.395427889329195
1761470461747686700,7.087686767578125,0.9598761282801628,0.6513638674683868,-0.42960188854448494
1761470461757663500,7.09766357421875,0.8430372167944907,0.709521019013226,-0.40653329377658665
1761470461767639600,7.1076396484375,0.8082967428028583,0.7088575866684317,-0.305626037850976
1761470461777615600,7.11761572265625,0.8521768010616302,0.6900342282548546,-0.22966299783941357
1761470461787592700,7.1275927734375,0.930790903571248,0.6144060096882283,-0.20719050580114126
1761470461797568500,7.137568603515625,1.0759352875649928,0.5096982655011117,-0.12955924031641333
1761470461807544600,7.147544677734375,1.2249199803739785,0.34767902681306,-0.029956545917037874
1761470461817520600,7.157520751953125,1.2822463801831006,0.2525333300888538,0.037621911179460586
1761470461827497500,7.16749755859375,1.203876023301482,0.22837577104046938,-0.006787029791623354
1761470461837473500,7.1774736328125,1.0457271963059902,0.2121270854204893,-0.11430007719043642
1761470461847449600,7.18744970703125,0.8918629147619008,0.1816122662998736,-0.2435224685016088
1761470461857426700,7.1974267578125,0.8018944745451212,0.1480367444343865,-0.28293621326759455
1761470461867402500,7.207402587890625,0.751500504347682,0.030305852545052765,-0.2918908694218844
1761470461877378600,7.217378662109375,0.6700497171074151,-0.1416214705646038,-0.262669907770399
1761470461887355600,7.227355712890625,0.6207581551939249,-0.21784823954626917,-0.2349832247477956
1761470461897331500,7.23733154296875,0.5977525426596403,-0.27953020421639085,-0.27244220045050604
1761470461907307500,7.2473076171875,0.5182540585309267,-0.3552551611557603,-0.254872404028289
1761470461917284600,7.25728466796875,0.4581505952239036,-0.48062721544802184,-0.2200087420484051
1761470461927260700,7.2672607421875,0.49136663612723347,-0.6158611769326031,-0.24048669926859437
1761470461937236500,7.277236572265625,0.4519745369374752,-0.8109855434954166,-0.34013708700090645
1761470461947212500,7.287212646484375,0.2428402035921812,-0.963851023260504,-0.4973772016536444
1761470461957189600,7.297189697265625,0.020731822383403778,-1.0163694382660091,-0.574690194969438
1761470461967165400,7.30716552734375,-0.14882278024554252,-1.0630443879403173,-0.6259564544893801
1761470461977141500,7.3171416015625,-0.34423780031800266,-1.122991783902794,-0.5935644433200359
1761470461987118600,7.32711865234375,-0.532173862811923,-1.1696470059633255,-0.5242533720109611
1761470461997094700,7.3370947265625,-0.7287234398722648,-1.1857147820584475,-0.46107780778221785
1761470462007070500,7.347070556640625,-0.9600777883321047,-1.129667754535377,-0.46751982352845367
1761470462017047600,7.357047607421875,-1.1603858411431311,-0.9499103223219514,-0.44416583594791587
1761470462027023600,7.367023681640625,-1.2151631409913302,-0.7251483578644693,-0.4391148361686617
1761470462036999400,7.37699951171875,-1.2464368156552315,-0.5659470992065966,-0.37701596126072107
1761470462046975500,7.3869755859375,-1.3704261834174394,-0.5310547956541181,-0.23874394725449383
1761470462056952600,7.39695263671875,-1.6652280449151993,-0.5228571684122085,-0.1459083449704107
1761470462066928600,7.4069287109375,-1.9942530785322188,-0.5658844092339277,0.06337766267210244
1761470462076904400,7.416904541015625,-2.0916718347549437,-0.6644131725251674,0.3194674796661362
1761470462086881500,7.426881591796875,-1.7351836246728896,-0.6150044139727949,0.39091326144896443
1761470462096857600,7.436857666015625,-1.238727556452155,-0.4642348835736513,0.43463381829708814
1761470462106833400,7.44683349609375,-0.7390472654879092,-0.33806334946677086,0.4550995736228302
1761470462116809700,7.456809814453125,-0.21632044545710086,-0.19490517085418105,0.3709790922492742
1761470462126786600,7.46678662109375,0.09932079045176505,-0.0008650923967361449,0.15968832978876307
1761470462136762600,7.4767626953125,0.02227788278162479,0.2525380062639713,0.0036044279749330595
1761470462146738400,7.486738525390625,-0.2935007157713175,0.5703424115560949,-0.06995883572727907
1761470462156715500,7.496715576171875,-0.5364736058324575,0.8884034219577908,-0.1311017753169872
1761470462166691600,7.506691650390625,-0.707834965622425,1.2248289410896598,-0.27072661043796686
1761470462176667400,7.51666748046875,-0.6657686787873506,1.4982676965631543,-0.4384544725637883
1761470462186644500,7.52664453125,-0.5244096585512161,1.5167119925312698,-0.34213607879839836
1761470462196620500,7.53662060546875,-0.2491489483475685,1.360272599802166,-0.05854565767208114
1761470462206596600,7.5465966796875,0.22766835342347622,1.2266159706369042,0.19875203727437182
1761470462216572400,7.556572509765625,0.7226222003877163,1.1292454374700784,0.3239687731407583
1761470462226549500,7.566549560546875,1.1942571310847998,0.9816172738365828,0.5107751009523869
1761470462236525600,7.576525634765625,1.5855390066504478,0.825328541624546,0.756616239926219
1761470462246501400,7.58650146484375,2.0470506027400495,0.7108437920495867,0.9183554195638746
1761470462256478500,7.596478515625,2.5046347962528466,0.5717877880588174,0.9600721623089163
1761470462266454500,7.60645458984375,2.72801860422492,0.34553923830538985,0.9481506191730499
1761470462276430600,7.6164306640625,2.779319752395153,0.1998506644323468,0.8964359217658638
1761470462286407400,7.626407470703125,2.731030645522475,0.314676774790883,0.7087431665085255
1761470462296383700,7.6363837890625,2.324799038106203,0.5808657052665949,0.5945987548038363
1761470462306359600,7.646359619140625,1.796974018153548,0.8436910045281052,0.4839013782804832
1761470462316335400,7.65633544921875,1.3482768954515456,1.166438273049891,0.25839016635827716
1761470462326312400,7.6663125,1.0230015697568655,1.3791370208784937,0.048636933929659426
1761470462336288500,7.67628857421875,0.7414215934038162,1.4093144247382878,-0.060839006473380135
1761470462346264600,7.6862646484375,0.5440794046610593,1.4312955165304242,-0.022137592961522748
1761470462356241400,7.696241455078125,0.6231792448610067,1.5085536743864416,0.14635652712932787
1761470462366217700,7.7062177734375,1.0202987405389548,1.527585122592747,0.27095302133867516
1761470462376193500,7.716193603515625,1.390684543070197,1.4308376897603272,0.38641668068207796
1761470462386170600,7.726170654296875,1.4857938533067703,1.115815608663112,0.6331809258501976
1761470462396146400,7.736146484375,1.3875637807011603,0.717882750775665,0.802040678082779
1761470462406122500,7.74612255859375,1.302253395423293,0.5028891700081527,0.7476713014483451
1761470462416098600,7.7560986328125,1.1765922950565815,0.3662698916450143,0.5821177146216854
1761470462426075400,7.766075439453125,0.89980948985219,0.21434096207767725,0.5271284525232389
1761470462436051700,7.7760517578125,0.5866273375332355,0.11208791756629943,0.5302249207012355
1761470462446027500,7.786027587890625,0.34991350786685943,0.05553586313053965,0.4003356081802398
1761470462456004600,7.796004638671875,0.1848568011790514,0.05374634936526417,0.19923165575116872
1761470462465980400,7.80598046875,-0.04149579347074032,0.0027541210137307644,-0.041815042887208984
1761470462475956500,7.81595654296875,-0.311946473044157,-0.12440905447900294,-0.1879344915913418
1761470462485933600,7.82593359375,-0.510125697132945,-0.24625863373354076,-0.1787678549204953
1761470462495909400,7.835909423828125,-0.5844698672384023,-0.3444555347219109,-0.0877379046857357
1761470462505885700,7.8458857421875,-0.6363777491301298,-0.45699514157846566,-0.001098261831793934
1761470462515861500,7.855861572265625,-0.7622662285119295,-0.6215620189227163,0.10049173392727971
1761470462525838600,7.865838623046875,-0.8440770812362431,-0.7361293322145939,0.04848093965034932
1761470462535814400,7.875814453125,-0.8739525795400143,-0.8212893492363392,-0.06433847052827477
1761470462545790500,7.88579052734375,-0.9443179091423749,-1.000268782814592,-0.1130902630092576
1761470462555767600,7.895767578125,-1.1244079343110323,-1.2094313193410635,-0.13716237226389347
1761470462565743400,7.905743408203125,-1.2780524356245995,-1.3495359556019306,-0.18175540109761057
1761470462575719700,7.9157197265625,-1.33659405644238,-1.389418176396191,-0.20287534601576626
1761470462585696500,7.925696533203125,-1.3367647368341684,-1.3731735824294387,-0.19633038135170935
1761470462595672600,7.935672607421875,-1.2908598947495222,-1.3642676607877016,-0.18236060044914482
1761470462605648600,7.945648681640625,-1.3294260645091533,-1.3370233877703546,-0.1445581816036254
1761470462615624400,7.95562451171875,-1.432811035659909,-1.2128089790806174,-0.07102065170593559
1761470462625601500,7.9656015625,-1.5513129119217395,-1.0056595359422267,0.026658399420790374
1761470462635577300,7.975577392578125,-1.7609060949504374,-0.8537814597792923,0.1944856302678585
1761470462645553700,7.9855537109375,-2.0505898827821016,-0.915768398745358,0.39860703082196414
1761470462655530500,7.995530517578125,-2.158114437955618,-1.0515040261417627,0.5097525895042344
1761470462665506600,8.005506591796875,-1.9497791460335254,-0.8932423864215612,0.34687114449627693
1761470462675482600,8.015482666015625,-1.6496002676725388,-0.6763041013270616,0.09273578603826463
1761470462685459700,8.025459716796876,-1.419890763810277,-0.5966850595586002,-0.1025089189685881
1761470462695435500,8.035435546875,-1.2996546111017464,-0.5895363568477332,-0.3225831274686381
1761470462705411300,8.045411376953124,-1.3656126456558704,-0.45233284885585306,-0.6125459879700094
1761470462715387600,8.0553876953125,-1.4704349561333656,-0.06066518884301185,-0.8728478331685066
1761470462725364500,8.065364501953125,-1.6562421899050472,0.3088153354115784,-0.9062164342850446
1761470462735340500,8.075340576171875,-1.9785142421305177,0.6586040478549897,-0.7200051497571169
1761470462745316600,8.085316650390626,-2.164484557509422,0.9644653557665646,-0.49125009707547723
1761470462755293400,8.09529345703125,-2.132477892395854,1.1831658282279967,-0.3187982386350632
1761470462765269500,8.10526953125,-1.8161498432666063,1.3335907829731701,-0.27133334415946153
1761470462775245300,8.115245361328125,-1.1844061836779116,1.256706280735135,-0.2039260971777141
1761470462785221400,8.125221435546875,-0.4551151730507612,1.1493153618786482,-0.1745123711667955
1761470462795198500,8.135198486328125,0.22111820112764835,1.0019670380998402,-0.16257959425086155
1761470462805174300,8.14517431640625,0.6596990034848451,0.8028791016682982,-0.11783848044965416
1761470462815150600,8.155150634765626,0.9199626355648041,0.700458518570289,-0.0835837258820422
1761470462825127400,8.16512744140625,1.0574386768877506,0.5505275578871369,0.0014490251979557796
1761470462835103500,8.175103515625,1.051111811953783,0.4738429621353745,0.05808639699672349
1761470462845079300,8.185079345703125,1.0513660789757966,0.5880221528925001,-0.08663356930618174
1761470462855056600,8.195056640625,1.1202233421027659,0.8313121460787951,-0.34418621626123785
1761470462865032400,8.205032470703125,1.2996692241489887,0.9462759113423526,-0.49773872844241557
1761470462875008300,8.21500830078125,1.4793576827794312,0.93639150005728,-0.5178327643789351
1761470462884984600,8.224984619140624,1.603716468375921,0.8979689765520393,-0.39319096058998254
1761470462894961400,8.23496142578125,1.613944432401657,0.8925959052115678,-0.28748443289017306
1761470462904937500,8.2449375,1.5222189193844795,0.9133024470232427,-0.17920639246823264
1761470462914913500,8.25491357421875,1.4267489591419695,0.9440784012980759,-0.019818429298955016
1761470462924890600,8.264890625,1.3306816175282001,1.0023948350578546,0.1288518774983473
1761470462934866400,8.274866455078126,1.351800977924466,0.982207202553749,0.29873920094668865
1761470462944842200,8.28484228515625,1.4717507149070501,0.8650508956819772,0.39460258095357564
1761470462954819300,8.2948193359375,1.5996242306262254,0.65087769138664,0.3274432443182915
1761470462964795400,8.30479541015625,1.6108382830798624,0.4167416032537818,0.11110867900429293
1761470462974771500,8.314771484375,1.4892220741897821,0.15465075574666262,-0.1024167289067991
1761470462984747500,8.32474755859375,1.2834651083230972,-0.02813113885447383,-0.19150544541329145
1761470462994724600,8.334724609375,1.0931459500849245,-0.09903905090093612,-0.2027352068927139
1761470463004700400,8.344700439453124,0.9277958134084939,-0.15865297712534665,-0.19373280260656028
1761470463014676500,8.354676513671874,0.7193155600577592,-0.1506440043233335,-0.18073106301855296
1761470463024653300,8.3646533203125,0.547629206097126,-0.1791246872678399,-0.21036108039496465
1761470463034629400,8.37462939453125,0.4822925183117389,-0.20796558182686567,-0.2396876213127747
1761470463044605400,8.38460546875,0.5144511591166258,-0.31041356438845397,-0.17039934635739773
1761470463054582300,8.394582275390626,0.6070885262817144,-0.5363495410613716,-0.07744882158990948
1761470463064558600,8.40455859375,0.6420645625948905,-0.7736619211427866,0.027421748476102948
1761470463074534400,8.414534423828124,0.6285176832795143,-0.9641678341247141,0.059581558324769135
1761470463084510500,8.424510498046875,0.5102268194198608,-1.0752652793489397,-0.06585196209745481
1761470463094487600,8.434487548828125,0.2694610840141773,-1.110998709900677,-0.2551097747144289
1761470463104463400,8.44446337890625,-0.019029110118746757,-1.1204498443350195,-0.438175728687644
1761470463114439400,8.454439453125,-0.29556816969513894,-1.1302461389452219,-0.5700696224967018
1761470463124416300,8.464416259765626,-0.49763212626278397,-1.1816337963551282,-0.5690172273669392
1761470463134392600,8.474392578125,-0.6091606563806533,-1.2153338213831186,-0.5143533247653395
1761470463144368400,8.484368408203125,-0.7665244704782962,-1.2355121015369892,-0.456160371254757
1761470463154344400,8.494344482421875,-0.9971949283272027,-1.1590971165068447,-0.3834836959701031
1761470463164321500,8.504321533203125,-1.1416028147399424,-0.9814425017915666,-0.3124587334152311
1761470463174297600,8.514297607421875,-1.1637684693187476,-0.8613767372138798,-0.2692136303254403
1761470463184273400,8.5242734375,-1.206339783066511,-0.7932431121863425,-0.24856208837032318
1761470463194250200,8.534250244140624,-1.5208984844356774,-0.7810071693390608,-0.14315779502009973
1761470463204226600,8.5442265625,-2.110287687897682,-0.7614432216912508,-0.005306216649338603
1761470463214202400,8.554202392578125,-2.721888723167777,-0.6500193209916353,0.12676706144777125
1761470463224179500,8.564179443359375,-3.083511373528838,-0.5150755746252834,0.25933734754789617
1761470463234155500,8.574155517578125,-2.957440523317456,-0.45735053088739513,0.24919010234186426
1761470463244131600,8.584131591796876,-2.410183073142171,-0.5507084674119949,0.16781196021270006
1761470463254107400,8.594107421875,-1.8457967935115098,-0.6657210402533411,0.10739559503160416
1761470463264084200,8.604084228515624,-1.4503209733873605,-0.7867566727764904,0.11258835963541641
1761470463274060500,8.614060546875,-1.161318738079071,-0.7860083386272192,0.12497898158775642
1761470463284036400,8.624036376953125,-1.0653162783950567,-0.5322255929991603,-0.03068051281003281
1761470463294013400,8.634013427734375,-1.127502393195033,-0.20178075571209192,-0.19434501622077077
1761470463303989500,8.643989501953126,-1.1854881336957215,0.06699205377697945,-0.22230711865127084
1761470463313965600,8.653965576171874,-1.133589604154229,0.318913243316859,-0.21554949761722236
1761470463323941400,8.66394140625,-1.0612743095278738,0.62693582091555,-0.2226301035279408
1761470463333918500,8.67391845703125,-0.9205120861411095,0.8665332431942224,-0.24309008670002222
1761470463343894500,8.68389453125,-0.7116022092014551,0.9509623155929148,-0.14269831514903344
1761470463353870300,8.693870361328125,-0.38307811084389687,0.8916438651837408,0.03020607283185236
1761470463363847400,8.703847412109376,0.04001753761172294,0.825454359961301,0.19026247788118197
1761470463373823500,8.713823486328126,0.48805181249082086,0.805469994944334,0.25870109547097236
1761470463383799600,8.723799560546874,0.9233961171448231,0.7567734763145446,0.3302307196123525
1761470463393776400,8.7337763671875,1.2989607836186885,0.6648312518067657,0.518216064608097
1761470463403752400,8.74375244140625,1.502719269144535,0.5460188482910394,0.7619453259944915
1761470463413728500,8.753728515625,1.5890496451199054,0.5358411531478167,0.9286756649829446
1761470463423704300,8.763704345703125,1.55990947535336,0.5586769620731472,1.0857650460533796
1761470463433681400,8.773681396484376,1.4016384832829236,0.6707534814625978,1.24523649995476
1761470463443657500,8.783657470703124,1.2879548209577798,0.8625931272663175,1.2896426279142499
1761470463453633500,8.793633544921875,1.1769722342848776,1.0739809386268258,1.1910844193328172
1761470463463610400,8.8036103515625,1.0105863248199223,1.195495586838573,1.0707851382602005
1761470463473586400,8.81358642578125,0.8777057945936918,1.2661515699505805,0.8704340500250458
1761470463483562500,8.8235625,0.7748731966286897,1.2730132724136114,0.5916907584026455
1761470463493539600,8.83353955078125,0.6193395205676555,1.2540822158418594,0.2643232096690684
1761470463503515400,8.843515380859374,0.5598001208841801,1.2534268206730483,0.006758643947355448
1761470463513491500,8.853491455078125,0.7335176884114741,1.2358601843222976,-0.013786807284783572
1761470463523467500,8.863467529296875,1.067795820251107,1.152678043244779,0.20968347339434548
1761470463533444400,8.8734443359375,1.5179080704480408,1.0167220510959625,0.4693616885354742
1761470463543420700,8.883420654296875,1.9005577267467975,0.8125947322577237,0.6546658316232263
1761470463553396500,8.893396484375,2.183252386343479,0.5744365490019321,0.6586487637795507
1761470463563373600,8.90337353515625,2.336145192506909,0.3089144118718803,0.474609051137045
1761470463573349400,8.913349365234374,2.2688503563910722,-0.02677417128756642,0.2674684306259267
1761470463583325400,8.923325439453125,2.0361428397566077,-0.3336842575997114,0.029967542235087602
1761470463593301500,8.933301513671875,1.6788158407628535,-0.4853820087596774,-0.15820658506471663
1761470463603278300,8.9432783203125,1.3719073618859052,-0.5389266980729996,-0.256032716511935
1761470463613254700,8.953254638671876,1.0451298149347306,-0.5209266387410462,-0.26593469998631625
1761470463623230500,8.96323046875,0.7308440852880478,-0.42144554316103455,-0.2134569092521444
1761470463633207600,8.97320751953125,0.39788814196288586,-0.2958515166811645,-0.12417874372131191
1761470463643183400,8.983183349609375,0.10916589263975619,-0.2303815579049289,0.10488507351540029
1761470463653159400,8.993159423828125,-0.10654606553018092,-0.22315292182564733,0.24003643475044517
1761470463663136500,9.003136474609375,-0.170582776632905,-0.2880684615895152,0.26993684829976405
1761470463673112300,9.0131123046875,-0.1719505578547716,-0.42338038368113334,0.3092284097244963
1761470463683088600,9.023088623046876,-0.17169044561386107,-0.619137275993824,0.29690515391994265
1761470463693064400,9.033064453125,-0.25607436369657516,-0.7465984115198254,0.19203217270113526
1761470463703041500,9.04304150390625,-0.47542146349847314,-0.8029728443663566,0.027469231746485454
1761470463713017300,9.053017333984375,-0.8047130390971898,-0.8656319835055619,-0.13934764388110488
1761470463722993400,9.062993408203125,-1.013489060524106,-0.9511382566817105,-0.1899005309673026
1761470463732970500,9.072970458984376,-1.0988947228699921,-0.9571635813858359,-0.16051239605536682
1761470463742946600,9.082946533203126,-1.0475351225107907,-0.9279176862224936,-0.132637369120121
1761470463752922600,9.092922607421874,-1.0375006352305411,-0.9548671410117298,0.008898071695421821
1761470463762898400,9.1028984375,-1.0731646538078785,-0.9718357384040951,0.0766246457254514
1761470463772875500,9.11287548828125,-1.1747808617204427,-0.9203248930059373,0.07670711811082437
1761470463782851600,9.1228515625,-1.2789537683784962,-0.7824158670932054,0.07939003705186769
1761470463792827600,9.13282763671875,-1.2993354621499775,-0.6543545737169683,0.09416293276455252
1761470463802804500,9.142804443359376,-1.337244629305601,-0.6143187697961926,0.21979173829685894
1761470463812780500,9.152780517578124,-1.50623458378911,-0.6808018511377275,0.39177999781351536
1761470463822756600,9.162756591796875,-1.7168360670775173,-0.7564591496683657,0.488806685978733
1761470463832733700,9.172733642578125,-1.6983476397067307,-0.664958531448245,0.34494423155430703
1761470463842709500,9.18270947265625,-1.4938538256436587,-0.5445857467480003,0.10719594427365808
1761470463852685600,9.192685546875,-1.209091127601266,-0.5395028905257583,0.00870170202323934
1761470463862661600,9.20266162109375,-0.8943167376548051,-0.5935160741336644,-0.007357517447735881
1761470463872638500,9.212638427734374,-0.6557365295946598,-0.5457043755143881,-0.06245539216145407
1761470463882614500,9.222614501953124,-0.488036614921689,-0.3855168822981417,-0.1920972738265991
1761470463892590600,9.232590576171875,-0.5316700049430132,-0.05041501298546791,-0.4062827165490016
1761470463902567700,9.242567626953125,-0.7546189286291599,0.3260286282800138,-0.5464473759014159
1761470463912543500,9.25254345703125,-1.1688035408765076,0.6596415742091835,-0.5863486667223274
1761470463922519600,9.26251953125,-1.5059581049352884,0.9095688134528696,-0.4982960700642317
1761470463932496600,9.27249658203125,-1.6497335386633871,1.1861878794629126,-0.4096039333935827
1761470463942472400,9.282472412109374,-1.681765338218212,1.3020908983379602,-0.3367469331059605
1761470463952448500,9.292448486328125,-1.4165163189411163,1.3289961486592887,-0.370128174508363
1761470463962424600,9.302424560546875,-0.9047218118131161,1.2601916386328638,-0.4651647117696702
1761470463972401700,9.312401611328125,-0.40681437574028967,1.1200606988869606,-0.5613480809785425
1761470463982377500,9.32237744140625,-0.060281742483377455,1.0100631046634168,-0.606660400530137
1761470463992353500,9.332353515625,0.26626900997459885,0.8173263638895004,-0.5240888290990143
1761470464002330600,9.34233056640625,0.5589788676291704,0.6456533808670938,-0.3823494312431663
1761470464012306400,9.352306396484375,0.9186743493199347,0.5655369109705091,-0.3035346367959864
1761470464022282500,9.362282470703125,1.2928712345719338,0.5582601979658007,-0.3241816852390766
1761470464032258600,9.372258544921875,1.5237906987458467,0.5909995612680912,-0.34890915312990545
1761470464042235600,9.382235595703126,1.569650532644987,0.6302697876438498,-0.3699660427492112
1761470464052211500,9.39221142578125,1.531695772781968,0.6579163578517735,-0.4342262969421223
1761470464062187500,9.4021875,1.4830232195496558,0.7340116094082594,-0.4689460934719071
1761470464072164600,9.41216455078125,1.4614309809446333,0.7784795505575836,-0.4082795894546434
1761470464082140400,9.422140380859375,1.3852005587011575,0.8322025190472603,-0.28680169305671005
1761470464092116500,9.432116455078125,1.3097235851734876,0.8520043671041727,-0.13888981711100787
1761470464102093600,9.442093505859376,1.2570406272560357,0.8398505495823919,-0.016661138878390193
1761470464112069600,9.452069580078126,1.1555384011119603,0.7780892360657453,-0.022023378297593443
1761470464122045400,9.46204541015625,1.0065075310736895,0.6634319064028561,-0.08173627138445154
1761470464132021500,9.472021484375,0.9852642520368099,0.5301144460640848,-0.2236704063611105
1761470464141998600,9.48199853515625,1.0628086794883012,0.33006884358152744,-0.4205975845621899
1761470464151974400,9.491974365234375,1.1327274343669413,0.0755607062883675,-0.4979643538918346
1761470464161950500,9.501950439453125,0.9738362645715475,-0.13093334168121218,-0.4501349734853953
1761470464171927600,9.511927490234376,0.8531295717418194,-0.15183752495683728,-0.4315613155165687
1761470464181903600,9.521903564453124,0.767379041481018,-0.12831651024632154,-0.42956670763324944
1761470464191879400,9.53187939453125,0.7156739886850119,-0.21943017497546968,-0.36681265675220637
1761470464201856500,9.5418564453125,0.7318254975408315,-0.2558512224651873,-0.2710779080936685
1761470464211832600,9.55183251953125,0.6723901427537202,-0.2942458350501954,-0.17424867872931063
1761470464221808400,9.561808349609375,0.5904530333012342,-0.31527832088060675,-0.134204216578044
1761470464231784700,9.57178466796875,0.4980652569830417,-0.3225815565660596,-0.1312892424467951
1761470464241761500,9.581761474609374,0.25642332326471806,-0.45500893619731064,-0.10180011311210692
1761470464251737600,9.591737548828124,-0.08780103304982184,-0.5933339224997908,0.00020772446654736994
1761470464261713400,9.60171337890625,-0.3383282840132713,-0.5766831588849425,0.03061623366847634
1761470464271690500,9.6116904296875,-0.4356126002013683,-0.5126135684259235,0.024168190040253102
1761470464281666600,9.62166650390625,-0.5039332722336054,-0.5728107013657688,0.09339545552339404
1761470464291642400,9.631642333984376,-0.5338093550592661,-0.6977829426854848,0.2170518650041893
1761470464301619500,9.641619384765624,-0.5650017811805009,-0.8283497891418635,0.222222947499156
1761470464311595500,9.651595458984374,-0.5545107823044061,-0.9396909799940883,0.21788279940299687
1761470464321571600,9.661571533203125,-0.5705886414021253,-1.08254272300601,0.2311098356468603
1761470464331547400,9.67154736328125,-0.6250076293319463,-1.2082704588681459,0.19696210338398812
1761470464341524500,9.6815244140625,-0.6796516581892967,-1.2115097330503164,0.10236070613693446
1761470464351500500,9.69150048828125,-0.770139153844118,-1.1527794577926396,0.06326499607786536
1761470464361476400,9.701476318359376,-1.032743211570382,-1.0651277700856328,0.026451113345660266
1761470464371453400,9.711453369140624,-1.430636614230275,-0.9467137182377279,-0.036728834797255694
1761470464381429500,9.721429443359375,-1.766212969186902,-0.8288695752322673,-0.07073573381733149
1761470464391405600,9.731405517578125,-1.9515929174572229,-0.8090406930379569,0.06249806682597846
1761470464401381400,9.74138134765625,-1.7984762394100426,-0.8678522168383002,0.1302645755741745
1761470464411358700,9.751358642578126,-1.4353262333512304,-0.8229623970150947,-0.010468823576904833
1761470464421334500,9.76133447265625,-1.086205921688676,-0.8207543655768036,-0.1276112480537966
1761470464431310600,9.771310546875,-0.7884820352643728,-0.8436052259407937,-0.15311167307849974
1761470464441287400,9.781287353515625,-0.5367652822554111,-0.7838355246327817,-0.20578610062962396
1761470464451263500,9.791263427734375,-0.4348854549705982,-0.5182724709704518,-0.3614203327219933
1761470464461239600,9.801239501953125,-0.5657645822465419,-0.14926263296753167,-0.4824976854950189
1761470464471216400,9.81121630859375,-0.9248650206536054,0.20877602142691612,-0.3577977948432788
1761470464481192700,9.821192626953126,-1.2121733115255833,0.45583223527893424,-0.16379516231939195
1761470464491168500,9.83116845703125,-1.3398860837250948,0.7205731589034199,-0.12243065794496796
1761470464501144600,9.84114453125,-1.3106155655771494,0.9658853055670857,-0.242573278017994
1761470464511121400,9.851121337890625,-1.0044757329851388,1.0309653882429004,-0.254237138332054
1761470464521097500,9.861097412109375,-0.45188335152268405,0.8092483444392681,-0.09033602228700183
1761470464531073500,9.871073486328125,0.14231062187254429,0.5579603382363915,0.1392144002897199
1761470464541050400,9.88105029296875,0.6460469102293253,0.4453811300218105,0.24341400315845385
1761470464551026700,9.891026611328124,1.0794500176876782,0.310991656537354,0.2754776591562666
1761470464561002500,9.90100244140625,1.3129478079169987,0.1688195663526654,0.42301732252240176
1761470464570978600,9.910978515625,1.4578876092493533,0.06646203855350613,0.6232813900612294
1761470464580955400,9.920955322265625,1.5348223803699015,0.10367869340032339,0.8346536385264247
1761470464590931700,9.930931640625,1.5692805302888153,0.2201566626191139,0.9689387748535722
1761470464600907500,9.940907470703126,1.5146744953542948,0.4019121367819607,1.0343366182416678
1761470464610884400,9.95088427734375,1.4206687624454497,0.6644219403535128,0.9856657455097884
1761470464620860700,9.960860595703124,1.2770540722370147,0.9579119886003434,0.7132013149611651
1761470464630836500,9.97083642578125,1.00971421816051,1.1703607071906328,0.3843631091531366
1761470464640813600,9.9808134765625,0.6152642339527606,1.241266573410481,0.06080502657196484
1761470464650789400,9.990789306640625,0.1540443142861128,1.2871568024478852,-0.11686762612350285
1761470464660765700,10.000765625,-0.2168015069723129,1.3837223028421402,-0.14525182642359286
1761470464670741500,10.010741455078126,-0.4071703495711088,1.4752394338056445,-0.045563029209920204
1761470464680718300,10.02071826171875,-0.33559038348197934,1.5297173123158514,0.15960134562505407
1761470464690694700,10.030694580078125,0.06995265714824199,1.4505287709191441,0.4155767972581088
1761470464700670500,10.04067041015625,0.6155231771498918,1.2203687468104063,0.6456577647812665
1761470464710647600,10.0506474609375,1.0406459475189447,0.8654689749635756,0.794537389780581
1761470464720623600,10.06062353515625,1.3798065907031296,0.48211511591821904,0.7919451082650572
1761470464730599700,10.070599609375,1.5227023189872502,0.08576149004623293,0.7305065238967537
1761470464740577300,10.080577392578125,1.5155682293236254,-0.18806392665728924,0.5602709532663226
1761470464750553300,10.09055322265625,1.479486862117052,-0.32454116620123385,0.4439830997921526
1761470464760529200,10.100529052734375,1.3523492594569921,-0.42238048592358823,0.30177221196703613
1761470464770505500,10.11050537109375,1.0754466272652148,-0.4642363448783755,0.15655494540017098
1761470464780482300,10.120482421875,0.7585206122428179,-0.41025034153833984,0.07066887912619858
1761470464790458400,10.130458251953126,0.3942863180786371,-0.2954641247987747,0.04948889285018667
1761470464800434400,10.140434326171874,0.10001695602238178,-0.1289129417695105,0.08224146269392221
1761470464810411300,10.150411376953125,-0.019781974312663077,-0.05530877637639641,0.1010391752095893
1761470464820387300,10.16038720703125,0.02485036361813545,-0.06997238476201892,0.1924225237255916
1761470464830363400,10.17036328125,0.18599018912315368,-0.2100625541061163,0.3567701322959736
1761470464840339500,10.18033935546875,0.3308791370511055,-0.42512379328235983,0.5389264423446729
1761470464850316300,10.19031640625,0.4622632912397384,-0.5839044884406029,0.5640621987754478
1761470464860292400,10.200292236328124,0.4552203869909048,-0.6654170888707042,0.4524142435289919
1761470464870268400,10.210268310546875,0.22166063744127748,-0.753181735432893,0.3040011035302654
1761470464880245500,10.22024560546875,-0.06819441530406474,-0.7914527216382324,0.22846374158486724
1761470464890221300,10.23022119140625,-0.2976683568447828,-0.7969687085807323,0.17778993153274059
1761470464900197400,10.240197265625,-0.5035632698774337,-0.7536318172879517,0.1336844670202583
1761470464910174500,10.250174560546874,-0.6801935099810361,-0.6971043127715587,0.09260689896158873
1761470464920150300,10.260150390625,-0.8921966767609119,-0.6756099815830588,-0.013732355417497455
1761470464930126300,10.270126220703125,-1.0918927351534367,-0.5766536405295133,-0.09019083252949639
1761470464940102400,10.280102294921875,-1.197971767693758,-0.44014775941297407,-0.1627230213095434
1761470464950079500,10.29007958984375,-1.2287503523170948,-0.31973405818045136,-0.16808124214075504
1761470464960055300,10.30005517578125,-1.2171323952376842,-0.21668036481067537,-0.08556291700052097
1761470464970031400,10.31003125,-1.2518266920000314,-0.25703648672699925,0.08697324045617133
1761470464980008400,10.320008544921874,-1.2885633082449435,-0.4629888290353119,0.37854784700311717
1761470464989984300,10.329984375,-1.1588503021389245,-0.610976912022382,0.4712613481443375
1761470464999960300,10.339960205078125,-0.9395224915593862,-0.6519336301803589,0.22353076042840256
1761470465009936400,10.349936279296875,-0.8274357430368662,-0.639564562472701,-0.13708632048615255
1761470465019913500,10.35991357421875,-0.768113785496354,-0.6489588521532714,-0.5019081961467862
1761470465029889300,10.36988916015625,-0.7255933251529931,-0.6370683617427945,-0.7285511520452796
1761470465039865300,10.379865234375,-0.8030208482265472,-0.5108401290126144,-0.8707447234094142
1761470465049842400,10.389842529296875,-1.1066378843426703,-0.12291150939762592,-0.9883248086512089
1761470465059818200,10.399818359375,-1.436492939043045,0.3728426941640675,-0.9273860635638237
1761470465069794300,10.409794189453125,-1.7543237939506768,0.8382565583892166,-0.723637880236283
1761470465079771400,10.419771484375,-1.8986252973794937,1.2132789346799253,-0.5101953648356721
1761470465089747500,10.42974755859375,-1.7901561548322438,1.4661489493772386,-0.26642211817707867
1761470465099723300,10.43972314453125,-1.3525059113234281,1.6115988921888171,0.03312594233392738
1761470465109699300,10.44969921875,-0.8019634481281042,1.510385419858247,0.2747036973753944
1761470465119676400,10.459676513671875,-0.2918307367324829,1.3123638705492018,0.2824471145763993
1761470465129652200,10.46965234375,0.15995383059084414,1.0879304073937237,0.08412877427786589
1761470465139628300,10.479628173828125,0.4099006513178348,0.8043050428181886,-0.034240159786678846
1761470465149605400,10.48960546875,0.5771399627417325,0.6057819737277924,-0.17643183145467192
1761470465159581400,10.49958154296875,0.7827233256071805,0.5248940810672938,-0.28044359273426234
1761470465169557200,10.50955712890625,0.9861766907066106,0.44610023807659743,-0.314062990274094
1761470465179534300,10.519534423828125,1.2253192088246345,0.3962251771867275,-0.32919929420538246
1761470465189510400,10.529510498046875,1.4500000708699226,0.4535819721341133,-0.45991954112518574
1761470465199486200,10.539486328125,1.5511241113513707,0.5132919060789048,-0.6392001130744814
1761470465209462500,10.549462646484375,1.4946335778445003,0.5665265065297485,-0.7019320251889526
1761470465219439400,10.559439453125,1.3758207359373569,0.6996952060475945,-0.6649361734859645
1761470465229415400,10.56941552734375,1.2446984475553036,0.8479083299621939,-0.5615755695914849
1761470465239391200,10.57939111328125,1.0980664553523063,0.9359363036356866,-0.3735452529428527
1761470465249368300,10.589368408203125,0.937872386264801,1.0334522366225718,-0.2536658047175035
1761470465259344400,10.599344482421875,0.9434902261465787,1.0045286322161555,-0.25233773445151747
1761470465269320200,10.6093203125,0.8754495400995016,1.0199608868867158,-0.21381660941001027
1761470465279296500,10.619296630859376,0.7813327480316161,0.9446338432237505,-0.16295622727721928
1761470465289273300,10.6292734375,0.7937894940227269,0.8446370532065629,-0.2541068630158901
1761470465299249400,10.63924951171875,0.9029051177799701,0.6572216535858809,-0.28888788821361955
1761470465309225200,10.64922509765625,1.0061714309871197,0.4039204078644514,-0.2830756582709029
1761470465319202300,10.659202392578125,1.1655419087320567,0.23360212738662955,-0.3224576744580641
1761470465329178400,10.669178466796875,1.2590718408226966,0.06332637087628246,-0.3276018324134871
1761470465339154200,10.679154296875,1.100416817870736,-0.1192361818857491,-0.2912178289985284
1761470465349131300,10.68913134765625,0.807709882825613,-0.16971023158207535,-0.27407223107144235
1761470465359107300,10.699107421875,0.6326479149520396,-0.2511843996979296,-0.2961056010400876
1761470465369083400,10.70908349609375,0.5802794298112393,-0.3627085459016263,-0.2809903033642098
1761470465379059200,10.71905908203125,0.388482600235939,-0.44545244169235226,-0.2515777829296887
1761470465389036500,10.72903662109375,0.21237726078927516,-0.41327495005652304,-0.254639508587867
1761470465399012400,10.739012451171876,0.1069914712101221,-0.38296076807454227,-0.19666432601381093
1761470465408988200,10.74898828125,0.0053010290175676345,-0.42535687138587236,-0.10480766089763492
1761470465418965200,10.75896533203125,-0.04792494973540306,-0.5518873019330203,-0.01922667851746082
1761470465428941300,10.76894140625,0.01255962184369564,-0.7256023852422833,0.051367674067802724
1761470465438917400,10.77891748046875,0.0775946963340044,-0.820106423062086,0.056508690218068654
1761470465448893200,10.78889306640625,0.06493395220339297,-0.9067387045934796,-0.05619717658348381
1761470465458870500,10.79887060546875,-0.0939379283696413,-1.0240219988457857,-0.23181122538186608
1761470465468846300,10.808846435546876,-0.34440789618790146,-1.1729521849885582,-0.36552995999790727
1761470465478822100,10.818822265625,-0.5446370385438204,-1.237281303166598,-0.42633499570302663
1761470465488799200,10.82879931640625,-0.6765186208605766,-1.2435077764660118,-0.4731758034635335
1761470465498775300,10.838775390625,-0.8535825762063264,-1.2861464563615619,-0.48359735383260993
1761470465508751400,10.84875146484375,-0.9148591749459505,-1.2251191562078891,-0.5328698091868311
1761470465518728200,10.858728271484376,-0.7332862177431583,-1.091073527725041,-0.5224549077542499
1761470465528704500,10.86870458984375,-0.8625655086070299,-1.0335561353884637,-0.44101504376679657
1761470465538680300,10.878680419921874,-0.8508107734054327,-1.0565889281906187,-0.23524569334257392
1761470465548656000,10.88865625,-1.0322457834422587,-0.7869697310052811,-0.07453333600200712
1761470465558633200,10.89863330078125,-1.3260188864141702,-0.5001017312467098,-0.09136891813185065
1761470465568609300,10.908609375,-1.6939374220490455,-0.6457229389719664,-0.04344985014796257
1761470465578585300,10.91858544921875,-1.8552321458548306,-0.48545332043021916,-0.06750102621242404
