time,seconds_elapsed,z,y,x
1761475689144400100,0.063400146484375,-0.06415829165577888,-0.7289054453756659,0.17364413696490227
1761475689154377200,0.073377197265625,-0.1200017594307661,-0.8059394390869885,0.0689097239665687
1761475689164354000,0.08335400390625,-0.25569617803394795,-0.893464139413461,0.04486329714246094
1761475689174331100,0.0933310546875,-0.6920102045029402,-0.9634203767582774,-0.06996303241178393
1761475689184308000,0.103307861328125,-0.9543015430182218,-0.8917593082569539,-0.32008959361985323
1761475689194285000,0.11328515625,-0.769430713313818,-0.7391239839859306,-0.369605538873747
1761475689204262100,0.12326220703125,-0.3781166890442371,-0.6304096345059573,-0.17227686719968913
1761475689214239200,0.1332392578125,-0.05503507400155067,-0.5635520207636058,0.2900892268273979
1761475689224217000,0.143217041015625,0.1469575708955526,-0.49660979747772216,0.598204743406549
1761475689234194000,0.15319384765625,0.18424539128243922,-0.4024947589755058,0.7618356550749391
1761475689244171300,0.163171142578125,0.06280453895926476,-0.350658481015265,0.8438320204339921
1761475689254148400,0.1731484375,-0.01604571039378643,-0.25017989883050323,0.8157778923384845
1761475689264125200,0.183125244140625,0.014123217898607253,-0.19484759544804692,0.8059104321882128
1761475689274102300,0.193102294921875,-0.0670896689325571,-0.27385011275336146,0.7623124057412147
1761475689284079000,0.2030791015625,-0.24061726684570311,-0.32968802757039667,0.5981305091265589
1761475689294056200,0.21305615234375,-0.15999942329823968,-0.2216194286480546,0.38440797120817005
1761475689304033000,0.223032958984375,0.045806057885289186,-0.14238938619717956,0.3293259162597358
1761475689314010000,0.233010009765625,0.2300514491677284,-0.10024725764691829,0.38199323821663855
1761475689323987200,0.2429873046875,0.3902963716596365,-0.013607085070014,0.4466487388048321
1761475689333965000,0.252965087890625,0.45894905212521553,0.1290067575328052,0.4911357499808073
1761475689343942100,0.262942138671875,0.24974399163126945,0.23535408562049268,0.4330714643511921
1761475689353919000,0.2729189453125,-0.09862637844681739,0.35707667749449606,0.27252412484660743
1761475689363896000,0.28289599609375,-0.30258243237137794,0.4689293250001967,0.15657492874227463
1761475689373873200,0.292873046875,-0.3362678443521261,0.43836862091124057,0.08831051694191992
1761475689383850000,0.30285009765625,-0.2877367454171181,0.35298005583062764,0.14352306640222667
1761475689393827000,0.3128271484375,-0.14822598339617252,0.1601519835114479,0.2845398490719497
1761475689403804200,0.32280419921875,0.031578795090317725,0.022178660190850494,0.27963161876425147
1761475689413781200,0.33278125,0.15428338373899458,-0.10263970574140548,0.18789543822258709
1761475689423758000,0.342758056640625,0.19746026216447352,-0.19135814589709044,0.15504932661019263
1761475689433735200,0.352735107421875,0.2355582298904657,-0.2599935829669237,0.17543014359883963
1761475689443713300,0.36271337890625,0.2938561050802469,-0.3028082039512694,0.2754141471996903
1761475689453690000,0.372690185546875,0.39143852743208407,-0.32329642683714627,0.3689544545538723
1761475689463667200,0.382667236328125,0.5494593441337347,-0.3548793135806918,0.40897323427461085
1761475689473644300,0.392644287109375,0.6783113494962454,-0.4733168924346566,0.484150859529525
1761475689483621000,0.40262109375,0.6894435688853263,-0.46458705801218747,0.515721763574332
1761475689493598200,0.41259814453125,0.7669412345856428,-0.4329984721802175,0.5181192166374996
1761475689503575000,0.422574951171875,0.8449176237136125,-0.4382737822346389,0.6063244100414216
1761475689513552100,0.43255224609375,0.8688058643013239,-0.36231384749561546,0.7394675367265939
1761475689523529000,0.442529052734375,0.8623235165446996,-0.25944720113053915,0.8335705925300717
1761475689533506000,0.452506103515625,0.7773521539628505,-0.2907840041585266,0.8369104775425046
1761475689543483100,0.462483154296875,0.5034697463750839,-0.23450886696800588,0.7266743983879685
1761475689553461000,0.4724609375,0.2662017899572849,-0.07839870619326829,0.5673836713483557
1761475689563438000,0.48243798828125,0.11669336553514004,0.027283874375373125,0.5216699313890188
1761475689573415200,0.492415283203125,0.016872808867692945,0.04424319248273968,0.5374256823929027
1761475689583392300,0.502392333984375,0.05008183550834656,0.05513166624382138,0.6343396674312651
1761475689593369300,0.512369384765625,0.1626701038122177,0.03169979112148285,0.7388032275989651
1761475689603346200,0.52234619140625,0.23901216973662376,-0.025507804613560437,0.7942058197386562
1761475689613323300,0.5323232421875,0.176002463594079,-0.12553338233381509,0.7158373625531792
1761475689623300000,0.542300048828125,0.055905427095293996,-0.2484603815615177,0.6095801969669759
1761475689633277200,0.552277099609375,-0.006208206990361213,-0.343700040179491,0.5015027936836705
1761475689643254000,0.56225390625,0.07861585607528686,-0.46999125514328477,0.4033249627219513
1761475689653231000,0.572231201171875,0.20962416268885134,-0.591307604303956,0.35479397338479757
1761475689663209200,0.582209228515625,0.3335439723461866,-0.7082809558242559,0.2964113790536299
1761475689673186000,0.59218603515625,0.42117081787288185,-0.7901542062602936,0.24126356539260593
1761475689683163100,0.6021630859375,0.494590274348855,-0.8557387313269078,0.13215791504010557
1761475689693140000,0.612139892578125,0.4859335051625967,-0.9969875691868364,0.1689746473165229
1761475689703117000,0.622116943359375,0.5728519101589917,-1.0580185226023195,0.2175116280030459
1761475689713094100,0.63209423828125,0.645717239883542,-1.0707134612634777,0.2428214623590931
1761475689723071000,0.642071044921875,0.64661623454988,-1.0586698261179028,0.3073250968538225
1761475689733048300,0.65204833984375,0.651293578711152,-0.9616298400796949,0.2972539673576131
1761475689743025200,0.662025146484375,0.562353312498331,-0.9884178937621414,0.3261576980197802
1761475689753002200,0.672002197265625,0.45444063479006286,-1.0131789716616273,0.3307609905641526
1761475689762979000,0.68197900390625,0.4062935667365789,-1.039496485222876,0.27792784705366935
1761475689772957200,0.691957275390625,0.4330290134489536,-1.0772801263026892,0.2843224434616044
1761475689782934300,0.701934326171875,0.5843289974629878,-1.1062851253822445,0.2981991027206182
1761475689792911000,0.7119111328125,0.7223585810154676,-1.166354101897776,0.3505979464670643
1761475689802888200,0.72188818359375,0.8113865255117416,-1.260830521058291,0.4184810673322528
1761475689812865300,0.731865234375,0.7888754184961319,-1.3366580615893005,0.4387830469310283
1761475689822842000,0.741842041015625,0.7044950075447559,-1.3467737974122165,0.4311657403277233
1761475689832819200,0.751819091796875,0.5822755720645189,-1.3684073909409344,0.40443935370463874
1761475689842796000,0.761796142578125,0.36206864056289195,-1.4405185412973165,0.34496655298396944
1761475689852773000,0.771773193359375,0.18666355834007262,-1.4520809687972067,0.24335728626884517
1761475689862750000,0.78175,0.06269406432211398,-1.402216721562296,0.17608358427258208
1761475689872727000,0.79172705078125,-0.04093231436908245,-1.3730480563536285,0.1468825328979641
1761475689882705200,0.801705078125,-0.16738602641820907,-1.3344248957097529,0.12605536038130521
1761475689892682000,0.811681884765625,-0.3395978655576706,-1.2827519916176795,0.12912368017705156
1761475689902659000,0.8216591796875,-0.570852260774374,-1.2119001936726272,0.1314545890763402
1761475689912636200,0.83163623046875,-0.7349509360849857,-1.1386458646304904,0.18251049378123133
1761475689922613200,0.84161328125,-0.8615051858991384,-1.1095197964545338,0.26273562995037064
1761475689932590300,0.85159033203125,-0.9547083702534437,-1.125942815728113,0.33401685055494307
1761475689942567200,0.861567138671875,-1.0505249519765376,-1.1023168062731623,0.34689452537186444
1761475689952544300,0.871544189453125,-1.150292901673913,-1.0226702919758857,0.28107220949400213
1761475689962521000,0.88152099609375,-1.25201607709229,-0.9073687461253255,0.17158983478359877
1761475689972498200,0.891498291015625,-1.2735726598620414,-0.7551989204742015,0.08921120124184526
1761475689982475000,0.90147509765625,-1.2122440386742352,-0.6230548878289759,0.09001425211988388
1761475689992453000,0.911453125,-1.1128928530842066,-0.6105741764403879,0.17976592604713512
1761475690002430200,0.92143017578125,-1.0042103600472212,-0.885343595995754,0.4546508800072595
1761475690012407000,0.931406982421875,-0.841000158008933,-1.2341560107529164,0.6476679355598985
1761475690022384000,0.941384033203125,-0.6783534350723027,-1.3525403981149196,0.582181317909807
1761475690032361000,0.95136083984375,-0.43257483994066714,-1.247094841172546,0.27350648694746194
1761475690042338000,0.961338134765625,-0.4099398142844438,-1.2565760784842073,0.0722429783088155
1761475690052315100,0.971315185546875,-0.3525456099361181,-1.2443090098462999,-0.294876789897494
1761475690062292200,0.981292236328125,-0.2728980727255344,-1.0657115613229573,-0.5108356355005875
1761475690072269300,0.991269287109375,-0.22153204262554643,-0.6405611722946166,-0.7577385950196533
1761475690082246100,1.00124609375,-0.30420214252769945,-0.2979708469226956,-0.6415094129301607
1761475690092223200,1.01122314453125,-0.4306786509305238,-0.04754676407277584,-0.4336812668126076
1761475690102201300,1.021201416015625,-0.4728308624833822,0.23224852082058786,-0.36500809154827146
1761475690112178200,1.03117822265625,-0.5208768082499504,0.5744754197075963,-0.39434422227833416
1761475690122155000,1.041155029296875,-0.6403793859869241,0.9236826790012419,-0.4960135486176237
1761475690132132000,1.051132080078125,-0.7833867579519749,1.158423893420398,-0.47669740171842273
1761475690142109000,1.06110888671875,-0.9003636166036129,1.2520578704074024,-0.3995632721008733
1761475690152086000,1.0710859375,-0.8001590290546416,1.3426095173396169,-0.533499120066315
1761475690162062800,1.081062744140625,-0.7037912431895732,1.218116876230389,-0.6194003108441829
1761475690172040000,1.0910400390625,-0.6089753629416227,0.9994051517225802,-0.6320544791035354
1761475690182017000,1.10101708984375,-0.33548516954183577,0.9498147529929876,-0.9008280192449688
1761475690191993900,1.110993896484375,0.044726445955038066,0.9285586144745349,-1.2180011408962308
1761475690201972000,1.120971923828125,0.43625265167057514,0.8180342929631471,-1.427856335861981
1761475690211948800,1.13094873046875,0.7417056710422039,0.6855208424836396,-1.464520471392572
1761475690221926000,1.14092578125,1.0378548554956912,0.5771772260122001,-1.3312693542882799
1761475690231903000,1.150903076171875,1.2978683122068644,0.4821314825311303,-1.1928074437331408
1761475690241880000,1.160880126953125,1.5105992087393998,0.39163419613465666,-1.0502623555175958
1761475690251857200,1.170857177734375,1.6866133627712725,0.3740308810353279,-1.0342792620312422
1761475690261834000,1.180833984375,1.7724802128881214,0.40226416509002444,-1.0240724138587713
1761475690271811000,1.19081103515625,1.8707155461907385,0.4204989099606871,-1.0073002888865767
1761475690281788000,1.200787841796875,1.818457535687089,0.331525326000154,-0.8827841938365251
1761475690291765000,1.210764892578125,1.7807324929267168,0.2793111546382308,-0.7390770761042833
1761475690301742000,1.2207421875,1.7824352051913737,0.24200126855000853,-0.6262444776505232
1761475690311720000,1.230719970703125,1.674115115725994,0.17555661952272056,-0.4587782256029546
1761475690321697000,1.240697021484375,1.4432605334818362,0.11901026417538522,-0.33583909754604097
1761475690331673900,1.250673828125,1.1096493411183357,0.07081584984883665,-0.23291235502418128
1761475690341651000,1.26065087890625,0.7809294279277325,0.06770590113475919,-0.18118929164744912
1761475690351628000,1.2706279296875,0.49679041474163527,0.034544659158587454,-0.10469265621583908
1761475690361604900,1.28060498046875,0.30725743844509124,0.013961889857053756,-0.05589092364590615
1761475690371582000,1.29058203125,0.19332769240438938,-0.07238762921020388,-0.059673693587630985
1761475690381558800,1.300558837890625,0.10512801542580127,-0.19707170123830436,-0.042641565972380335
1761475690391535900,1.310535888671875,-0.008048866420984268,-0.3913261530987918,-0.08533716368693858
1761475690401513000,1.320512939453125,-0.08226268814504147,-0.5692931947641074,-0.06686353202648461
1761475690411490000,1.330489990234375,-0.07261223174631595,-0.6817618552763015,-0.12390132415257393
1761475690421468000,1.340468017578125,-0.044648120021820066,-0.8445227791771293,-0.09205372205823659
1761475690431445000,1.350445068359375,-0.010450082343816756,-0.9771703043650836,-0.08974171878881752
1761475690441422000,1.360422119140625,0.008785948523879051,-1.068433095241338,-0.08509652333147823
1761475690451399200,1.370399169921875,0.03182604784965515,-1.1152022990703583,-0.08381419190336019
1761475690461376000,1.3803759765625,0.06767068369090556,-1.1078981135368347,-0.07829007645333186
1761475690471353000,1.39035302734375,0.0359369902998209,-1.067812771385908,-0.05848638349920511
1761475690481330000,1.400329833984375,-0.05777765070796013,-1.0328290632229298,0.002856521942280233
1761475690491307000,1.41030712890625,-0.13304594992101193,-1.026761433747038,0.008422028848621994
1761475690501283800,1.420283935546875,-0.2573392690658569,-1.0109294391691683,0.005392963351029903
1761475690511261000,1.430260986328125,-0.4483925867974758,-0.96658132500723,-0.12548548807147888
1761475690521239000,1.440239013671875,-0.7674404162794352,-0.9670385672554374,-0.12316544762607663
1761475690531216000,1.4502158203125,-1.087736784517765,-0.8999360388413071,-0.16019750315360723
1761475690541193000,1.46019287109375,-1.3717185613155365,-0.8821447268892079,-0.1544089463474229
1761475690551169800,1.470169677734375,-1.605348453491926,-0.9007387335263192,-0.1331696676322259
1761475690561147000,1.48014697265625,-1.676916144621372,-0.8852820750668644,-0.13099128241352737
1761475690571124000,1.4901240234375,-1.6445634425491094,-0.909904767408967,-0.1497751125343144
1761475690581101000,1.50010107421875,-1.5778198105752468,-0.9756566849317401,-0.15723368491195142
1761475690591078100,1.510078125,-1.5056389559835195,-1.035000781238824,-0.26073512204922733
1761475690601055000,1.520054931640625,-1.462293150731921,-1.0960261816963552,-0.4110874134169891
1761475690611032000,1.530031982421875,-1.509114523139596,-1.241220103920251,-0.35905864509195085
1761475690621009000,1.5400087890625,-1.5036305387705564,-1.4748938352383671,-0.09225004834793507
1761475690630987000,1.549987060546875,-1.3133423601925371,-1.7364745412662623,0.21561763094998895
1761475690640964000,1.559964111328125,-0.9632692778497933,-1.7205338986821472,0.12375570513680577
1761475690650941000,1.56994091796875,-0.5820616370528936,-1.5888504692859946,-0.20319354511946439
1761475690660918000,1.57991796875,-0.5130436304062604,-1.5504846444040536,-0.325701186423935
1761475690670894800,1.589894775390625,-0.7430997557491064,-1.4572930043570695,-0.42072504686675966
1761475690680872000,1.599871826171875,-1.03222474065423,-1.2097658119924366,-0.7420692436575889
1761475690690849000,1.60984912109375,-1.1049310804247856,-0.5382777326449751,-0.9805245101638138
1761475690700825900,1.619825927734375,-1.3900889152646063,-0.10498889921605586,-0.7686948733199387
1761475690710803000,1.629802978515625,-1.55601188339293,0.3655111822322011,-0.46635264291260387
1761475690720779800,1.63977978515625,-1.4826128851830958,0.8434453592039645,-0.22122739712316541
1761475690730757000,1.649757080078125,-1.3376491184532642,1.219481004190445,0.14600581399551593
1761475690740735000,1.65973486328125,-1.1651748289853334,1.3934518158264457,0.6030634720167145
1761475690750711800,1.6697119140625,-0.8878022411942481,1.4626993934452532,0.9619144291747361
1761475690760689000,1.67968896484375,-0.48631285986900324,1.4164163656979798,1.1609994429968298
1761475690770666000,1.689666015625,-0.024942718076705932,1.3306829327024519,1.269249389835447
1761475690780643000,1.69964306640625,0.461976875513792,1.2552993365466594,1.290823069870472
1761475690790620200,1.7096201171875,1.0171066664993762,1.1396752076782286,1.3435824540250003
1761475690800597000,1.719596923828125,1.4292349307388066,1.02723131628111,1.4124395710214972
1761475690810574000,1.729573974609375,1.7472820587456226,0.9059485771290957,1.5013883128017187
1761475690820551000,1.739551025390625,1.994414991095662,0.860620219758153,1.522062121387571
1761475690830528000,1.749528076171875,2.0613345641583205,0.7643693382710218,1.571412866142392
1761475690840506000,1.759506103515625,2.0775971321731803,0.9281414119757712,1.29909785400182
1761475690850483000,1.76948291015625,1.9770435850560664,1.1724509574681519,0.9211848708361386
1761475690860460000,1.7794599609375,1.7523598004013299,1.425910754752159,0.6540656737729906
1761475690870436900,1.789436767578125,1.5092717595279217,1.5664439916886388,0.4970133733099326
1761475690880414000,1.7994140625,1.3376321673184632,1.5939124288506805,0.37914760299455375
1761475690890390800,1.809390869140625,1.2958651556909084,1.6313642076276242,0.2832793641494587
1761475690900368000,1.819367919921875,1.2234218507707117,1.5796541863955555,0.2821966834792867
1761475690910345000,1.829344970703125,1.2403197940796613,1.4698917891673744,0.4068103571522981
1761475690920322000,1.839322021484375,1.355855806273222,1.3758805033005774,0.535444481980428
1761475690930299100,1.849299072265625,1.5684867495626211,1.2534272590644657,0.6800839851919561
1761475690940276000,1.85927587890625,1.7907640575975179,1.1083446882605552,0.8204013874206691
1761475690950254000,1.869254150390625,1.914551765307784,0.897441737807542,0.9440513671606778
1761475690960231200,1.879231201171875,1.8263883286863565,0.6839129688955843,0.9163123694289476
1761475690970208000,1.8892080078125,1.5183604903906582,0.514329578563571,0.8029727713011204
1761475690980185000,1.89918505859375,1.0554507179409265,0.38716903341934084,0.6401135015923529
1761475690990162000,1.909161865234375,0.6176946759700774,0.29102146617621183,0.4743173747140914
1761475691000139000,1.919138916015625,0.3189583976328373,0.15105623838603496,0.4188819762833416
1761475691010115800,1.92911572265625,0.08077917158901692,0.0355764864243567,0.34407084625326095
1761475691020093000,1.939093017578125,-0.06339373702406882,-0.07491714768782258,0.28181966686043886
1761475691030070000,1.949070068359375,-0.14885668251514433,-0.2271248941965401,0.23206534627340733
1761475691040046800,1.959046875,-0.08418342707455158,-0.341599122377485,0.15835048704743385
1761475691050025000,1.96902490234375,-0.03887888897061348,-0.5213457409359514,0.18279267172347752
1761475691060002000,1.979001953125,-0.05947101062238216,-0.7476926364973187,0.2148356137268245
1761475691069979000,1.988978759765625,-0.18928104736208914,-0.9282016177304089,0.20844739226074888
1761475691079956000,1.9989560546875,-0.33861469973921776,-1.0686312481619418,0.18584131870437412
1761475691089932800,2.008932861328125,-0.48088791221082205,-1.2055718674339353,0.14230271256072446
1761475691099910100,2.01891015625,-0.6132441263020039,-1.3504799584537743,0.028196733170282096
1761475691109887000,2.028886962890625,-0.7351976043224334,-1.4577261350773274,-0.1135895634340588
1761475691119864300,2.0388642578125,-0.8420254094034433,-1.451771902848035,-0.2930085300738923
1761475691129841400,2.04884130859375,-0.9423872333407401,-1.403148595584929,-0.39020303082037716
1761475691139818200,2.058818359375,-1.1798568498104811,-1.3228205287642776,-0.39417134992945935
1761475691149795300,2.06879541015625,-1.375965697365999,-1.199463759817183,-0.31423652021009474
1761475691159773400,2.0787734375,-1.409075355285406,-1.0203351270265877,-0.19303583331834523
1761475691169750300,2.088750244140625,-1.2937141151368616,-0.8667712897337972,0.007180887947417796
1761475691179727400,2.098727294921875,-1.126914948695898,-0.7903679951414465,0.23667693172208965
1761475691189704200,2.1087041015625,-0.9705898299962281,-0.7584628907062113,0.35414511755462735
1761475691199681300,2.118681396484375,-0.8146201006054877,-0.7345458624154328,0.3142134681280702
1761475691209658400,2.128658447265625,-0.7785013239979743,-0.7706247454039752,0.24563089375663547
1761475691219635200,2.13863525390625,-0.8174012557566166,-0.9032572922185063,0.29451237703189254
1761475691229612300,2.1486123046875,-0.8188900330096482,-1.2163285315088928,0.5302246649729088
1761475691239589000,2.158589111328125,-0.643574382635951,-1.410297006034851,0.658352849572897
1761475691249566200,2.168566162109375,-0.26303075870573517,-1.3241808573320508,0.5136965413570403
1761475691259543300,2.178543212890625,0.0018844985723495483,-1.1581157042540609,0.23023181070331483
1761475691269521200,2.188521240234375,-0.04745791674554348,-0.9083978699773549,-0.08580215085018425
1761475691279498200,2.198498291015625,-0.19623451976180076,-0.7152880581073463,-0.3474498576996848
1761475691289475300,2.208475341796875,-0.3146259213864803,-0.4384476774968207,-0.4586676779005676
1761475691299452400,2.218452392578125,-0.49489364120960233,-0.04444967484027147,-0.2687873677373864
1761475691309429200,2.22842919921875,-0.7390186239153146,0.33373993330970403,-0.09935847384734078
1761475691319406300,2.23840625,-0.983839187669754,0.7741008970819413,-0.07542641238421201
1761475691329383400,2.248383544921875,-1.1412187838584185,1.1356795621708036,-0.1206457929553464
1761475691339360300,2.2583603515625,-1.1678788272470235,1.3968395585685967,-0.15356100601488723
1761475691349337300,2.26833740234375,-1.0908920336782932,1.5238688785485923,-0.017339193403581157
1761475691359314200,2.278314208984375,-0.9287643661797046,1.6341225664250552,0.005828966448386199
1761475691369292300,2.288292236328125,-0.649011020731926,1.6597016827091573,0.0002640486305113882
1761475691379269400,2.298269287109375,-0.40820962949097156,1.5355821126960216,-0.026296479906374588
1761475691389246200,2.30824609375,-0.0941080242395401,1.4106613093025981,-0.10118980832719243
1761475691399223300,2.318223388671875,0.3533499120563268,1.304510965091735,-0.10833998147593811
1761475691409200000,2.3282001953125,0.7749971152693033,1.184999327265471,-0.13288832994019611
1761475691419177200,2.33817724609375,1.0448030671983957,1.0497041371129452,-0.16987647326076402
1761475691429154000,2.348154052734375,1.146594631677866,0.8977277151420712,-0.2216371104352176
1761475691439131100,2.358131103515625,1.0870102238088846,0.7208161738790572,-0.3442177073780447
1761475691449108500,2.3681083984375,1.0756488718390464,0.663578475266695,-0.5135573155494406
1761475691459085300,2.378085205078125,1.2064970194548368,0.8009723912641405,-0.7685552456535398
1761475691469063200,2.388063232421875,1.3537567881673573,0.9007583150096237,-0.8988678250879049
1761475691479040500,2.39804052734375,1.4654185892760754,0.906926336120069,-0.8612492383766919
1761475691489017300,2.408017333984375,1.6014210509151219,0.912003639384359,-0.8013179898314178
1761475691498994400,2.417994384765625,1.7444634941935537,0.9320599005937575,-0.7237924132108688
1761475691508971300,2.42797119140625,1.7433961572229861,0.8748052508465946,-0.6060549819828942
1761475691518948400,2.4379482421875,1.598815836852789,0.746121733918786,-0.4089795544175431
1761475691528925200,2.44792529296875,1.4475345575392244,0.7836123834013938,-0.2905132426594384
1761475691538902300,2.45790234375,1.243099195665121,0.8057889977656304,-0.18467795574711635
1761475691548879400,2.46787939453125,0.9464391390800475,0.7349433373004197,-0.03142539006031584
1761475691558856200,2.477856201171875,0.6381476814121008,0.6747343677923083,0.06251716425209305
1761475691568833300,2.487833251953125,0.370287602853775,0.6113698568627238,0.049731592731992715
1761475691578811100,2.49781103515625,0.18056641050875186,0.4919122873112559,0.010251463632332161
1761475691588788200,2.507788330078125,0.09200082282721996,0.3562938565537333,-0.058431155313784254
1761475691598765300,2.517765380859375,0.06931260567903519,0.2011352974154055,-0.09337611150210723
1761475691608742100,2.5277421875,-0.00840951642692089,-0.003777034320682287,0.008289251048117875
1761475691618719200,2.53771923828125,-0.07117372337579726,-0.1781120030939579,-0.001896627401560545
1761475691628696300,2.5476962890625,-0.13699381076395512,-0.35122488272637126,-0.006408935460541397
1761475691638673400,2.55767333984375,-0.14230711474120616,-0.5148169236890972,-0.08004689352540299
1761475691648650200,2.567650146484375,-0.2109855141699314,-0.7352892281286418,-0.10310726845422759
1761475691658627300,2.57762744140625,-0.20887129849493502,-0.9132581694900989,-0.118256395334471
1761475691668604400,2.5876044921875,-0.19644670120775698,-1.0423385767810045,-0.1151654253154993
1761475691678581200,2.597581298828125,-0.13803835138082504,-1.1502942168481647,-0.13643425891874358
1761475691688559400,2.607559326171875,-0.08473813834786414,-1.2562658434912561,-0.14541664333017543
1761475691698536200,2.6175361328125,-0.13678396740555762,-1.388513628771901,-0.17773129668068138
1761475691708513300,2.62751318359375,-0.1662210742920637,-1.4579324713043869,-0.33431320315301416
1761475691718490400,2.637490478515625,-0.19618191279172897,-1.4688440336801112,-0.6030989817215129
1761475691728467200,2.64746728515625,-0.3368260627567768,-1.493085617750138,-0.7406003401488065
1761475691738444300,2.6574443359375,-0.5379220510751008,-1.4067974734812974,-0.8306090393107384
1761475691748421000,2.667421142578125,-0.775762254422903,-1.265842211740464,-0.8189594449840486
1761475691758398200,2.677398193359375,-0.9650912325799464,-1.119747541284561,-0.7261172028966247
1761475691768375000,2.687375,-0.9692992056638002,-1.0087092789016663,-0.5444139703776687
1761475691778352400,2.697352294921875,-0.8165992917239665,-0.9278327844180166,-0.25178318757498636
1761475691788330200,2.707330322265625,-0.6334235754996538,-0.8877668776199221,0.013211254152841865
1761475691798307000,2.71730712890625,-0.527839632999897,-0.8860659189209341,0.19283669401705264
1761475691808284200,2.7272841796875,-0.5258972667604684,-0.9004185616612433,0.23253475388344375
1761475691818261500,2.737261474609375,-0.5394599281668663,-0.9145862032234668,0.17271306665986774
1761475691828238300,2.74723828125,-0.5416150603741408,-0.9560476560331881,0.08634206641316414
1761475691838215400,2.75721533203125,-0.5252665676414966,-1.0228726826801895,0.05903974306564778
1761475691848192300,2.767192138671875,-0.5145137029588223,-1.154356790111959,0.231181476110965
1761475691858169300,2.77716943359375,-0.4260416387796402,-1.3053303186506031,0.3879580649051815
1761475691868146200,2.787146240234375,-0.2827811688363552,-1.5402698321208357,0.4703478134959936
1761475691878123300,2.797123291015625,-0.11686579949259757,-1.502553995580226,0.34063064267151055
1761475691888101400,2.807101318359375,-0.1296703360080719,-1.396375594318658,0.08331391423102467
1761475691898078200,2.817078125,-0.3415741340667009,-1.221064912381023,-0.19319617497920988
1761475691908055300,2.82705517578125,-0.6490852550119162,-0.8060064399085939,-0.4548349313372746
1761475691918032100,2.8370322265625,-1.2039642861068247,-0.578566634543985,-0.37984607012011107
1761475691928009200,2.84700927734375,-1.800879793420434,-0.33027751789614557,-0.3362270739503205
1761475691937986300,2.856986328125,-2.1800170576840636,0.11412336891666054,-0.36771808115933086
1761475691947963100,2.866963134765625,-2.266998591044545,0.5253174210458994,-0.2976988250482827
1761475691957940200,2.876940185546875,-2.065299960657954,0.9077817839056253,-0.2151602425713092
1761475691967917300,2.886917236328125,-1.7391034284651279,1.1414857642315328,0.08968640840500593
1761475691977894400,2.896894287109375,-1.3318857326209543,1.1028858383327722,0.45738647898361084
1761475691987871200,2.906871337890625,-0.903673764064908,0.9692731944397092,0.6469574492029845
1761475691997849300,2.916849365234375,-0.3364589830100536,0.993324516634643,0.4747290973201394
1761475692007826400,2.926826416015625,0.2185492274224758,0.9866532221771777,0.3296296119140461
1761475692017803300,2.93680322265625,0.764023885834217,0.873547359739989,0.3793187583103776
1761475692027780400,2.9467802734375,1.1245733540058136,0.8176648751288652,0.5641975521255285
1761475692037757200,2.956757080078125,1.392042387419939,0.7903732558384537,0.6761240685850382
1761475692047734300,2.966734375,1.530938816934824,0.6691727881424129,0.8659559547629206
1761475692057711400,2.97671142578125,1.7305898671418427,0.6787104318164289,0.8980765285797416
1761475692067688200,2.986688232421875,1.8561925153195857,0.6670834146477281,0.881568753632158
1761475692077665300,2.996665283203125,1.9147914192825555,0.6506546962857246,0.9162855544872581
1761475692087642000,3.00664208984375,1.9738585252791643,1.0212617403522133,0.7102960950389504
1761475692097620200,3.0166201171875,1.8806927503257989,1.4218372217029331,0.44087848484031855
1761475692107597300,3.026597412109375,1.6372767926722764,1.6715803365513682,0.2818730410154909
1761475692117574100,3.03657421875,1.307031861871481,1.6981667301818728,0.21093250534106045
1761475692127550700,3.04655078125,0.9152186559081077,1.5924503934741019,0.20638912629038095
1761475692137527800,3.05652783203125,0.6168611477553844,1.6030962906509636,0.14231800146140158
1761475692147504600,3.066504638671875,0.5088561155885458,1.6006601495452224,0.09886608722051606
1761475692157481700,3.076481689453125,0.5024813198596239,1.5287098888389765,0.23220395102649927
1761475692167458600,3.08645849609375,0.7027952178895474,1.392596221910417,0.5395349661644547
1761475692177435600,3.096435546875,0.9956289941847324,1.2879369930401443,0.7856511957526207
1761475692187412700,3.106412841796875,1.26329910312891,1.1304000143326818,0.9927690747089684
1761475692197390600,3.116390625,1.3444161283701657,0.8720371013075113,1.0961596718829125
1761475692207367700,3.12636767578125,1.2324117974340916,0.6278786547236144,0.9905177155856042
1761475692217344500,3.136344482421875,0.9821037421792745,0.48674876706823705,0.6900570246085524
1761475692227321600,3.146321533203125,0.6342378144919872,0.34970103415995835,0.3815878357535228
1761475692237298700,3.156298583984375,0.370013462087512,0.1843349692620337,0.12730305888745932
1761475692247275500,3.166275634765625,0.17076397841870783,-0.031646453499048946,-0.0025953137228265405
1761475692257252600,3.176252685546875,0.07094108366370201,-0.2409371464498341,-0.07537179612014443
1761475692267229400,3.1862294921875,0.05382160655856132,-0.43231779643967744,-0.09485093329502269
1761475692277206800,3.196206787109375,0.1346598148584366,-0.6032829965189099,-0.1035167808368802
1761475692287183600,3.20618359375,0.34591654718518255,-0.767733554007113,-0.15508604189138858
1761475692297161500,3.216161376953125,0.4184247340351343,-0.9727749189503491,-0.13052592992410064
1761475692307138600,3.226138671875,0.42985096793472766,-1.1626534938141704,-0.09033541036564856
1761475692317115600,3.23611572265625,0.3527273962438106,-1.336143536195904,-0.008918488862365483
1761475692327092700,3.2460927734375,0.149276953753829,-1.3747516454011202,0.0781215880186297
1761475692337069800,3.25606982421875,-0.0805786805808544,-1.4355805003732443,0.0987351360509172
1761475692347046700,3.266046630859375,-0.2813578580349684,-1.3444208045452832,0.06639575011795386
1761475692357023700,3.276023681640625,-0.4522404943972826,-1.198333586743474,-0.002121029008273035
1761475692367000600,3.28600048828125,-0.5605448017716408,-1.0807454643256962,-0.05228827777775004
1761475692376977700,3.295977783203125,-0.627522242501378,-0.9976239673942326,0.003867105490621179
1761475692386954500,3.30595458984375,-0.684824676913023,-0.8776122710913419,0.0415886685191188
1761475692396932600,3.3159326171875,-0.6662590926527977,-0.7946579474203288,0.05158921699714847
1761475692406909700,3.32590966796875,-0.7299754857599735,-0.7421177589744329,0.1660043262688443
1761475692416886500,3.335886474609375,-0.855858704444766,-0.6164527130849659,0.2660788942299783
1761475692426863600,3.345863525390625,-0.9351502678245306,-0.45377603340148925,0.24488049551444127
1761475692436840400,3.35584033203125,-1.0387433287680148,-0.34625191661939025,0.18683025667648762
1761475692446817500,3.365817626953125,-1.1512094319969415,-0.23939473931342362,0.07140424419604241
1761475692456794600,3.375794677734375,-1.2580232085525989,-0.15054258977547286,-0.0895120016861707
1761475692466771700,3.385771728515625,-1.4051461991429328,-0.07802709640190005,-0.26660047041866924
1761475692476748800,3.395748779296875,-1.5346470238029957,-0.15567600714117288,-0.25183204995170233
1761475692486725600,3.4057255859375,-1.5745628546059132,-0.4847963178262114,0.054188540174812075
1761475692496702700,3.41570263671875,-1.4491945997059343,-0.8870838637918234,0.3421836442671716
1761475692506680800,3.425680908203125,-1.1152473072558642,-0.9487968081220984,0.35870676291435954
1761475692516657700,3.43565771484375,-0.8054284938901662,-0.915718860515207,0.1813180325936526
1761475692526634800,3.445634765625,-0.6798854669451713,-0.8783185196645558,-0.035165421405434605
1761475692536611600,3.455611572265625,-0.693903470903635,-0.8030540198437869,-0.3723750766523182
1761475692546588700,3.465588623046875,-0.7074100182086229,-0.45484906946048137,-0.9134273885771632
1761475692556565500,3.4755654296875,-0.9735305596232414,0.12504311459884046,-1.3498328927218912
1761475692566542600,3.48554248046875,-1.4118097486853598,0.5650793764613569,-1.4064189955577253
1761475692576519700,3.495519775390625,-1.761746052905917,0.898045110528171,-1.2679895990327
1761475692586496500,3.50549658203125,-1.7897446514219044,1.291632340426743,-1.0139877307612448
1761475692596474600,3.515474609375,-1.580282985818386,1.723231905594468,-0.7015628996156156
1761475692606451700,3.52545166015625,-1.2701122902750968,2.054126094084233,-0.4183213832585141
1761475692616428500,3.535428466796875,-0.9649304890602827,2.0207732750587164,-0.006813319576927461
1761475692626405600,3.545405517578125,-0.6908160262823104,1.6796750879406928,0.46325098710283635
1761475692636382500,3.555382568359375,-0.3371440426647663,1.480903304786235,0.47971097738593815
1761475692646359800,3.56535986328125,0.18964052832424638,1.4148371336825192,0.12749291890375317
1761475692656336600,3.575336669921875,0.5669184284567833,1.2264042275823652,-0.11661182473152876
1761475692666313700,3.585313720703125,0.7321200965732335,1.0120676494188605,-0.0768318952679634
1761475692676290800,3.595290771484375,0.9008066841959953,0.8955743365004658,-0.2194220282016322
1761475692686267600,3.605267578125,1.1286124002635478,0.8731227045871317,-0.4923572545997798
1761475692696244700,3.61524462890625,1.3562094420164823,0.801202985149622,-0.7911220283791423
1761475692706222600,3.62522265625,1.4583523041516542,0.6648604779012501,-0.9618677404887974
1761475692716199700,3.63519970703125,1.5867238325208424,0.6405104650206863,-1.2396306427717207
1761475692726176800,3.6451767578125,1.7103677478462456,0.5947320257946849,-1.3861910310432315
1761475692736153600,3.655153564453125,1.7984844227164982,0.5610597655564546,-1.4457295539438724
1761475692746130700,3.665130615234375,1.8127262985587118,0.5226185373507439,-1.3248596333764493
1761475692756107500,3.675107421875,1.7592688491374253,0.45621451259478923,-1.028321303474903
1761475692766084600,3.685084716796875,1.7266642181307077,0.47418242322281,-0.74061261510849
1761475692776061400,3.6950615234375,1.6540847196102142,0.43978199484050273,-0.49984958311654626
1761475692786038500,3.70503857421875,1.483341783979535,0.4323267103984952,-0.3327269568748772
1761475692796015600,3.715015625,1.2647861268162726,0.44684564961642026,-0.25830939273964615
1761475692805993500,3.724993408203125,1.1041858150154351,0.45275954983532424,-0.30592239044904707
1761475692815970600,3.734970458984375,0.9719020816385745,0.43287601484432814,-0.32047176133785393
1761475692825947600,3.74494775390625,0.8553560156196355,0.3575087853014469,-0.2526987497836351
1761475692835924700,3.7549248046875,0.7425070505529642,0.25893603673800825,-0.16490907837804406
1761475692845901800,3.76490185546875,0.5909487078636885,0.11890782671421765,0.009359072236716746
1761475692855878700,3.774878662109375,0.3864420343190431,-0.060113984701037404,0.12879329744521528
1761475692865855700,3.784855712890625,0.2522387310564518,-0.23880130346491932,0.1562763841871172
1761475692875832600,3.79483251953125,0.17843933535218237,-0.36745793238580227,0.07555566478706896
1761475692885809700,3.8048095703125,0.1617553270548582,-0.5110488033272326,0.026384149056673047
1761475692895786500,3.814786376953125,0.24140520235300061,-0.6423955481149256,-0.08093596958592533
1761475692905764600,3.8247646484375,0.3190355545222759,-0.6946478595301508,-0.21968780299834906
1761475692915741700,3.83474169921875,0.28528701417744157,-0.875924171873927,-0.2255593253802508
1761475692925718500,3.844718505859375,0.21551088263988494,-0.841951467384398,-0.3052577159952372
1761475692935695600,3.854695556640625,0.14091712168753145,-0.7178652151189744,-0.4321211048237979
1761475692945672700,3.864672607421875,0.06402560518682003,-0.650799365453422,-0.4672147396346554
1761475692955649500,3.8746494140625,0.045649406018853186,-0.5976680792465806,-0.4704634392322972
1761475692965626600,3.884626708984375,0.09738660751879215,-0.6221883341275155,-0.44935222560986876
1761475692975603500,3.894603515625,0.05171323610246181,-0.6824637930005788,-0.39854192969650026
1761475692985580800,3.904580810546875,-0.12568565028607845,-0.7057673655681311,-0.3367729077974334
1761475692995557600,3.9145576171875,-0.39037119046151636,-0.6512412640020251,-0.2790996307794005
1761475693005535500,3.924535400390625,-0.6296288593918085,-0.6089657183304429,-0.1768684327736497
1761475693015512800,3.934512939453125,-0.8105529972970485,-0.6126281863607466,0.04789367781430483
1761475693025489700,3.94448974609375,-0.9012620267480611,-0.6778111448891461,0.25725728987082835
1761475693035466800,3.954466796875,-0.8820885397225617,-0.8330850009702145,0.37538872538506984
1761475693045443600,3.964443603515625,-0.8569570210754871,-1.0490000804968178,0.3945449324822053
1761475693055420700,3.974420654296875,-0.978393197223544,-1.1884605736352503,0.2826655796326697
1761475693065397800,3.984397705078125,-1.149158929207921,-1.2395602078840136,0.2077295445812866
1761475693075374600,3.99437451171875,-1.3192290801435709,-1.256937751403451,0.06307005802765488
1761475693085351700,4.0043515625,-1.5889198812603949,-1.3535954601258038,0.01881378686763346
1761475693095328500,4.01432861328125,-1.7709055109173057,-1.4292296700417995,-0.0474573687562719
1761475693105306600,4.024306640625,-1.9053642502456902,-1.6565451183743773,0.0576437951952219
1761475693115283700,4.03428369140625,-1.8293086000472305,-1.7915423484936355,0.07836480392366647
1761475693125261000,4.044260986328125,-1.6039777496606111,-1.9233095106504856,0.18805972540620713
1761475693135238100,4.054238037109375,-1.2663777799218892,-1.8945177159301936,0.10414992764126509
1761475693145215000,4.064215087890625,-1.1176187125623225,-1.7175747566156088,-0.06743437245069071
1761475693155192000,4.074192138671875,-1.1582517517238855,-1.4486230834282934,-0.18454875814318655
1761475693165169200,4.084169189453125,-1.4226765951365232,-1.1275649370372294,-0.31839601450972255
1761475693175146000,4.09414599609375,-1.9406173499345778,-0.8336809210367501,-0.2811996352659538
1761475693185123300,4.104123291015625,-2.351009584161639,-0.4436804635837674,-0.26706437986968085
1761475693195100200,4.11410009765625,-2.4284067120969293,0.05143441916108131,-0.19569296023100613
1761475693205078000,4.124078125,-2.346750173151493,0.4594080479390919,0.0947236719198525
1761475693215055000,4.13405517578125,-2.2242384767264127,0.7396857095219195,0.3692769279738888
1761475693225032200,4.1440322265625,-2.110737185230851,0.8871728572495281,0.5150134326418861
1761475693235009300,4.15400927734375,-2.027796451693773,0.9924661462396382,0.5292427047308534
1761475693244986000,4.163986083984375,-1.6099591621577738,1.0815545887514948,0.4863320029608905
1761475693254963200,4.173963134765625,-0.8539145846396684,1.0778022504806517,0.47039738825876265
1761475693264940000,4.18393994140625,-0.13406126444339753,0.9954314257860183,0.5246135105602443
1761475693274917000,4.193917236328125,0.5316524692863226,0.9495587324053049,0.5451888272076845
1761475693284894200,4.203894287109375,1.0739379762679337,0.9156681532412767,0.5719329686831682
1761475693294871000,4.21387109375,1.4930460163921118,0.9477312247171997,0.5734247050782665
1761475693304849200,4.22384912109375,1.7792647584617136,0.9959937358438968,0.6473702677875757
1761475693314826200,4.233826171875,2.0409271514236926,1.0936322722971439,0.539300755549781
1761475693324803000,4.243802978515625,2.255838314604759,1.1344359918504954,0.4293824371075257
1761475693334780200,4.2537802734375,2.2788398354858157,1.091274603255093,0.5007182191772386
1761475693344757000,4.263757080078125,2.3385388096451756,1.1787477195248006,0.4475164250174537
1761475693354734000,4.273734130859375,2.409908347854018,1.4398583238229155,0.2869615963261574
1761475693364711200,4.283711181640625,2.300104157310724,1.8147540049940347,0.13853669282440095
1761475693374688300,4.293688232421875,2.1410651034772394,2.081661897394061,0.17490246646292507
1761475693384665300,4.303665283203125,1.9076216737836598,2.1124872437685727,0.37989717925284056
1761475693394642200,4.31364208984375,1.7126012059867382,1.9631778490498661,0.5718264395687729
1761475693404620300,4.323620361328125,1.5835890416264533,1.93925190680027,0.529891341365315
1761475693414597000,4.33359716796875,1.6297744542181491,1.9520804087132215,0.3884418298341334
1761475693424574200,4.34357421875,1.6240981621474027,1.8032859777793286,0.3554864126283675
1761475693434551300,4.35355126953125,1.5121610512286423,1.5297110287055373,0.5354123332764953
1761475693444528000,4.363528076171875,1.3748188654184341,1.2779215027213096,0.7510781872823834
1761475693454505200,4.373505126953125,1.3125795591264962,1.1878738597884773,0.9033183747559785
1761475693464482000,4.38348193359375,1.2810253139555454,1.1011670517161487,0.9540937454864382
1761475693474459100,4.393459228515625,1.1236655915111302,0.8454775956839322,0.9964924791462719
1761475693484437200,4.403437255859375,0.9239894068628549,0.5865984036996961,0.885526259086281
1761475693494414000,4.4134140625,0.716102443230152,0.34381285290420055,0.5806864031769335
1761475693504391200,4.42339111328125,0.49023967792391776,0.12654840459525585,0.28963892577663064
1761475693514368000,4.433367919921875,0.3366512907117605,-0.06025295478031039,0.10254676676094532
1761475693524345000,4.443344970703125,0.25970073750019074,-0.23907500583976507,0.049170675480179483
1761475693534322000,4.453322021484375,0.20437223351001738,-0.4312156804166734,0.09710453917440026
1761475693544299000,4.463299072265625,0.10172083733081817,-0.6164835466146469,0.1296893329694867
1761475693554276400,4.4732763671875,-0.0045674540460109705,-0.7365367439717054,0.17358652502615005
1761475693564253200,4.483253173828125,-0.09958674791157245,-0.84299673865363,0.18959281672500072
1761475693574230300,4.493230224609375,-0.18591303223371505,-0.9142235073909163,0.16134075490459798
1761475693584208100,4.5032080078125,-0.263887083274126,-1.020347401986271,0.13252782606473193
1761475693594185200,4.513185302734375,-0.3574333819776773,-1.1136026087887585,0.046964160145539786
1761475693604162300,4.523162353515625,-0.45648470783829687,-1.2112655490309,0.014914350009988992
1761475693614139100,4.53313916015625,-0.5998860475569963,-1.3005859006024896,-0.05619748711073771
1761475693624116200,4.5431162109375,-0.787987529745698,-1.32410779209584,-0.20356183044258505
1761475693634093000,4.553093017578125,-0.9694447516143322,-1.2549306493647396,-0.2657584301039576
1761475693644070100,4.563070068359375,-1.2012567807137966,-1.1329155042849481,-0.21291805313508957
1761475693654047200,4.573047119140625,-1.3002999232679604,-0.9701165133960544,-0.14317575080189854
1761475693664024000,4.583024169921875,-1.3094278170973062,-0.8828525098323822,0.08287411630796268
1761475693674001200,4.593001220703125,-1.2437491840064525,-0.743505121679604,0.1803789251126349
1761475693683979000,4.60297900390625,-1.2946265538066626,-0.6770588652171194,0.27432377641340716
1761475693693956000,4.6129560546875,-1.386964061242342,-0.5667309430606663,0.20724990783818065
1761475693703933200,4.62293310546875,-1.4070675225943325,-0.4235601972274482,0.03446660722000524
1761475693713910000,4.632909912109375,-1.355708506757021,-0.31585020248442885,-0.17099448097264394
1761475693723887000,4.64288720703125,-1.2987643842637537,-0.3235965788275003,-0.3058404295203276
1761475693733864200,4.6528642578125,-1.2405594480544329,-0.3557226325370371,-0.33904888990540055
1761475693743841300,4.66284130859375,-1.1664759747117757,-0.45124870688095686,-0.2605807352051139
1761475693753818000,4.672818115234375,-1.0270020375698805,-0.6518731321647763,-0.019591529774479567
1761475693763795200,4.682795166015625,-0.8341542376369238,-0.8756979619026184,0.23336398951550943
1761475693773772300,4.692772216796875,-0.565333789613843,-0.9672744218379259,0.28206408834187313
1761475693783750100,4.702750244140625,-0.31372341958880423,-0.9068271135292947,0.1814456044960767
1761475693793727200,4.712727294921875,-0.2523655723065138,-0.8836420527748763,-0.00015874792539980262
1761475693803704000,4.7227041015625,-0.30425124236643314,-0.7556745751619338,-0.2880842984794639
1761475693813681200,4.73268115234375,-0.40685120061933994,-0.5139782809078693,-0.6252117005366832
1761475693823658200,4.742658203125,-0.6325333486616611,-0.15880407603383062,-0.9005318127773702
1761475693833635000,4.752635009765625,-0.9282903189271688,0.1257508244767785,-1.0095812394306063
1761475693843612200,4.762612060546875,-1.2426099508434534,0.4116901650831103,-1.0112179007217288
1761475693853589000,4.772589111328125,-1.2567594722270965,0.773477650617063,-0.9165634946458041
1761475693863566000,4.782566162109375,-1.0629910503178834,1.1215494761399925,-0.6566417348060757
1761475693873543000,4.79254296875,-0.8244587730526923,1.4978987171202898,-0.487216640308313
1761475693883521000,4.80252099609375,-0.5820540382683277,1.6029150888651609,-0.3063782809903845
1761475693893498000,4.812498046875,-0.3685667704105377,1.4750953491598366,-0.06411236102166586
1761475693903475000,4.822474853515625,-0.15921616396605967,1.250217795498669,0.132574295554962
1761475693913452000,4.8324521484375,0.19509119494557378,1.1727665992885827,0.14113367791450582
1761475693923429400,4.842429443359375,0.6247089386463165,1.0606647993274032,0.11953803264284506
1761475693933406200,4.85240625,0.8925859683394431,0.900179638338834,0.1306165490833111
1761475693943383300,4.86238330078125,1.1237293043971062,0.8151743734873831,0.06088204646408558
1761475693953360100,4.872360107421875,1.188189793869853,0.6742918847218156,-0.1265727535852231
1761475693963337200,4.882337158203125,1.1104057124435902,0.462781616025418,-0.27013310152422637
1761475693973314000,4.89231396484375,1.0886609136253595,0.4032786028295755,-0.4448077871132642
1761475693983292200,4.902292236328125,1.1350789659291505,0.4433806038543582,-0.6925880774561315
1761475693993269200,4.912269287109375,1.2404425436764954,0.5410615181446076,-0.9820677210178226
1761475694003246000,4.92224609375,1.32290455378592,0.6082151922240853,-1.1699195392943917
1761475694013223200,4.93222314453125,1.4318682018518447,0.5504039315074681,-1.2015981414973735
1761475694023200000,4.942199951171875,1.4298007479280233,0.3894742416217923,-1.089056561879441
1761475694033177000,4.952177001953125,1.4711281990945337,0.26039953341931105,-0.9021890053998678
1761475694043154200,4.962154296875,1.622004989260435,0.2508238958224654,-0.7242083005353808
1761475694053131000,4.972131103515625,1.7217255926847457,0.2652870131999254,-0.4709248096663505
1761475694063108000,4.982108154296875,1.6460305924922227,0.2134726548105478,-0.0940422107280232
1761475694073086000,4.9920859375,1.4443424834996461,0.20477058517783878,0.19297259535640476
1761475694083063000,5.00206298828125,1.2097335171580315,0.39175329246968027,0.2740511700171046
1761475694093040000,5.0120400390625,0.9845996506482362,0.5513008803471923,0.23151129258722067
1761475694103017200,5.022017333984375,0.7407558229714631,0.5573009975448251,0.3670255688505247
1761475694112994300,5.031994384765625,0.38832068767249583,0.45016851042881606,0.5276303741633892
1761475694122971400,5.041971435546875,0.23282091388106343,0.328297011603415,0.5730793987719341
1761475694132948200,5.0519482421875,0.16022271066009997,0.1633187769792974,0.6497418922897428
1761475694142925300,5.06192529296875,0.19675766685307025,0.050420858204364774,0.5312941208353266
1761475694152902400,5.07190234375,0.28979776960015297,-0.06493059120252728,0.40802926795538513
1761475694162879200,5.081879150390625,0.34759821666181084,-0.27951588343009354,0.33215164120495316
1761475694172857300,5.091857421875,0.33005729927420613,-0.56554903979972,0.2564164185998961
1761475694182834200,5.101834228515625,0.3008259440928697,-0.7569818583682179,0.12005652182530611
1761475694192811300,5.111811279296875,0.27818682678341866,-0.9133021547622978,-0.07568320015687495
1761475694202788400,5.121788330078125,0.27057401369214057,-1.0333949534773825,-0.20422876991871744
1761475694212765200,5.13176513671875,0.3080266692519188,-1.1033498025827109,-0.3130247332675382
1761475694222742300,5.1417421875,0.31969898686707016,-1.1926390283636747,-0.36075580439865584
1761475694232719000,5.151718994140625,0.3392003906726837,-1.2707650550954044,-0.3763062055561691
1761475694242696200,5.1616962890625,0.3372457494735718,-1.252461775033176,-0.3828804328473285
1761475694252673000,5.171673095703125,0.32796938708424567,-1.1667379866488277,-0.25492234411723913
1761475694262650400,5.181650390625,0.21308394775390624,-1.0929412212930618,0.039891500079259276
1761475694272628200,5.191628173828125,-0.011633154648542404,-0.9863974938504397,0.3665340590065345
1761475694282605000,5.20160498046875,-0.21079028385877607,-0.8927486115552484,0.5778671079725026
1761475694292582400,5.21158251953125,-0.3658820613712072,-0.8538060096986592,0.729754901811853
1761475694302559500,5.2215595703125,-0.4914642512828111,-0.8438302668683231,0.8113380101948976
1761475694312536300,5.231536376953125,-0.6618816082209348,-0.8831514927789569,0.8151729121826589
1761475694322513400,5.241513427734375,-0.8776262996166944,-0.9468382214002311,0.6967624405313283
1761475694332490200,5.251490234375,-1.0996978559464217,-0.9474728660419582,0.5532971321983262
1761475694342467300,5.26146728515625,-1.335987907242775,-1.0171841156497596,0.4577155648075044
1761475694352444200,5.271444091796875,-1.6034890893608331,-1.3147842295639216,0.6448205102395266
1761475694362421200,5.281421142578125,-1.5996908661216496,-1.5549324175931512,0.7804580110237002
1761475694372399400,5.2913994140625,-1.3777940818369387,-1.525315716356039,0.5285905974976718
1761475694382376200,5.301376220703125,-1.4010814339220523,-1.3779611089669168,-0.03368833459019661
1761475694392353300,5.311353271484375,-1.7433809596538543,-1.0758610532850026,-0.6316554698485881
1761475694402330000,5.321330078125,-2.2584505429297685,-0.871569483795762,-0.9102608873702586
1761475694412307200,5.33130712890625,-2.6363579731374975,-0.6506178714066744,-0.9090323684886097
1761475694422284300,5.3412841796875,-2.7931208987325427,-0.29324878683686256,-0.8587275378793477
1761475694432261000,5.35126123046875,-2.604264214262366,0.13462430515363813,-0.7335840316459536
1761475694442238200,5.36123828125,-2.217928562927246,0.42105581319108604,-0.48431101852729913
1761475694452215300,5.37121533203125,-1.7608365368455647,0.4753029516853392,0.0073251552563160655
1761475694462193200,5.381193115234375,-1.212899287712574,0.37419717751294373,0.46852067113406953
1761475694472170200,5.391170166015625,-0.7536001069754361,0.2764524042062461,0.7222976446084678
1761475694482147300,5.401147216796875,-0.4343640614449978,0.3014534283414483,0.7245961308091878
1761475694492124400,5.41112451171875,-0.2602770760834217,0.3615424247317016,0.648298488548398
1761475694502101200,5.421101318359375,-0.1276870532363653,0.37713264644294975,0.6602101678773761
1761475694512078300,5.431078369140625,0.0021381810724735257,0.4032498151265084,0.7188891513392329
1761475694522055200,5.44105517578125,0.3237175748586654,0.5208136798858642,0.6920631767991929
1761475694532032300,5.4510322265625,0.6581891834437846,0.5711334158033132,0.7677825077153742
1761475694542009300,5.46100927734375,1.0389479114294051,0.723579354982078,0.7331156834818422
1761475694551986200,5.470986083984375,1.320329150339961,0.8137661141246557,0.7142177985273301
1761475694561964300,5.48096435546875,1.4736241075634955,0.9108587071329355,0.7492365780036896
1761475694571941400,5.49094140625,1.5337275708705187,0.9780997672349214,0.8311367895118892
1761475694581918200,5.500918212890625,1.511965820917487,1.0963918001383541,0.8828306633267551
1761475694591895300,5.510895263671875,1.4411509939819573,1.357953363074362,0.8622374456964432
1761475694601872100,5.5208720703125,1.4420219315975904,1.590894688464701,0.8935973373390733
1761475694611849200,5.53084912109375,1.440590437489748,1.7195029481992123,0.9227040432274342
1761475694621826000,5.540825927734375,1.507797595322132,1.8465104947388171,0.940282808407396
1761475694631803400,5.550803466796875,1.5822569162398576,1.920767571082711,0.9503550704147666
1761475694641780500,5.560780517578125,1.551653103661537,1.8578566491395234,0.9754491796609014
1761475694651758000,5.570758056640625,1.5215449656456708,1.874369977045059,1.0018736607279628
1761475694661735400,5.5807353515625,1.4535475342184305,1.7302981907188892,1.0645838724672794
1761475694671712300,5.590712158203125,1.3402917419165372,1.658419241683185,1.1656159238163382
1761475694681689300,5.600689453125,1.1661287687093018,1.523939459566772,1.1567503341849892
1761475694691666400,5.61066650390625,0.9130255297780037,1.3487052038662135,1.1052083629962057
1761475694701643300,5.620643310546875,0.702913291311264,1.1292707180418073,0.9840595524221658
1761475694711620400,5.630620361328125,0.5705792890518904,0.9766239955939352,0.8320712208177894
1761475694721597200,5.64059716796875,0.5372936900436878,0.7307166595160961,0.6709834908261895
1761475694731574300,5.65057421875,0.5052209739565849,0.44986002900153393,0.5992851225217803
1761475694741551000,5.660551025390625,0.48492871203422544,0.21456951013654468,0.5198391357652843
1761475694751529200,5.670529296875,0.3969435545891523,0.030189678819477556,0.4750932909900322
1761475694761506300,5.68050634765625,0.2836480147987604,-0.15900252121537922,0.4545849386315792
1761475694771483100,5.690483154296875,0.23119126685261726,-0.26207272732853887,0.3925737420070916
1761475694781460200,5.700460205078125,0.14458908819854258,-0.4747020631827414,0.3442580393884331
1761475694791437000,5.71043701171875,0.06144611008763313,-0.5653333512224257,0.2716219883751124
1761475694801414100,5.7204140625,0.01681961737573147,-0.6834001970678567,0.11121588397212326
1761475694811391200,5.73039111328125,-0.04608838195800781,-0.8241317330554128,0.018833076089993118
1761475694821368300,5.740368408203125,-0.14454700262248515,-0.8564572548598051,-0.159206921213679
1761475694831345400,5.750345458984375,-0.1885246760368347,-0.839086725603044,-0.26076493266560136
1761475694841322200,5.760322265625,-0.2099830591291189,-0.836333919763565,-0.32710129901282486
1761475694851300400,5.77030029296875,-0.3087403704792261,-0.8737082493901253,-0.27621110626365986
1761475694861277400,5.78027734375,-0.44452363640964027,-0.8919937015347182,-0.1969032493362203
1761475694871254300,5.790254150390625,-0.5866425351023674,-0.8732214887864888,-0.08456718396143988
1761475694881231400,5.8002314453125,-0.631660657480359,-0.8459146719269454,0.02258159670224413
1761475694891208200,5.810208251953125,-0.6850374428808689,-0.8249711064890026,0.016541549353022128
1761475694901185300,5.820185302734375,-0.7091279280424118,-0.8298020337767898,-0.011492157008964568
1761475694911162400,5.830162353515625,-0.7039777056723833,-0.8559906602613627,-0.035076318349875506
1761475694921139200,5.84013916015625,-0.721539081326127,-0.8576184075936675,-0.08638532103300094
1761475694931116300,5.8501162109375,-0.7686199814528226,-0.8685581731505692,-0.1231442221749574
1761475694941094100,5.86009423828125,-0.8754986399382352,-0.8782254345536231,-0.12671183326235042
1761475694951071200,5.8700712890625,-0.988702994313836,-0.8910979217387736,-0.18821761938165874
1761475694961048300,5.88004833984375,-1.0826607964277266,-0.8341213582806288,-0.26481139504481105
1761475694971025200,5.890025146484375,-1.186264963287115,-0.7078617074988782,-0.3325076881010085
1761475694981002200,5.900002197265625,-1.2872937267005442,-0.5581657976806164,-0.3636191944731399
1761475694990979000,5.90997900390625,-1.4063140738785267,-0.48607232911139725,-0.3617621318969875
1761475695000956400,5.919956298828125,-1.5725006613790988,-0.5379033463746309,-0.2458701458726078
1761475695010933200,5.929933349609375,-1.707303099578619,-0.7812346944846212,0.060878639797447245
1761475695020910300,5.939910400390625,-1.6776514731585979,-1.054321421650052,0.44025881857201454
1761475695030887400,5.949887451171875,-1.411412273800373,-1.137564060743153,0.5107445596836507
1761475695040865300,5.959865234375,-1.0716291148036718,-1.0669947330012917,0.29128455582549795
1761475695050842400,5.96984228515625,-0.8639297826975584,-1.0511186800859869,0.08889765091380104
1761475695060819200,5.979819091796875,-0.8019289613366126,-1.0472317556500434,-0.11724611318022943
1761475695070796300,5.98979638671875,-0.6805073982357979,-0.7660320107862353,-0.4930924735391512
1761475695080773400,5.9997734375,-0.6732581577599048,-0.23452260323241353,-0.8907415095165372
1761475695090750200,6.009750244140625,-0.742249860921502,0.17685075098648667,-0.9060326021507382
1761475695100727300,6.019727294921875,-0.8943126460015773,0.5361484655313193,-0.6847368524990975
1761475695110704000,6.0297041015625,-0.9796323836296796,0.9402611810974776,-0.48437191840168087
1761475695120681500,6.039681396484375,-0.9226005828529595,1.2910169850073754,-0.0904803900605999
1761475695130659600,6.04965966796875,-0.6468073732078075,1.7881309326149522,0.07521211204640567
1761475695140636700,6.05963671875,-0.3115589350312948,2.0803822328470645,0.2970594494325109
1761475695150613500,6.069613525390625,0.01926116530895233,1.9116979833118617,0.6490293601062148
1761475695160590600,6.079590576171875,0.4243681526094675,1.6632998533315955,0.8332353692263365
1761475695170567400,6.0895673828125,0.9016869741618633,1.5914438467800616,0.7570465211022644
1761475695180544500,6.09954443359375,1.1565975547760725,1.4373637305282057,0.7769396276392042
1761475695190521600,6.109521484375,1.2679998281657694,1.3008883906804025,0.7145847321435809
1761475695200498700,6.119498779296875,1.4048936856865881,1.290064068196714,0.596721738307178
1761475695210475800,6.129475830078125,1.5081126526206732,1.286799367312342,0.42684404120370745
1761475695220452600,6.13945263671875,1.5755916131317615,1.2139226394109428,0.17860588755812495
1761475695230430700,6.1494306640625,1.6004606814503668,1.1410646162100135,-0.09536445404142141
1761475695240407800,6.15940771484375,1.5991782404243946,1.1282910593546926,-0.3855424916634336
1761475695250384600,6.169384521484375,1.6069477053821086,1.0818459729135035,-0.5315677866775542
1761475695260361700,6.17936181640625,1.6321832689255475,0.923291779987514,-0.5813294868534431
1761475695270338600,6.189338623046875,1.6391805804669857,0.7689774165883659,-0.5987929916232824
1761475695280315600,6.199315673828125,1.6207114423185587,0.5999585282713175,-0.6157524558611214
1761475695290292500,6.20929248046875,1.4687433497846125,0.47123804033398625,-0.6042055547239259
1761475695300269600,6.21926953125,1.3457926774203777,0.4048366459265351,-0.5179887221256271
1761475695310246700,6.22924658203125,1.1071990253567694,0.37417277372404933,-0.29980158774750304
1761475695320223500,6.239223388671875,0.8114332872629165,0.41805633911415935,-0.03496157852956094
1761475695330201600,6.24920166015625,0.49335576411783694,0.5032534732758999,0.16766860621925442
1761475695340178400,6.259178466796875,0.1863683747857809,0.6021140988700091,0.21508628228595478
1761475695350155500,6.269155517578125,0.0008083937734365463,0.5735400385536253,0.33928496368359773
1761475695360132600,6.279132568359375,-0.017145196068286895,0.5271592495203018,0.4247638373961672
1761475695370109400,6.289109375,-0.011207038190960883,0.40341099703758954,0.49326739171463996
1761475695380086800,6.299086669921875,0.08108955271244049,0.1601911464780569,0.49247839676141736
1761475695390063600,6.309063720703125,0.09483750755786895,-0.10761150280460714,0.4197944880183786
1761475695400040700,6.319040771484375,0.12000409751832485,-0.34791692722216244,0.2578859431631863
1761475695410017500,6.329017578125,0.19375439338386058,-0.5626878051497042,0.10697283957488835
1761475695419995600,6.33899560546875,0.19433131648898125,-0.849910171303898,0.02204407402575016
1761475695429972700,6.34897265625,0.15132628749907015,-0.9945850380897522,-0.11423124973792582
1761475695439949600,6.358949462890625,0.022011925321817397,-1.191565115521848,-0.17935495235975832
1761475695449926700,6.3689267578125,-0.07374503516852855,-1.2919118880204856,-0.21317034739572555
1761475695459903700,6.37890380859375,-0.13028349947035311,-1.2701534990683196,-0.31032252510413527
1761475695469880600,6.388880615234375,-0.160077164709568,-1.279756024672091,-0.39998577182926237
1761475695479857700,6.398857666015625,-0.17835457967817783,-1.3583261419095098,-0.3745610423892736
1761475695489834500,6.40883447265625,-0.15605916123986244,-1.438228238403052,-0.38929428194500504
1761475695499811600,6.4188115234375,-0.1566577116549015,-1.4696953898124396,-0.42641412535384293
1761475695509788400,6.428788330078125,-0.2066115368694067,-1.4358629705764352,-0.39009902245663103
1761475695519766500,6.4387666015625,-0.27138474555313585,-1.3863282475568353,-0.23931685177162287
1761475695529743600,6.44874365234375,-0.3194622555017471,-1.2719305917434394,0.026187402641866354
1761475695539720400,6.458720458984375,-0.3384732454419136,-1.1317001371458173,0.32204262738376854
1761475695549697500,6.468697509765625,-0.3103571580260992,-0.9999207000292837,0.5840265073850751
1761475695559674600,6.478674560546875,-0.35433132430911063,-0.9829724878378212,0.8251960012860595
1761475695569651700,6.488651611328125,-0.4730751926332712,-0.9452351701177656,0.8913200400568544
1761475695579628800,6.49862890625,-0.6433043335229158,-0.847367354953289,0.8069812762901186
1761475695589605600,6.508605712890625,-0.8788830216795206,-0.7417813666269183,0.6435922105535864
1761475695599582700,6.518582763671875,-1.165438448357582,-0.7081852403648197,0.4714806534508243
1761475695609560600,6.528560546875,-1.4229466442495584,-0.6615671354442835,0.28983090468477457
1761475695619537700,6.53853759765625,-1.6199316901177168,-0.6582188479296863,0.26042039354424923
1761475695629514800,6.5485146484375,-1.5978092901587486,-0.8330774021856486,0.48059594352692364
1761475695639491600,6.55849169921875,-1.3316747202187775,-1.0378611391060053,0.8005769622057676
1761475695649468700,6.56846875,-0.9429577267050743,-1.0616180083990097,0.929517961025983
1761475695659445500,6.578445556640625,-0.5773948142856359,-1.0318249276816844,0.9041973495475948
1761475695669422600,6.588422607421875,-0.3415098366588354,-1.087925292827189,0.7948881759796291
1761475695679399400,6.5983994140625,-0.40721126610338687,-1.0000137851402162,0.42737960938513275
1761475695689376500,6.60837646484375,-0.7560036609858274,-0.620659078733623,-0.11097155382223427
1761475695699353600,6.618353515625,-1.3181278409034014,-0.2193336557984352,-0.3377192122042179
1761475695709331500,6.62833154296875,-1.9204910922288894,0.025987843215465545,-0.44939537063185125
1761475695719308500,6.63830859375,-2.2648756075412035,0.36746056273430583,-0.580783945267275
1761475695729285600,6.64828564453125,-2.1799486686229703,0.7487903686061501,-0.7146058479968458
1761475695739262500,6.658262451171875,-1.881990388920903,1.09535544282794,-0.580561461623013
1761475695749239800,6.66823974609375,-1.3441022401154041,1.2779296860277651,-0.11657792246192693
1761475695759216600,6.678216552734375,-0.6493699171721935,1.200196458005905,0.5227158602453768
1761475695769193700,6.68819384765625,0.18212708395421504,0.9346522551745176,1.0042346907708792
1761475695779170600,6.698170654296875,0.9444032493382691,0.86216423432976,1.1129995283290743
1761475695789147600,6.708147705078125,1.535221024298668,0.8822738331615925,1.1576985017552972
1761475695799125800,6.718125732421875,1.9214438629090784,0.8147624316856265,1.2877633900389074
1761475695809102600,6.7281025390625,2.048348825857043,0.6687123310238122,1.4524312435396014
1761475695819079700,6.73807958984375,2.084033887222409,0.5633820710241795,1.4774280298911033
1761475695829056500,6.748056396484375,2.053994722789526,0.6063607965290546,1.1951310643751174
1761475695839033600,6.75803369140625,1.9159230536609886,0.690167791506648,0.9184240278206766
1761475695849010700,6.7680107421875,1.7338041530132293,0.9195061239689588,0.621962562547624
1761475695858987500,6.777987548828125,1.5722890644550322,1.3001561308830976,0.20928137713316827
1761475695868964600,6.787964599609375,1.3518746276825666,1.6448825915008782,-0.1039367232820019
1761475695878941400,6.79794140625,1.0854752693265677,1.7742840474396944,-0.18661993839405475
1761475695888918500,6.80791845703125,0.8987100041776895,1.736262652081251,-0.09677417470887303
1761475695898896600,6.817896728515625,0.7579214773058891,1.7465370855972169,-0.018599011605791745
1761475695908873500,6.82787353515625,0.772407098776102,1.75625739236176,-0.023768304002471267
1761475695918850600,6.8378505859375,0.8699702319055795,1.5658689682796596,0.09713047733325511
1761475695928827600,6.84782763671875,1.043842113211751,1.23711427603662,0.37565431751869616
1761475695938804700,6.8578046875,1.211103051945567,1.0142226354956627,0.4898511169977486
1761475695948781600,6.867781494140625,1.3284908294856548,0.9031718058921396,0.5021589195048436
1761475695958758700,6.877758544921875,1.2449632359713316,0.7829894291974604,0.537023421734944
1761475695968735700,6.88773583984375,0.9507739534139633,0.6546876050636172,0.6449478629462421
1761475695978712600,6.897712646484375,0.655439592474699,0.6688035164386034,0.49722756404988466
1761475695988690700,6.907690673828125,0.30870705273151394,0.6295723068989812,0.3237275482634082
1761475695998667800,6.917667724609375,-0.03361702291965484,0.5117440921150148,0.20708543799147008
1761475696008644600,6.92764453125,-0.30584231095016,0.3992481782697141,0.17335494475997984
1761475696018621700,6.93762158203125,-0.38336101943850515,0.323446064440906,0.05735383580531925
1761475696028598500,6.9475986328125,-0.33129882376790043,0.12173778944313525,0.038965946199558676
1761475696038575600,6.95757568359375,-0.2328314352750778,-0.1292712536878884,0.0809951524272561
1761475696048552400,6.967552490234375,-0.12444763292372225,-0.32744945486336946,0.10522672655992209
1761475696058529500,6.977529541015625,0.01032791726887226,-0.5196436131931841,0.025509302450902757
1761475696068506600,6.987506591796875,0.13088321892917154,-0.6984813002131879,-0.020574220668897032
1761475696078483500,6.9974833984375,0.06229425134956836,-0.9157562699161469,-0.055247474643215534
1761475696088461600,7.007461669921875,-0.16739654781222343,-1.1263419711135327,-0.14768267029970883
1761475696098438400,7.0174384765625,-0.40430034709274765,-1.2344320512153208,-0.2597665510117076
1761475696108415500,7.02741552734375,-0.5576005650132895,-1.307900023008138,-0.34717352497633547
1761475696118392800,7.037392822265625,-0.6423562390178441,-1.3375452196873723,-0.3773382154850289
1761475696128369700,7.04736962890625,-0.662522828733921,-1.250260757857561,-0.42974772675596173
1761475696138346500,7.057346435546875,-0.6512567538321018,-1.1204540821187197,-0.4014725032556802
1761475696148323600,7.067323486328125,-0.6926286286622285,-0.9664360713176429,-0.29530281502353023
1761475696158300400,7.077300537109375,-0.7451718858480453,-0.8455122286058961,-0.17691966977054252
1761475696168277500,7.087277587890625,-0.763063516369462,-0.7161348841950297,-0.064721167969238
1761475696178255600,7.097255615234375,-0.7418067933291196,-0.6123600369438529,-0.03712075672429055
1761475696188232400,7.107232421875,-0.7653186018198728,-0.5626907277591526,-0.008077489727269857
1761475696198209500,7.11720947265625,-0.8083008344560861,-0.5316966006889939,-0.05053863936513662
1761475696208186600,7.1271865234375,-0.8977204086184501,-0.48075960965603587,-0.13642947314577175
1761475696218163500,7.13716357421875,-1.0386994896262884,-0.45012993198409673,-0.14388380773970857
1761475696228140500,7.147140625,-1.0967401751846075,-0.4186583966605365,-0.07353588592987507
1761475696238117400,7.157117431640625,-1.0246218644350766,-0.6103356915093958,0.22349709562081843
1761475696248094500,7.167094482421875,-0.806557205659151,-0.8115773719087243,0.48170996918343006
1761475696258071300,7.1770712890625,-0.4841670800119638,-0.7895806441560387,0.44050789796225726
1761475696268049400,7.18704931640625,-0.15015139850080012,-0.7526371071621775,0.25635789334569126
1761475696278026500,7.197026611328125,-0.03318389219939708,-0.49224502639696,-0.2105044343884103
1761475696288003300,7.20700341796875,-0.04595043479204178,-0.4631590710356831,-0.5731809959828853
1761475696297980700,7.216980712890625,-0.11064882467389106,-0.35341947016119957,-0.8454070877309888
1761475696307957500,7.22695751953125,-0.24219255333840845,0.11320552341938019,-1.1237616722967474
1761475696317934600,7.2369345703125,-0.672461454424262,0.4985862121172249,-1.0594963400699198
1761475696327911700,7.24691162109375,-1.2091121703892946,0.8537051796726882,-0.854978414478898
1761475696337888500,7.256888427734375,-1.3882406570494175,1.251941550551355,-0.7459919700592755
1761475696347865600,7.266865478515625,-1.3474281696677206,1.6650195167310535,-0.6335743090819567
1761475696357842400,7.276842529296875,-1.228494331729412,1.9245288233123719,-0.4092868302684277
1761475696367820500,7.286820556640625,-1.1857885779470205,1.9933515996478497,-0.09714556530453264
1761475696377797600,7.296797607421875,-1.0693249295145273,1.7890344573259354,0.18331680519543586
1761475696387774500,7.3067744140625,-0.8825964892446995,1.5008276101790368,0.35060192852243777
1761475696397751600,7.31675146484375,-0.6454302396357059,1.4079603797808289,0.2046686591733247
1761475696407728400,7.326728271484375,-0.3579910158604383,1.3591560168623924,-0.08659848885964602
1761475696417705500,7.33670556640625,-0.08240414244234562,1.2174966985054314,-0.29125659010633825
1761475696427682300,7.346682373046875,0.14424188219606876,1.0606723981119692,-0.404415169111453
1761475696437659400,7.356659423828125,0.3234329126983881,0.8485312841661274,-0.5166056337367743
1761475696447636500,7.366636474609375,0.528680759999156,0.7218792730659246,-0.6361186598025262
1761475696457613600,7.376613525390625,0.8136100467801094,0.6870449833109974,-0.9260214972123503
1761475696467591400,7.38659130859375,1.0830921735823154,0.8115078138038515,-1.1911961360789836
1761475696477568500,7.396568603515625,1.2557026566505431,0.9650142218209803,-1.3888320470713078
1761475696487545600,7.406545654296875,1.4443383918464183,0.9708620710663497,-1.4275522383488715
1761475696497522700,7.416522705078125,1.565370663368702,0.8584868609912693,-1.2845111102446913
1761475696507499500,7.42649951171875,1.771429242530465,0.7038872509099543,-1.0361512664481998
1761475696517476600,7.4364765625,1.9278169050723313,0.5284804151214659,-0.7486512523964047
1761475696527453400,7.446453369140625,1.945171359977126,0.42577188192754983,-0.490354134616442
1761475696537430500,7.456430419921875,1.8269237507373093,0.3511157232634723,-0.2151224313115701
1761475696547407600,7.46640771484375,1.4878268204391,0.45326691483557224,-0.10197260186849161
1761475696557385500,7.476385498046875,1.1194827528685332,0.6092448275327682,-0.06060796049674973
1761475696567362600,7.486362548828125,0.8250181605011224,0.7598711500689387,-0.06099557157484814
1761475696577339400,7.49633935546875,0.6437801343411207,0.7706026797026395,0.0027081081812269986
1761475696587316500,7.50631640625,0.5386456891745328,0.633304771425575,0.13408782365676014
1761475696597293600,7.51629345703125,0.43558512767255303,0.39998949815630913,0.32334417496901
1761475696607270400,7.5262705078125,0.3496580718010664,0.2657271581828594,0.36892676282934844
1761475696617247500,7.53624755859375,0.3069417966246605,0.14487857266440987,0.3019556422425434
1761475696627224300,7.546224365234375,0.18930150562822817,-0.06584814443886279,0.2426174276869744
1761475696637201700,7.55620166015625,0.04822305589914322,-0.3134684219144285,0.20125092315170912
1761475696647178500,7.566178466796875,-0.05588672239482403,-0.5363667844571173,0.10426712428014724
1761475696657156400,7.57615625,-0.16286942577660082,-0.7633094539545476,-0.07482537775114179
1761475696667133700,7.5861337890625,-0.3175666510134935,-0.8755030238524079,-0.23759985525328664
1761475696677110500,7.596110595703125,-0.372704600867629,-1.0393570767521858,-0.3453816365908831
1761475696687087600,7.606087646484375,-0.3332663244485855,-1.1384624708876012,-0.4294606169102713
1761475696697064400,7.616064453125,-0.18857786752879618,-1.1376957242988048,-0.6142373751230538
1761475696707041500,7.62604150390625,-0.07341770291030407,-1.2291915202133357,-0.7501756854847074
1761475696717018600,7.6360185546875,0.03763385734558105,-1.3548499902315436,-0.8194131801009178
1761475696726995500,7.645995361328125,0.019800094491243363,-1.4851689994066952,-0.8609097772892564
1761475696736972500,7.65597265625,-0.13075754672288895,-1.5483764200784265,-0.811755066563189
1761475696746950700,7.66595068359375,-0.3184416802823543,-1.4323856498546899,-0.7107260108888149
1761475696756927500,7.675927490234375,-0.4948994864284992,-1.2818699480861424,-0.48674332370813933
1761475696766904600,7.685904541015625,-0.5713964506536722,-1.0808766894899309,-0.21009408175554126
1761475696776881400,7.69588134765625,-0.6014613340497017,-0.9314667570061981,0.07855864599533378
1761475696786858500,7.7058583984375,-0.6517383998692036,-0.9446822124101221,0.3756140951061621
1761475696796835300,7.71583544921875,-0.7408230429887771,-1.061327647150308,0.5794952571636065
1761475696806812400,7.7258125,-0.7964730340182781,-1.0322441760070622,0.545259371693246
1761475696816789500,7.73578955078125,-0.9092319827139377,-0.9795265851676463,0.3167660021550953
1761475696826766600,7.7457666015625,-1.1790168918550015,-0.9750101306565105,0.011914528873190283
1761475696836744400,7.755744384765625,-1.4784230322778225,-1.0182304098322987,-0.29025672888141124
1761475696846721500,7.765721435546875,-1.6068939293682574,-1.081510311218351,-0.4966740218203515
1761475696856698600,7.77569873046875,-1.8402607866942882,-1.1036626679241657,-0.5157726900439709
1761475696866675700,7.78567578125,-1.9607599742531776,-1.1640719823099672,-0.3899744096962735
1761475696876652500,7.795652587890625,-1.8442402117192744,-1.2655756697587668,-0.1978786702396348
1761475696886629600,7.805629638671875,-1.4009469938874244,-1.2661164986371993,-0.10305763889253139
1761475696896606500,7.8156064453125,-0.9195552238076925,-1.2937655530631542,-0.021357078142277896
1761475696906583600,7.82558349609375,-0.5791770215272903,-1.4209708141319453,0.14365067483726887
1761475696916560400,7.835560302734375,-0.31917350168824193,-1.369719350322336,0.12345102310180664
1761475696926537500,7.845537353515625,-0.19709844311475752,-1.1515734430037439,-0.05235569872446358
1761475696936515600,7.855515625,-0.3317676103234291,-0.8758489146806299,-0.1849479500612244
1761475696946492400,7.865492431640625,-0.6255097336351871,-0.6535464722044766,-0.1992287331417203
1761475696956469500,7.875469482421875,-0.9304454511344432,-0.4281780662864446,-0.22197176748337222
1761475696966446300,7.8854462890625,-1.2634656918674707,-0.08217910151481628,-0.3245929329210892
1761475696976423400,7.89542333984375,-1.4315356088966131,0.2893077941261232,-0.37038229539990425
1761475696986400500,7.905400390625,-1.3916437434911728,0.5776411902621388,-0.2849888714810833
1761475696996377300,7.91537744140625,-1.2778314863502978,0.880943899732083,-0.0497071021781303
1761475697006354700,7.925354736328125,-0.9758224699527025,1.0935836108498274,0.16939148448910563
1761475697016331500,7.93533154296875,-0.6112409697860479,1.1443275635287165,0.5006571001071483
1761475697026309400,7.945309326171875,-0.17148644747436045,1.181111087655276,0.7861223203957081
1761475697036286700,7.95528662109375,0.3677186291486025,1.1245400362581015,0.9474111989825963
1761475697046263600,7.965263671875,0.9417974507540464,1.0598648811213671,0.9068184187661856
1761475697056240600,7.97524072265625,1.4374106384098528,0.9812813198804855,0.9396885688412934
1761475697066217500,7.985217529296875,1.7333038022756575,0.8619934078074991,1.035894880534336
1761475697076194600,7.995194580078125,1.9145488426983355,0.8478188981130719,1.1112865138661117
1761475697086171600,8.005171630859374,1.99574302482903,0.8921662816226482,1.1250821803107858
1761475697096148500,8.0151484375,2.005301126769185,0.9678402390271424,1.084604843167588
1761475697106125600,8.02512548828125,2.016438606855273,1.0714911676377057,1.13848621708937
1761475697116102400,8.035102294921876,2.0496756905466316,1.435705588057637,1.0641097521495073
1761475697126078700,8.04507861328125,1.9505249959647655,1.805515928788483,0.942920536499843
1761475697136056600,8.055056640625,1.7881091591745615,2.021011321598291,0.8300142882879823
1761475697146033700,8.06503369140625,1.5702730484575032,2.0803253880932924,0.7244690703634172
1761475697156010800,8.0750107421875,1.29321376439929,2.027088741815835,0.5987675283884629
1761475697165987800,8.08498779296875,1.0231465311855077,2.020059135439992,0.389986027068831
1761475697175965000,8.09496484375,0.7195517069011926,1.9476463717885315,0.29848771040365096
1761475697185941800,8.104941650390625,0.5422323154896498,1.8967656409874558,0.2236955042697489
1761475697195918800,8.1149189453125,0.5325210688143969,1.8306345879539847,0.21289036141056566
1761475697205895700,8.124895751953124,0.6434609853893518,1.683860410801321,0.20164047045856712
1761475697215872800,8.134872802734375,0.7734025395542383,1.367800803349912,0.3171451741984114
1761475697225849600,8.144849609375,0.8570511290997266,1.017594888407737,0.3874339314332232
1761475697235827700,8.15482763671875,0.8863006044596433,0.7309010761722922,0.34879257754553106
1761475697245804800,8.1648046875,0.8386287527024745,0.5447158028684557,0.2051899065684527
1761475697255781600,8.17478173828125,0.6967541841596364,0.377536843329668,0.055964536871388554
1761475697265758700,8.1847587890625,0.533054152777791,0.17654153890684246,-0.08095905820056795
1761475697275735600,8.194735595703126,0.4146124822705984,-0.0470266857214272,-0.1699400217499584
1761475697285712600,8.204712646484374,0.33320261156260966,-0.30014775257036086,-0.2808070922844112
1761475697295689700,8.214689697265625,0.3442155884861946,-0.5633059370480478,-0.32739136800058183
1761475697305666600,8.22466650390625,0.38382103816568847,-0.7617709923408925,-0.37565957821570334
1761475697315644000,8.234643798828126,0.49951954744458194,-0.9450598135508597,-0.43906281372047956
1761475697325620700,8.244620849609374,0.5278273580402135,-1.0864543434917926,-0.47861646014750003
1761475697335598600,8.2545986328125,0.37678690174520013,-1.2351036668665707,-0.4551152461159974
1761475697345576000,8.264575927734375,0.1501356164097786,-1.3560475294530392,-0.4638886274192482
1761475697355552800,8.274552734375,-0.11328384935259818,-1.374359285082668,-0.5149872387547045
1761475697365529900,8.28452978515625,-0.37966625657379627,-1.3901308547101914,-0.6106647408006712
1761475697375506700,8.294506591796875,-0.6441811163574457,-1.4503119132980704,-0.646995735386759
1761475697385483800,8.30448388671875,-0.8733604588657617,-1.4721103419996797,-0.661031859523803
1761475697395460900,8.3144609375,-1.017638581418991,-1.4210713518969713,-0.6459935726068914
1761475697405437700,8.324437744140624,-1.1994810032129286,-1.3592208987921475,-0.5965022503376006
1761475697415414800,8.334414794921875,-1.3501257381886242,-1.3146909983225166,-0.5421579350791871
1761475697425392600,8.344392578125,-1.4299498010098934,-1.2048892919972538,-0.44753812539260834
1761475697435369700,8.35436962890625,-1.4427531684815882,-1.118547663975507,-0.34414442294612524
1761475697445346800,8.364346923828125,-1.3469517843276262,-0.9594399288199842,-0.3276710617247969
1761475697455323600,8.37432373046875,-1.4077028978884218,-0.9143056327164173,-0.29580216111410407
1761475697465300700,8.38430078125,-1.4681611659824847,-0.8710061508245766,-0.29917529080901295
1761475697475278600,8.394278564453124,-1.4914403347611427,-0.7247991060353816,-0.38637908861804754
1761475697485255700,8.404255615234375,-1.555260188242793,-0.6049979837432503,-0.451777260799706
1761475697495232800,8.414232666015625,-1.6306664346218107,-0.4785882569663226,-0.44572844562213865
1761475697505209600,8.424209716796875,-1.6556173360049724,-0.5344673805765807,-0.22929964441973716
1761475697515186700,8.434186767578124,-1.5386889926701783,-0.796207514949888,0.16980470493249594
1761475697525163800,8.444163818359375,-1.255340837600827,-0.9196241973906755,0.33811160905528814
1761475697535140900,8.454140869140625,-0.8337912495434284,-0.8842720212414861,0.23965963732730597
1761475697545117700,8.46411767578125,-0.6125730951726436,-0.9079797906957566,0.10926902422066777
1761475697555094800,8.4740947265625,-0.5446387921094894,-0.7361581199176609,-0.273797286587581
1761475697565072000,8.48407177734375,-0.6144120010375976,-0.34240883132517336,-0.7625503792155534
1761475697575049700,8.4940498046875,-0.755064334309101,0.18749650203287602,-1.0148636368129402
1761475697585026800,8.50402685546875,-0.932601752385497,0.6045552084118128,-0.9590912615127861
1761475697595004000,8.51400390625,-1.1470412064015865,1.0249266926005483,-0.7414660901326686
1761475697604980700,8.523980712890625,-1.143744502943754,1.342924574638158,-0.35267000350076705
1761475697614957800,8.533957763671875,-0.8939239389449357,1.7532656631998718,-0.2386420760489069
1761475697624934700,8.5439345703125,-0.5639157395094633,1.914188923344761,0.006393463896773755
1761475697634911700,8.553911865234374,-0.22125848638117313,1.8724023302339017,0.3225325297925621
1761475697644888600,8.563888671875,0.11487667150199413,1.764491552221775,0.44535782221145925
1761475697654865700,8.57386572265625,0.3920809169888496,1.553913011417538,0.4778628287686035
1761475697664843800,8.58384375,0.6048807871043682,1.3640591326035558,0.4863070511827245
1761475697674820600,8.593820556640624,0.6961269921720028,1.2368281525716185,0.4168606630561873
1761475697684797700,8.603797607421875,0.6937754606097937,1.2214996505364775,0.1362078114854172
1761475697694774500,8.6137744140625,0.6261188054442405,1.1885029514722525,-0.1633249144591391
1761475697704751600,8.623751708984376,0.5442278732210397,1.1234392354093492,-0.34154264294989406
1761475697714729000,8.63372900390625,0.6397510249555111,1.1039271640792487,-0.519356612945348
1761475697724705800,8.643705810546875,0.8295318385332823,1.1505544752195478,-0.65656143611148
1761475697734683000,8.653682861328125,1.056941833281517,1.198205722580105,-0.8219590651914477
1761475697744659700,8.66365966796875,1.3025696217656135,1.1237941863268612,-0.9852315918762237
1761475697754636800,8.67363671875,1.5058891313523053,0.9017590164847672,-0.9500449815522879
1761475697764615000,8.683614990234375,1.682145861968398,0.6552588290803134,-0.847578075094521
1761475697774591700,8.693591796875,1.7988497488975523,0.47080111022144555,-0.8323914657481014
1761475697784568800,8.70356884765625,1.8593004182070492,0.27954905504733324,-0.7489787307851016
1761475697794545700,8.713545654296874,1.8680577251583337,0.22251798492297528,-0.6315699104569852
1761475697804522800,8.723522705078125,1.786355008983612,0.23939824644476174,-0.4065322708632797
1761475697814499600,8.73349951171875,1.5762147134661673,0.31574235819578167,-0.16749818155579269
1761475697824476700,8.7434765625,1.2621972793668508,0.3782664727784693,-0.028084048309735953
1761475697834453800,8.753453857421874,0.979898341089487,0.4009907841533422,0.018779044347815216
1761475697844430600,8.7634306640625,0.7490782456368208,0.298572612208128,-0.008049925866909325
1761475697854408700,8.77340869140625,0.6353501596480607,0.14998890141546725,-0.06372443028315901
1761475697864385800,8.7833857421875,0.557047607305646,-0.0073396952383220195,0.01184058685414493
1761475697874362600,8.793362548828124,0.5359130493402481,-0.12473872482478618,0.04722666527293622
1761475697884339700,8.803339599609375,0.4796452186733484,-0.3290007759585976,0.07453618554621934
1761475697894316800,8.81331689453125,0.41340310648083683,-0.535049710509181,0.13504625689275562
1761475697904294000,8.8232939453125,0.47902445642650127,-0.6086660047315061,0.0709957364603877
1761475697914270700,8.833270751953124,0.5302233132660389,-0.6558920124173164,-0.030031127256900072
1761475697924247800,8.843247802734375,0.5576607707679271,-0.8205956678837537,-0.10834200903624296
1761475697934225000,8.853224853515625,0.5260568412363529,-0.8934633356958627,-0.19118761163577436
1761475697944202800,8.86320263671875,0.4081809879183769,-0.909236220497638,-0.43064094926863905
1761475697954179800,8.873179931640625,0.27755086696743964,-0.9873308291777968,-0.6144607355501502
1761475697964156700,8.88315673828125,0.09513853633105754,-1.1020431038983165,-0.6444483159262686
1761475697974133800,8.8931337890625,-0.13590601552724837,-1.2223569980181752,-0.7421076759718358
1761475697984110800,8.90311083984375,-0.3988479269057512,-1.2542027734816075,-0.8697606077428907
1761475697994087700,8.913087646484374,-0.6726128455936908,-1.243092327532917,-0.885777165107429
1761475698004064800,8.923064697265625,-0.9456927046269178,-1.1904631456293164,-0.7493009484767913
1761475698014041600,8.93304150390625,-1.1240864472717047,-1.0921477328278124,-0.4649323643185198
1761475698024018700,8.943018798828126,-1.1222633234977721,-0.9658126787222922,-0.07464107069279999
1761475698033996800,8.952996826171875,-1.0398130038261413,-0.7812485768795013,0.1724588361704722
1761475698043973600,8.9629736328125,-1.0932219379305839,-0.7924893712095916,0.4838084758326411
1761475698053950700,8.97295068359375,-1.1474310825020073,-0.782769210575521,0.5898172926809638
1761475698063927600,8.982927490234376,-1.2520523174494504,-0.753510967387259,0.49696898617893454
1761475698073904600,8.992904541015625,-1.4087474385052918,-0.7862060531564057,0.3166287856414914
1761475698083881700,9.0028818359375,-1.556606926676631,-0.8952670241169631,0.17491452222689985
1761475698093858800,9.01285888671875,-1.719259494832158,-1.1613301362559199,0.24724077663868665
1761475698103836000,9.0228359375,-1.737512359881401,-1.4482872756026683,0.4369809659451246
1761475698113812700,9.032812744140625,-1.5064818365484476,-1.5063256230734288,0.3692321389840916
1761475698123790000,9.0427900390625,-1.291761227503419,-1.2917257177986203,0.02110927739366889
1761475698133768200,9.052768310546876,-1.3135007656246422,-1.0593246367648244,-0.3539821820778772
1761475698143745000,9.0627451171875,-1.5011621028304099,-0.9208521317504346,-0.5911178173528984
1761475698153722000,9.07272216796875,-1.7973241467654704,-0.7492768369488417,-0.7014154539689421
1761475698163699000,9.082698974609375,-1.9928823747009037,-0.4343237294346094,-0.7923104344461113
1761475698173676000,9.092676025390626,-2.1243121215969323,0.02023877816945314,-0.9489389200065285
1761475698183652900,9.10265283203125,-2.061180250379443,0.2126987478286028,-0.9279390943367034
1761475698193630000,9.1126298828125,-2.017535754442215,0.23127792222276328,-0.5846037227511406
1761475698203607000,9.12260693359375,-1.9066893613696096,0.34666444294303655,-0.2733991906480864
1761475698213584000,9.132583984375,-1.6834563600450754,0.48936567156836386,-0.040911116317426784
1761475698223561000,9.14256103515625,-1.4047107303351163,0.4882835754200816,0.1823010888142511
1761475698233538800,9.152538818359375,-1.0401748228758574,0.6448199987828731,0.1499445508170873
1761475698243516000,9.162515869140625,-0.6707067197114229,0.7316903268538415,0.12432071860842406
1761475698253493000,9.172492919921876,-0.3314630744189024,0.696409900766611,0.26445280913179736
1761475698263469800,9.1824697265625,0.0699789606332779,0.7165683071762323,0.37211587772686033
1761475698273447000,9.192447021484375,0.4226847295671701,0.7486050751671195,0.5090958060959354
1761475698283424000,9.202424072265625,0.7235387307107448,0.7274497666746378,0.699390377882123
1761475698293401000,9.212401123046876,1.1164321331262588,0.8111001097857952,0.6882141001556068
1761475698303378000,9.2223779296875,1.545191214171052,0.9540775250039994,0.5901391815790906
1761475698313355000,9.23235498046875,1.9029484212756156,0.9395493795663118,0.6442331388056278
1761475698323333000,9.2423330078125,2.1558418168485165,0.8826733538731932,0.7608328347079455
1761475698333310000,9.25231005859375,2.218999407029152,0.8079021905273198,0.9465528285875916
1761475698343287000,9.262287109375,2.1339041258066893,0.6838818431049585,1.1289584372222423
1761475698353264000,9.27226416015625,2.083364609658718,0.8798653107151388,1.0435179958239198
1761475698363241000,9.282240966796875,2.0640198577195403,1.1862220009282232,0.8298794829271733
1761475698373218000,9.292218017578126,2.1222510974138973,1.3534472838267684,0.7552268313944339
1761475698383195000,9.30219482421875,2.1130565680891276,1.4075652429834007,0.7189524988990277
1761475698393172000,9.312171875,2.0215040735512972,1.4327791792169213,0.6894549670621752
1761475698403148800,9.322148681640625,1.880789780959487,1.4288845098659395,0.690383699279651
1761475698413127000,9.332126953125,1.7366905221045017,1.3422826234728098,0.8000092453204095
1761475698423104000,9.34210400390625,1.543805312770605,1.3289908879622816,0.8980626461848616
1761475698433080800,9.352080810546875,1.4426327569723127,1.315954003995657,0.9959541344858706
1761475698443058000,9.362057861328125,1.4458616558909416,1.3245175419405102,1.1418420303232968
1761475698453034800,9.37203466796875,1.3679963259220123,1.1899199786633252,1.3262389589056371
1761475698463012000,9.38201220703125,1.1661591638475657,0.980816040456295,1.3939892837040126
1761475698472989200,9.3919892578125,0.9208283124834299,0.7709124763041735,1.3359656954109669
1761475698482966000,9.401966064453125,0.6747492731004953,0.6179070035465062,1.2005828269749879
1761475698492943000,9.411943115234376,0.43629941342175005,0.39895357923731206,1.0309963679030536
1761475698502920000,9.421919921875,0.19067513206899164,0.11792276119962333,0.8425782209806144
1761475698512898000,9.43189794921875,-0.04284837712347507,-0.14214593283012508,0.6198863407954573
1761475698522875100,9.441875244140626,-0.13325053258240221,-0.280110780583322,0.37525245871953666
1761475698532852000,9.45185205078125,-0.08447042732238769,-0.4768324993401766,0.1331864087044727
1761475698542829000,9.4618291015625,-0.26697102076411244,-0.7303663847737014,0.009652568440709728
1761475698552806000,9.471805908203125,-0.4013537722468376,-0.997388405072689,-0.008263317455840297
1761475698562783000,9.481782958984375,-0.46109950815737244,-1.1188799646697938,-0.07067137247738428
1761475698572759800,9.491759765625,-0.3754623751431703,-1.2750339645862578,-0.1323243850476574
1761475698582737000,9.50173681640625,-0.318569106054306,-1.4063783712863922,-0.08361543619455769
1761475698592714000,9.5117138671875,-0.3302022607028484,-1.4817001542523502,-0.06153480215123854
1761475698602691800,9.52169189453125,-0.4226245238125324,-1.5294488706380127,-0.053566686515999024
1761475698612669000,9.5316689453125,-0.5482675040006637,-1.4932321866139768,-0.16369312671702355
1761475698622646000,9.54164599609375,-0.721313455876708,-1.3620111140325664,-0.28249619614882393
1761475698632622800,9.551622802734375,-0.8948650191873312,-1.2972111634723842,-0.30832842867746946
1761475698642600000,9.561599853515625,-1.0305419021338225,-1.2500449231497943,-0.28249888129625467
1761475698652577000,9.571576904296874,-1.1025661048591135,-1.1626454566381872,-0.2329451430489309
1761475698662554000,9.58155419921875,-1.128147705361247,-1.029434817674756,-0.19557671344019473
1761475698672531000,9.591531005859375,-1.1660808379143477,-0.9070590225890278,-0.16279117290861903
1761475698682508000,9.601508056640625,-1.2353589568018912,-0.8178931309267878,-0.15510556857576593
1761475698692486100,9.611486083984374,-1.3154530687361954,-0.733862117934972,-0.20867250625351444
1761475698702463000,9.621462890625,-1.3895546622574328,-0.6470461503997444,-0.38368097210787233
1761475698712440000,9.631440185546875,-1.5254074862927198,-0.564302400739491,-0.5540244600921869
1761475698722417000,9.6414169921875,-1.6387573866188525,-0.5132997971244156,-0.6637427259176969
1761475698732394000,9.65139404296875,-1.6230723262310027,-0.5598424987211823,-0.4950588051760569
1761475698742371000,9.66137109375,-1.5121248108714818,-0.7689606115840375,-0.18894460021564735
1761475698752348000,9.671347900390625,-1.319256552672386,-0.8602527016200124,-0.03104017643528059
1761475698762325000,9.681324951171876,-1.1248556780785322,-0.7883342973567545,-0.13243863167762757
1761475698772301800,9.6913017578125,-0.9179694159209728,-0.6232349205709994,-0.4092465713232755
1761475698782279000,9.70127880859375,-0.8598252699881792,-0.5452805971443653,-0.6298743585854768
1761475698792257000,9.711257080078125,-0.961574748891592,-0.5251946714490652,-0.6298732626069337
1761475698802233900,9.72123388671875,-1.041851816177368,-0.29836598372012374,-0.6424496894549578
1761475698812211000,9.7312109375,-1.1069582023382187,0.109314507330209,-0.7647508849345147
1761475698822187800,9.741187744140625,-1.1761135716289282,0.5226411875739694,-0.7876962917141616
1761475698832165000,9.7511650390625,-1.1684370456516742,0.7991855078473686,-0.5817027040800079
1761475698842142000,9.761141845703126,-1.0953671332657338,1.0381384947426617,-0.29516335175391284
1761475698852119000,9.771119140625,-0.8493827864289283,1.2802365016654134,-0.21361354285227133
1761475698862096100,9.78109619140625,-0.5472147800773381,1.2765747642874716,-0.01328193563572131
1761475698872073000,9.791072998046875,-0.26565526199042794,1.1534750388413666,0.2262655374208465
1761475698882050000,9.801050048828126,0.01879530136287212,1.1308936430685221,0.2794483346192166
1761475698892028200,9.811028076171874,0.33458325226604935,1.1665868877403438,0.2417055370064452
1761475698902005000,9.8210048828125,0.5723971521288156,1.1372682926669717,0.34242844934109595
1761475698911982000,9.830982177734375,0.7655220154374838,1.1139574135757981,0.39199122941140085
1761475698921959000,9.840958984375,0.9771797297805547,1.0831425885953008,0.4026818790454417
1761475698931936000,9.85093603515625,1.1937246316432952,0.987472283475101,0.44618199807591735
1761475698941912800,9.860912841796875,1.4252607664108277,0.9473308272227644,0.3706857718585059
1761475698951890000,9.870889892578125,1.662244060668349,1.0386176565617322,0.07162004237119109
1761475698961867000,9.880866943359376,1.7255220623582601,1.0637164419829845,-0.2666809517763555
1761475698971843800,9.89084375,1.672379085713625,0.9489324172005057,-0.4860402534727007
1761475698981822000,9.900822021484375,1.7474363725244997,0.8428089609965681,-0.6653289721958339
1761475698991798800,9.910798828125,1.8471563914269207,0.7613248560085892,-0.682796897412464
1761475699001775900,9.92077587890625,1.9260820441037416,0.6564291880339383,-0.47736098019368944
1761475699011753000,9.9307529296875,2.0236387474924324,0.6659218235224486,-0.22370525847878306
1761475699021730000,9.94072998046875,2.110781608894467,0.7546139601930976,0.09562409135829657
1761475699031707100,9.95070703125,1.954863901951909,0.7364131175920366,0.42950328700821844
1761475699041684000,9.96068408203125,1.643844480624795,0.7357707280352711,0.5387498802013695
1761475699051661000,9.9706611328125,1.323913438567519,0.7754496813423931,0.503987888497673
1761475699061638000,9.980637939453125,0.9792015909969806,0.786140294443816,0.37249121384527534
1761475699071616000,9.990615966796875,0.6383084249317645,0.6955541607201099,0.28698344283178445
1761475699081593000,10.000593017578124,0.28418577493727204,0.5387289835438132,0.20613610137738286
1761475699091570000,10.01056982421875,0.08480009766817093,0.4277794223576784,0.043587322389893234
1761475699101547000,10.020547119140625,0.03839548936784267,0.33382527350559826,0.022625088784098624
1761475699111523800,10.03052392578125,0.10910977853834629,0.203020818901062,0.0932500557033345
1761475699121500200,10.040500244140626,0.2562450440883636,0.036110885562002655,0.18387769048120825
1761475699131477200,10.050477294921874,0.440544211384654,-0.1030563237182796,0.11475121849142014
1761475699141454300,10.060454345703125,0.4895353290468454,-0.3231653478033841,0.053179691925831135
1761475699151431400,10.070431396484375,0.6335486631840467,-0.4388093504160642,-0.126015430229716
1761475699161408500,10.080408447265626,0.6574047550678253,-0.6251039293132722,-0.19449951266273854
1761475699171386400,10.090386474609375,0.5215384870290756,-0.7889803401753306,-0.13933167912699282
1761475699181363500,10.100363525390625,0.34789398473799227,-0.8491554074138402,-0.16395959563348442
1761475699191340500,10.110340576171875,0.14278350008130072,-0.8843712438322603,-0.2348512871975079
1761475699201317400,10.1203173828125,0.015841127732396126,-0.8875235703833401,-0.33821316973362114
1761475699211294500,10.13029443359375,-0.0792284350156784,-0.8533134038761258,-0.3917331264644861
1761475699221271300,10.140271240234375,-0.21973346877098082,-0.8930857345551252,-0.36604908850118517
1761475699231248400,10.150248291015625,-0.42290041814446444,-0.9518898057013749,-0.2890253604555502
1761475699241225200,10.16022509765625,-0.625235592868924,-0.969049614816904,-0.14196531556621192
1761475699251202300,10.170202392578124,-0.7730068182349205,-0.927615634535998,0.08034611393399536
1761475699261179400,10.180179443359375,-0.8797054439783096,-0.8884273873552679,0.28284111886266616
1761475699271157200,10.1901572265625,-0.9338485375761986,-0.9119939947731792,0.43842199506629254
1761475699281134300,10.20013427734375,-0.991517467212677,-0.9088326081328093,0.46154666740298267
1761475699291111200,10.210111083984375,-1.064053126591444,-0.9155722916513681,0.3429490391490981
1761475699301088300,10.220088134765625,-1.2046224577546119,-1.0050642003975807,0.1986496911447495
1761475699311065300,10.2300654296875,-1.3613912285685539,-1.1534674400568008,0.19305402656216172
1761475699321042200,10.240042236328126,-1.411009538218379,-1.3650265163309871,0.4306756917884573
1761475699331019500,10.25001953125,-1.2977110758185386,-1.5447550147108733,0.5574486623872071
1761475699340996400,10.259996337890625,-1.0565133787363767,-1.552032604498416,0.40098296617306767
1761475699350974200,10.26997412109375,-0.8898515749394893,-1.447657745527476,0.09765055568460375
1761475699360951300,10.279951416015624,-1.0603110174536705,-1.3949666043035684,-0.14602704857978968
1761475699370928400,10.289928466796875,-1.48749130487442,-1.263146981307119,-0.32101591468453405
1761475699380905500,10.299905517578125,-2.033223737439513,-0.9487045997940003,-0.4430347130261361
1761475699390882300,10.30988232421875,-2.5618776094317433,-0.5670538914047182,-0.5138830038398504
1761475699400859400,10.319859375,-2.8918215114593506,-0.12912234673649073,-0.5163051529528573
1761475699410836500,10.32983642578125,-3.01291691134572,0.23067966406866908,-0.474443741040118
1761475699420813300,10.339813232421875,-2.8788053780198095,0.48997693533450365,-0.24921196711380034
1761475699430790400,10.349790283203125,-2.5050620817542075,0.8135561246357857,-0.05586227294015698
1761475699440767200,10.359767333984376,-1.9180799394339323,0.9894447525918483,0.23697094623260198
1761475699450745300,10.369745361328125,-1.2707067490369082,0.9343107482604682,0.6298856836970895
1761475699460722400,10.379722412109375,-0.6907564050495624,0.8179058442778885,0.9670775840915738
1761475699470699300,10.38969921875,-0.0781874015301466,0.6923490810684859,1.2181494633257388
1761475699480676400,10.39967626953125,0.5611544581025838,0.5859251806132495,1.3282356856808066
1761475699490653200,10.409653076171875,1.1365946311891078,0.5691917802162468,1.3650303157232702
1761475699500630300,10.41963037109375,1.5852677884936333,0.45724224820733067,1.5331391034580766
1761475699510607400,10.429607421875,1.9229431615561245,0.4397270497828722,1.5904812853582202
1761475699520584400,10.43958447265625,2.072477304941416,0.46702597559690473,1.5463906530886888
1761475699530561500,10.4495615234375,2.166083224877715,0.6408765218541026,1.5083606360323727
1761475699540539400,10.459539306640625,2.1270091055959464,0.8040206729188561,1.3225481415636837
1761475699550516500,10.4695166015625,2.13257843016088,1.041756831370294,1.0498302477106451
1761475699560493300,10.479493408203124,2.05710087211132,1.2737851335689425,0.8517076491799205
1761475699570470400,10.489470458984375,1.9099609303861855,1.5374629580065606,0.7223061201758683
1761475699580447500,10.499447509765625,1.7621423587471245,1.7922525425896048,0.6054147113179787
1761475699590424300,10.50942431640625,1.599244291397929,1.9276763275578617,0.5067079611113294
1761475699600401400,10.5194013671875,1.281311145159602,1.8369504931025207,0.61088265786767
1761475699610378200,10.529378173828125,1.0460083513349294,1.8134286016091703,0.7704863598465919
1761475699620355300,10.539355224609375,1.0004828639566898,1.8045624274559318,0.823527775812894
1761475699630332200,10.549332275390626,0.9358125311255454,1.7310718054398893,0.926112536496669
1761475699640310300,10.559310302734374,0.9179705849647521,1.5502882450491189,1.0058116577640175
1761475699650287400,10.569287353515625,0.9890122063934802,1.336828011328727,0.9476097172293811
1761475699660264200,10.57926416015625,1.0811451311677693,1.1662905351422725,1.0089949639752507
1761475699670241300,10.5892412109375,1.1228455072999,1.0325735540919005,0.887949832971394
1761475699680218400,10.59921826171875,1.045513261294365,0.8020740688957273,0.6516118508800863
1761475699690195200,10.6091953125,0.9742688107699156,0.5780940485961735,0.5261783121915534
1761475699700172500,10.619172607421875,0.9392097723484039,0.3788308286629617,0.4292552670639008
1761475699710149400,10.6291494140625,0.8194096729695797,0.23609467485472557,0.464205328685604
1761475699720126500,10.63912646484375,0.6253636031627655,0.13114055469110608,0.46626511075962335
1761475699730104300,10.649104248046875,0.5340706363439559,0.041891807051002976,0.35239856614824383
1761475699740081400,10.659081298828125,0.4538689723819494,-0.13548048359155654,0.21427538602817803
1761475699750058500,10.66905859375,0.3579658814191818,-0.3767706812627613,0.057349634554237125
1761475699760035300,10.679035400390624,0.25723405512571335,-0.6599693448588252,-0.02189556893315166
1761475699770012400,10.689012451171875,0.2216600529193878,-0.8666567234434187,-0.08556118170116096
1761475699779989200,10.6989892578125,-0.019005729243159294,-1.0689549271583556,-0.029112039650604125
1761475699789966300,10.70896630859375,-0.08186345969438552,-1.0580087318606675,-0.042626514533720905
1761475699799943400,10.718943359375,-0.16631109066307545,-1.0880208621561527,-0.04107957735266536
1761475699809920300,10.728920166015625,-0.24431027614474296,-1.1827628003850579,-0.014509075411036609
1761475699819897300,10.7388974609375,-0.3886374985367059,-1.20635118124336,0.07130809034518897
1761475699829875200,10.748875244140624,-0.5059101252645254,-1.1220857749737798,0.08001949406182393
1761475699839852300,10.758852294921875,-0.7037924122333526,-1.0608052307114004,0.04842809521825984
1761475699849829400,10.768829345703125,-0.8796084133446216,-1.0801821313545108,0.07008251233929767
1761475699859806200,10.77880615234375,-0.9922586409687996,-1.0563307156458497,0.08424445481309667
1761475699869783300,10.788783203125,-1.1521978585124015,-0.9897805604174733,0.025276735804043708
1761475699879760400,10.798760498046875,-1.3615069639027118,-0.9460770277693867,0.06939787280969321
1761475699889737500,10.808737548828125,-1.4550386495590208,-0.8336581246830522,0.026119433705881236
1761475699899714300,10.81871435546875,-1.4972820465266703,-0.7696563387632369,-0.0208175370386336
1761475699909691400,10.82869140625,-1.5965069753885268,-0.8164771266490221,-0.01474482039567083
1761475699919669500,10.83866943359375,-1.6464754136502742,-0.7029685286298394,-0.20358349428512154
1761475699929646300,10.848646240234375,-1.6858657592743633,-0.5310303918652236,-0.293371974825114
1761475699939623400,10.85862353515625,-1.7725977017879484,-0.6655483140349387,-0.1619208563474938
1761475699949600500,10.8686005859375,-1.6672867310106754,-0.8496563426733017,-0.007087939833803102
1761475699959577300,10.878577392578125,-1.375210495084524,-0.8730304962590336,-0.021948504696786404
1761475699969554400,10.888554443359375,-1.1169272231668232,-0.7920613550558686,-0.2161134151102975
1761475699979531300,10.89853125,-0.9181114547401666,-0.7381108614206313,-0.3070744100283831
1761475699989508400,10.90850830078125,-1.0994237151801585,-0.7338083419211209,-0.38615627618022264
1761475699999485200,10.918485107421875,-1.0718372045964002,-0.6021873102366924,-0.3796543104076758
1761475700009463300,10.92846337890625,-1.046307626542449,-0.2490180154442787,-0.660517553326115
1761475700019440400,10.9384404296875,-1.0207722032696007,-0.009456541261821985,-0.6282522372763604
1761475700029417200,10.948417236328124,-0.9428834924250841,0.0055998658336699,-0.41553913212884214
1761475700039394300,10.958394287109375,-0.5961778406888246,0.1913194213218987,-0.49258580265864726
1761475700049371100,10.96837109375,-0.28571137706935407,0.43564168016538024,-0.4107224890947342
