time,seconds_elapsed,z,y,x
1761475643704478000,0.03547802734375,0.08245885372161865,-0.3540295958518982,0.20651066303253174
1761475643714456000,0.0454560546875,0.08430320769548416,-0.3704471290111542,0.18578919768333435
1761475643724433000,0.055432861328125,0.09013686329126358,-0.3661637008190155,0.17584095895290375
1761475643734410000,0.065409912109375,0.09094574302434921,-0.2991131842136383,0.16837190091609955
1761475643744386800,0.07538671875,0.0896298736333847,-0.2192777395248413,0.16184794902801514
1761475643754364000,0.085364013671875,0.0846833884716034,-0.16812443733215332,0.14709420502185822
1761475643764341000,0.095341064453125,0.08257389813661575,-0.12455539405345917,0.12976741790771484
1761475643774318000,0.105318115234375,0.07966811209917068,-0.07949193567037582,0.10822193324565887
1761475643784296000,0.1152958984375,0.07283283770084381,-0.031129729002714157,0.07497502863407135
1761475643794273000,0.12527294921875,0.06457824259996414,0.026206469163298607,0.050960276275873184
1761475643804250000,0.13525,0.05144326388835907,0.08923017978668213,0.023875398561358452
1761475643814227200,0.145227294921875,0.03542288765311241,0.14857999980449677,-0.01604587957262993
1761475643824204000,0.1552041015625,0.02988298237323761,0.19065368175506592,-0.060607489198446274
1761475643834181000,0.16518115234375,0.029829632490873337,0.20363420248031616,-0.10941377282142639
1761475643844158000,0.175157958984375,0.02552756294608116,0.19165582954883575,-0.15833815932273865
1761475643854136000,0.185135986328125,0.009479018859565258,0.1627444475889206,-0.19876191020011902
1761475643864113200,0.195113037109375,-0.025281891226768494,0.1285257637500763,-0.23462644219398499
1761475643874090000,0.205090087890625,-0.07294869422912598,0.0960623025894165,-0.25769057869911194
1761475643884067000,0.215067138671875,-0.11561466008424759,0.08652684837579727,-0.2606874108314514
1761475643894044000,0.2250439453125,-0.13893848657608032,0.0824606791138649,-0.24075494706630707
1761475643904021000,0.23502099609375,-0.14200112223625183,0.07248207926750183,-0.21487514674663544
1761475643913998000,0.244998046875,-0.1355617642402649,0.0434805303812027,-0.19309847056865692
1761475643923976000,0.254975830078125,-0.1312410533428192,0.0028153927996754646,-0.17538098990917206
1761475643933953000,0.264953125,-0.1428421586751938,-0.05533222109079361,-0.1719900667667389
1761475643943929900,0.274929931640625,-0.15833190083503723,-0.10223127901554108,-0.16359232366085052
1761475643953907000,0.284906982421875,-0.17371989786624908,-0.08484441041946411,-0.14907759428024292
1761475643963884000,0.294884033203125,-0.18218928575515747,-0.04758226126432419,-0.1360483467578888
1761475643973860900,0.30486083984375,-0.18177430331707,-0.03631139546632767,-0.13015063107013702
1761475643983838200,0.314838134765625,-0.1788749247789383,-0.03169267624616623,-0.12306369096040726
1761475643993815800,0.32481591796875,-0.17521756887435913,-0.023254556581377983,-0.1196623221039772
1761475644003793000,0.33479296875,-0.182885080575943,-0.01644245721399784,-0.12076247483491898
1761475644013770000,0.34477001953125,-0.2012976109981537,-0.0350608304142952,-0.142648383975029
1761475644023747000,0.3547470703125,-0.23632164299488068,-0.10734780877828598,-0.1780916005373001
1761475644033724200,0.36472412109375,-0.2734401524066925,-0.17240749299526215,-0.20797091722488403
1761475644043701000,0.374700927734375,-0.3029421269893646,-0.17365998029708862,-0.2153598517179489
1761475644053679000,0.38467919921875,-0.3191070556640625,-0.1438755840063095,-0.21652573347091675
1761475644063656200,0.39465625,-0.3241601586341858,-0.11742107570171356,-0.204962819814682
1761475644073632800,0.4046328125,-0.32513493299484253,-0.11942865699529648,-0.2047809213399887
1761475644083609600,0.414609619140625,-0.3265320062637329,-0.1602567732334137,-0.21613238751888275
1761475644093586700,0.424586669921875,-0.33736976981163025,-0.2069070041179657,-0.21641959249973297
1761475644103563500,0.4345634765625,-0.34457311034202576,-0.19650763273239136,-0.1987796127796173
1761475644113540600,0.44454052734375,-0.3477852940559387,-0.1479368805885315,-0.15774081647396088
1761475644123517700,0.454517578125,-0.350452184677124,-0.10416916757822037,-0.12144540250301361
1761475644133495600,0.46449560546875,-0.3469560146331787,-0.08445581048727036,-0.08756943047046661
1761475644143472600,0.47447265625,-0.33959102630615234,-0.07124147564172745,-0.06323825567960739
1761475644153449500,0.484449462890625,-0.3275490999221802,-0.050394244492053986,-0.040886469185352325
1761475644163426600,0.494426513671875,-0.31606051325798035,-0.01684107631444931,-0.018496209755539894
1761475644173403600,0.504403564453125,-0.3047069311141968,-0.013825219124555588,0.005266249179840088
1761475644183380500,0.51438037109375,-0.2901620864868164,-0.017111560329794884,0.043818436563014984
1761475644193358600,0.524358642578125,-0.2704108953475952,-0.007734119892120361,0.09221381694078445
1761475644203335400,0.53433544921875,-0.2541022300720215,0.0018625815864652395,0.13406884670257568
1761475644213312500,0.5443125,-0.2323179394006729,0.0037755188532173634,0.1732681691646576
1761475644223289900,0.554289794921875,-0.2066114991903305,0.019585641101002693,0.20498427748680115
1761475644233266700,0.5642666015625,-0.19790317118167877,0.0412762314081192,0.22141483426094055
1761475644243243800,0.574243896484375,-0.200034499168396,0.06498795747756958,0.20588994026184082
1761475644253220600,0.584220703125,-0.2158404290676117,0.08890558779239655,0.17762109637260437
1761475644263198700,0.59419873046875,-0.23092243075370789,0.09690945595502853,0.14090196788311005
1761475644273175800,0.60417578125,-0.2642729878425598,0.08876261860132217,0.08896492421627045
1761475644283152600,0.614152587890625,-0.30113139748573303,0.08570371568202972,0.045534633100032806
1761475644293129700,0.624129638671875,-0.3380559980869293,0.10884733498096466,0.008904647082090378
1761475644303106600,0.6341064453125,-0.3621317744255066,0.11751273274421692,-0.018260661512613297
1761475644313083600,0.644083740234375,-0.382140576839447,0.12138107419013977,-0.0312679186463356
1761475644323060700,0.654060791015625,-0.3898315131664276,0.14565764367580414,-0.04154771938920021
1761475644333038600,0.66403857421875,-0.39083972573280334,0.21062809228897095,-0.05851943790912628
1761475644343015700,0.674015625,-0.3969668745994568,0.26741358637809753,-0.10107408463954926
1761475644352992500,0.683992431640625,-0.4139949083328247,0.2810665965080261,-0.15706099569797516
1761475644362969600,0.693969482421875,-0.4310077130794525,0.28384003043174744,-0.22488930821418762
1761475644372946700,0.70394677734375,-0.4504985809326172,0.2919691801071167,-0.28172755241394043
1761475644382923500,0.713923583984375,-0.45998477935791016,0.3092309832572937,-0.30615273118019104
1761475644392900600,0.723900634765625,-0.4600534737110138,0.33356496691703796,-0.3074132204055786
1761475644402878500,0.73387841796875,-0.44368836283683777,0.34331345558166504,-0.2910880446434021
1761475644412855600,0.74385546875,-0.42981401085853577,0.31196215748786926,-0.28432396054267883
1761475644422832600,0.75383251953125,-0.41571044921875,0.24382011592388153,-0.26513826847076416
1761475644432809500,0.7638095703125,-0.3849632143974304,0.17914147675037384,-0.22510239481925964
1761475644442786800,0.773786865234375,-0.34414947032928467,0.12956486642360687,-0.15564236044883728
1761475644452763600,0.783763671875,-0.2700890600681305,0.12272444367408752,-0.0693555474281311
1761475644462740700,0.79374072265625,-0.16186781227588654,0.15774421393871307,0.03506886214017868
1761475644472718600,0.803718505859375,-0.04729828983545303,0.19110359251499176,0.12809787690639496
1761475644482695700,0.81369580078125,0.0541822612285614,0.193924680352211,0.2166232168674469
1761475644492672800,0.8236728515625,0.11751826107501984,0.18441729247570038,0.29579994082450867
1761475644502649600,0.833649658203125,0.1601240336894989,0.25865665078163147,0.38610532879829407
1761475644512626700,0.843626708984375,0.20707175135612488,0.4076632857322693,0.4854843020439148
1761475644522603800,0.853603759765625,0.25677165389060974,0.5662675499916077,0.566972553730011
1761475644532580600,0.86358056640625,0.29065170884132385,0.6491872668266296,0.6060643196105957
1761475644542558700,0.873558837890625,0.28014686703681946,0.6007278561592102,0.5906459093093872
1761475644552535600,0.88353564453125,0.22270414233207703,0.45166710019111633,0.5348086357116699
1761475644562512600,0.8935126953125,0.13147224485874176,0.2879261076450348,0.45510345697402954
1761475644572489700,0.90348974609375,0.006713729351758957,0.11234326660633087,0.36715346574783325
1761475644582466600,0.913466552734375,-0.1446281224489212,-0.055037740617990494,0.2663823962211609
1761475644592443600,0.923443603515625,-0.3001551330089569,-0.17833490669727325,0.1718904972076416
1761475644602420500,0.93342041015625,-0.4406978487968445,-0.2541079819202423,0.11150385439395905
1761475644612398600,0.943398681640625,-0.542661726474762,-0.26959142088890076,0.09256501495838165
1761475644622375700,0.953375732421875,-0.607205867767334,-0.2579028010368347,0.10509039461612701
1761475644632352500,0.9633525390625,-0.6499185562133789,-0.23390452563762665,0.13249553740024567
1761475644642329600,0.97332958984375,-0.6738342642784119,-0.19129207730293274,0.18030673265457153
1761475644652306400,0.983306396484375,-0.6998803615570068,-0.13631321489810944,0.22790786623954773
1761475644662283800,0.99328369140625,-0.718237042427063,-0.08819228410720825,0.2797819972038269
1761475644672260600,1.003260498046875,-0.7241100668907166,-0.05514703691005707,0.32827502489089966
1761475644682238500,1.013238525390625,-0.7108185291290283,-0.024028798565268517,0.37834617495536804
1761475644692215800,1.0232158203125,-0.67930006980896,0.014792796224355698,0.444223016500473
1761475644702192600,1.033192626953125,-0.635215699672699,0.05152737349271774,0.5181047320365906
1761475644712169700,1.043169677734375,-0.5892950296401978,0.06465408951044083,0.5904194712638855
1761475644722146800,1.053146728515625,-0.5580718517303467,0.05097129940986633,0.645281970500946
1761475644732123600,1.06312353515625,-0.5363975763320923,0.009525544941425323,0.6710141897201538
1761475644742100700,1.073100830078125,-0.5205307006835938,-0.06928005814552307,0.6667978763580322
1761475644752078600,1.08307861328125,-0.5158677101135254,-0.196465864777565,0.6422292590141296
1761475644762055700,1.0930556640625,-0.5033442378044128,-0.3135645389556885,0.5993337631225586
1761475644772032800,1.10303271484375,-0.48828935623168945,-0.37885868549346924,0.5480348467826843
1761475644782009600,1.113009521484375,-0.45404163002967834,-0.4006209969520569,0.4885249137878418
1761475644791986700,1.122986572265625,-0.4015232026576996,-0.3952111303806305,0.42477771639823914
1761475644801963500,1.132963623046875,-0.3415549397468567,-0.3623107075691223,0.3512774109840393
1761475644811940600,1.142940673828125,-0.28218409419059753,-0.3167625069618225,0.2614070177078247
1761475644821918700,1.152918701171875,-0.23365968465805054,-0.26904720067977905,0.16237576305866241
1761475644831895600,1.1628955078125,-0.1997479796409607,-0.20138797163963318,0.04569241777062416
1761475644841872600,1.17287255859375,-0.17741736769676208,-0.1250804215669632,-0.07749289274215698
1761475644851849500,1.182849365234375,-0.15127061307430267,-0.04515639692544937,-0.19620677828788757
1761475644861826600,1.19282666015625,-0.1180303618311882,0.033696871250867844,-0.3047114312648773
1761475644871803600,1.2028037109375,-0.06360568106174469,0.1374792903661728,-0.3904244303703308
1761475644881780700,1.21278076171875,-0.009467082098126411,0.236258864402771,-0.4543408453464508
1761475644891758600,1.222758544921875,0.054086942225694656,0.3467892110347748,-0.4923070967197418
1761475644901735400,1.2327353515625,0.11903557926416397,0.4433189630508423,-0.5297519564628601
1761475644911712800,1.242712646484375,0.18149355053901672,0.4879396855831146,-0.5739219188690186
1761475644921689900,1.25268994140625,0.23335035145282745,0.46227800846099854,-0.6444306969642639
1761475644931666700,1.262666748046875,0.2614687383174896,0.4102514088153839,-0.7135046124458313
1761475644941643800,1.272643798828125,0.2814978361129761,0.36175286769866943,-0.7766953110694885
1761475644951620600,1.28262060546875,0.2981616258621216,0.33525580167770386,-0.8035839796066284
1761475644961597700,1.29259765625,0.3158048093318939,0.3351215720176697,-0.8060522079467773
1761475644971575800,1.302575927734375,0.32916557788848877,0.34840962290763855,-0.7783627510070801
1761475644981552600,1.312552734375,0.34491896629333496,0.35820552706718445,-0.7442015409469604
1761475644991529700,1.32252978515625,0.36047521233558655,0.3214487135410309,-0.7097421884536743
1761475645001506600,1.332506591796875,0.401906818151474,0.2588021159172058,-0.6554544568061829
1761475645011483600,1.342483642578125,0.47573336958885193,0.21102435886859894,-0.5574250221252441
1761475645021460500,1.35246044921875,0.5474355220794678,0.16950860619544983,-0.44106993079185486
1761475645031437600,1.3624375,0.6122446656227112,0.08772516250610352,-0.3129315972328186
1761475645041415700,1.372415771484375,0.6521151661872864,0.02594888024032116,-0.1696666032075882
1761475645051392500,1.382392578125,0.6502607464790344,-0.04939211532473564,-0.03014318086206913
1761475645061369600,1.39236962890625,0.6036386489868164,-0.17298702895641327,0.08150452375411987
1761475645071346700,1.4023466796875,0.5313739776611328,-0.31328675150871277,0.1854589283466339
1761475645081323500,1.412323486328125,0.43714383244514465,-0.3987278938293457,0.284976989030838
1761475645091300600,1.422300537109375,0.3363649845123291,-0.4105832278728485,0.37244343757629395
1761475645101277700,1.432277587890625,0.23468445241451263,-0.38503021001815796,0.4367412030696869
1761475645111255600,1.442255615234375,0.1517331600189209,-0.36488038301467896,0.4782983064651489
1761475645121232600,1.452232666015625,0.07773322612047195,-0.3277279734611511,0.49371322989463806
1761475645131209700,1.462209716796875,0.011536402627825737,-0.26991572976112366,0.4854922592639923
1761475645141186800,1.472186767578125,-0.05323460325598717,-0.22156207263469696,0.4607701301574707
1761475645151163600,1.48216357421875,-0.11817988753318787,-0.2032441943883896,0.42205700278282166
1761475645161140700,1.492140625,-0.18210026621818542,-0.17737744748592377,0.3781838119029999
1761475645171117800,1.502117919921875,-0.22884489595890045,-0.08554303646087646,0.35468199849128723
1761475645181095700,1.512095703125,-0.24231649935245514,0.06890220195055008,0.3580836355686188
1761475645191072800,1.52207275390625,-0.21406160295009613,0.20267997682094574,0.3629443049430847
1761475645201049600,1.532049560546875,-0.17158259451389313,0.2686576545238495,0.3518088161945343
1761475645211026700,1.542026611328125,-0.1545352190732956,0.22945742309093475,0.3057386577129364
1761475645221003800,1.552003662109375,-0.20419944822788239,0.10957469046115875,0.19397909939289093
1761475645230980600,1.561980712890625,-0.31470903754234314,-0.04641894996166229,0.0391542874276638
1761475645240957700,1.571957763671875,-0.4592116177082062,-0.20951786637306213,-0.15130753815174103
1761475645250935800,1.581935791015625,-0.6108362674713135,-0.33402299880981445,-0.3493608832359314
1761475645260912600,1.59191259765625,-0.7086755037307739,-0.4079592823982239,-0.5106384754180908
1761475645270889700,1.6018896484375,-0.7443732619285583,-0.41491979360580444,-0.6144846081733704
1761475645280866600,1.611866455078125,-0.7551215291023254,-0.31955331563949585,-0.6625413298606873
1761475645290843600,1.62184375,-0.7378788590431213,-0.12408733367919922,-0.6228816509246826
1761475645300820500,1.631820556640625,-0.6513745784759521,0.1520068347454071,-0.4815452992916107
1761475645310797600,1.641797607421875,-0.5129362344741821,0.41811034083366394,-0.2689353823661804
1761475645320775000,1.65177490234375,-0.35679346323013306,0.5783594250679016,-0.07131684571504593
1761475645330752500,1.66175244140625,-0.22049278020858765,0.5826959609985352,0.1266874223947525
1761475645340729600,1.6717294921875,-0.1028393879532814,0.5087916851043701,0.3232499957084656
1761475645350706700,1.681706787109375,-0.04113017022609711,0.4440954625606537,0.49033984541893005
1761475645360683800,1.691683837890625,-0.036363109946250916,0.3822864294052124,0.644897997379303
1761475645370660900,1.701660888671875,-0.06642808765172958,0.34840792417526245,0.7868357300758362
1761475645380637700,1.7116376953125,-0.1302451491355896,0.3447657823562622,0.8952900171279907
1761475645390614800,1.72161474609375,-0.22025272250175476,0.32810860872268677,0.9460328817367554
1761475645400592600,1.731592529296875,-0.33314889669418335,0.2996024191379547,0.9263837933540344
1761475645410569700,1.74156982421875,-0.4473911225795746,0.26412317156791687,0.8629839420318604
1761475645420546800,1.751546875,-0.5477659702301025,0.2190621942281723,0.7499108910560608
1761475645430523600,1.761523681640625,-0.6226435899734497,0.1350345015525818,0.6139338612556458
1761475645440500700,1.771500732421875,-0.647055983543396,0.010023054666817188,0.48136118054389954
1761475645450477600,1.7814775390625,-0.6365463137626648,-0.11493108421564102,0.36575570702552795
1761475645460454700,1.79145458984375,-0.617245614528656,-0.20208889245986938,0.26997697353363037
1761475645470431500,1.801431396484375,-0.6140040755271912,-0.2530118227005005,0.188960000872612
1761475645480409600,1.81140966796875,-0.6408061385154724,-0.23789438605308533,0.1311531662940979
1761475645490386700,1.82138671875,-0.6840960383415222,-0.14343002438545227,0.07081377506256104
1761475645500363500,1.831363525390625,-0.7333019375801086,-0.03659040108323097,0.016983570531010628
1761475645510340600,1.841340576171875,-0.7785719037055969,0.07527881860733032,-0.04881417006254196
1761475645520317700,1.851317626953125,-0.797692596912384,0.16319403052330017,-0.11869259178638458
1761475645530294800,1.861294677734375,-0.7792613506317139,0.19631005823612213,-0.18166199326515198
1761475645540271900,1.87127197265625,-0.7346483469009399,0.17033465206623077,-0.24150748550891876
1761475645550249500,1.88124951171875,-0.6786699295043945,0.0955083966255188,-0.29198628664016724
1761475645560226600,1.8912265625,-0.6360127329826355,0.013533903285861015,-0.32283952832221985
1761475645570204000,1.901203857421875,-0.5999404191970825,-0.04779704287648201,-0.3432133197784424
1761475645580180700,1.9111806640625,-0.5642154812812805,-0.07468565553426743,-0.3442085385322571
1761475645590157800,1.92115771484375,-0.5191382169723511,-0.08514095842838287,-0.340250164270401
1761475645600134700,1.931134765625,-0.46536314487457275,-0.07160437852144241,-0.3329041004180908
1761475645610111700,1.94111181640625,-0.40476202964782715,-0.03897111117839813,-0.32085537910461426
1761475645620088600,1.951088623046875,-0.3559798300266266,-0.02830382063984871,-0.32195258140563965
1761475645630066700,1.961066650390625,-0.3197171986103058,-0.013745276257395744,-0.3264967203140259
1761475645640043800,1.971043701171875,-0.28092026710510254,-0.01624385453760624,-0.3315412700176239
1761475645650020600,1.9810205078125,-0.2254885882139206,-0.038223713636398315,-0.3428386449813843
1761475645659997700,1.990997802734375,-0.1468779444694519,-0.06264916062355042,-0.3308003544807434
1761475645669974500,2.000974609375,-0.036928173154592514,-0.038679227232933044,-0.2670556306838989
1761475645679951600,2.01095166015625,0.08827528357505798,0.018483128398656845,-0.1678699254989624
1761475645689928700,2.0209287109375,0.23192009329795837,0.030148467049002647,-0.0563809797167778
1761475645699906600,2.030906494140625,0.3696798086166382,-0.02898542582988739,0.05337401106953621
1761475645709883600,2.040883544921875,0.4736277461051941,-0.1426132321357727,0.14564114809036255
1761475645719860700,2.05086083984375,0.5407460331916809,-0.25705885887145996,0.24026566743850708
1761475645729837600,2.060837646484375,0.5805730819702148,-0.3133831322193146,0.36405670642852783
1761475645739814700,2.070814697265625,0.5994165539741516,-0.2924136519432068,0.5049466490745544
1761475645749791700,2.080791748046875,0.6082789897918701,-0.24760080873966217,0.6346911191940308
1761475645759768800,2.090768798828125,0.577640950679779,-0.2539229094982147,0.7127782106399536
1761475645769746700,2.10074658203125,0.5110897421836853,-0.3404315710067749,0.7206602692604065
1761475645779723500,2.1107236328125,0.4218613803386688,-0.4675098955631256,0.6912581920623779
1761475645789700900,2.120700927734375,0.2849811613559723,-0.652735710144043,0.6196808815002441
1761475645799677700,2.130677734375,0.09921954572200775,-0.8700717687606812,0.4886876940727234
1761475645809654800,2.14065478515625,-0.1075788363814354,-1.022253394126892,0.34937894344329834
1761475645819631600,2.150631591796875,-0.26795387268066406,-1.0699427127838135,0.259634405374527
1761475645829608700,2.160608642578125,-0.3613615334033966,-0.9805040955543518,0.23254069685935974
1761475645839585800,2.170585693359375,-0.402762770652771,-0.8049836754798889,0.24338296055793762
1761475645849563600,2.180563720703125,-0.37603580951690674,-0.5785219073295593,0.2883559763431549
1761475645859540700,2.190540771484375,-0.26658573746681213,-0.33404263854026794,0.3680902421474457
1761475645869517600,2.200517578125,-0.07990534603595734,-0.10865480452775955,0.4604473114013672
1761475645879494700,2.21049462890625,0.13655266165733337,0.05828491598367691,0.5336054563522339
1761475645889471700,2.2204716796875,0.2969230115413666,0.17460396885871887,0.5752530097961426
1761475645899448600,2.230448486328125,0.3647422790527344,0.2992662489414215,0.5844190716743469
1761475645909425700,2.24042578125,0.363190621137619,0.44196006655693054,0.5884584784507751
1761475645919402500,2.250402587890625,0.33918648958206177,0.561057448387146,0.5872310400009155
1761475645929380600,2.260380615234375,0.31970837712287903,0.6206395030021667,0.5663068890571594
1761475645939357700,2.270357666015625,0.3168843686580658,0.6041867733001709,0.5228960514068604
1761475645949334500,2.28033447265625,0.3303261697292328,0.5179367065429688,0.45930954813957214
1761475645959311600,2.2903115234375,0.33589616417884827,0.36191996932029724,0.3538273572921753
1761475645969288700,2.300288818359375,0.31905511021614075,0.1557607650756836,0.23087537288665771
1761475645979265800,2.310265869140625,0.2897406220436096,-0.09735378623008728,0.11212661117315292
1761475645989243000,2.320242919921875,0.27024924755096436,-0.3132222592830658,0.02225448563694954
1761475645999219700,2.3302197265625,0.28189870715141296,-0.44107529520988464,-0.019644761458039284
1761475646009197800,2.34019775390625,0.30071309208869934,-0.4786665737628937,-0.014540079049766064
1761475646019174700,2.350174560546875,0.3343413472175598,-0.37835752964019775,0.026589779183268547
1761475646029151700,2.36015185546875,0.38630786538124084,-0.19120976328849792,0.08953879773616791
1761475646039128800,2.37012890625,0.46572813391685486,0.04699055850505829,0.15039363503456116
1761475646049105700,2.380105712890625,0.5587291121482849,0.23795241117477417,0.17897596955299377
1761475646059082800,2.390082763671875,0.6582943201065063,0.3240838348865509,0.153573140501976
1761475646069059600,2.4000595703125,0.7392747402191162,0.3222247362136841,0.0869998037815094
1761475646079038000,2.410037841796875,0.8010345101356506,0.24745596945285797,-0.019835572689771652
1761475646089015000,2.42001513671875,0.8381597399711609,0.14993052184581757,-0.14533042907714844
1761475646098992000,2.4299921875,0.8561840057373047,0.07575802505016327,-0.2737957537174225
1761475646108969000,2.439968994140625,0.8364371061325073,0.06555613875389099,-0.3925067186355591
1761475646118946000,2.449946044921875,0.8024623990058899,0.0746937096118927,-0.4936402440071106
1761475646128923000,2.4599228515625,0.764130175113678,0.08678900450468063,-0.5617766976356506
1761475646138900000,2.46989990234375,0.7367645502090454,0.09111397713422775,-0.593353271484375
1761475646148876800,2.479876708984375,0.7096582651138306,0.08376629650592804,-0.5887184143066406
1761475646158855000,2.48985498046875,0.6882909536361694,0.06393879652023315,-0.553422212600708
1761475646168832000,2.49983203125,0.6686809659004211,0.03790661320090294,-0.4961530268192291
1761475646178808800,2.509808837890625,0.6415576934814453,0.007978010922670364,-0.4019514322280884
1761475646188786000,2.519785888671875,0.6090981960296631,-0.027190519496798515,-0.28216972947120667
1761475646198763000,2.529762939453125,0.5609985589981079,-0.038859426975250244,-0.14856213331222534
1761475646208740000,2.539739990234375,0.4963461756706238,-0.05263718590140343,-0.019966721534729004
1761475646218717200,2.54971728515625,0.4216010868549347,-0.08634375035762787,0.0780557170510292
1761475646228694000,2.559694091796875,0.35367581248283386,-0.1386856734752655,0.15228043496608734
1761475646238672100,2.569672119140625,0.2999902069568634,-0.1879163384437561,0.19322654604911804
1761475646248649200,2.579649169921875,0.2480478584766388,-0.2246137410402298,0.21801935136318207
1761475646258626000,2.5896259765625,0.2000582218170166,-0.22373755276203156,0.2187301516532898
1761475646268603100,2.59960302734375,0.1557014137506485,-0.1685977578163147,0.20726381242275238
1761475646278580000,2.609580078125,0.1180722787976265,-0.08130919188261032,0.19081586599349976
1761475646288557000,2.61955712890625,0.08372190594673157,-0.0025034998543560505,0.16021522879600525
1761475646298534000,2.629533935546875,0.058719877153635025,0.04450156167149544,0.10752324759960175
1761475646308512000,2.639511962890625,0.04798952117562294,0.06377651542425156,0.05514082312583923
1761475646318489000,2.649489013671875,0.06650647521018982,0.083457812666893,0.0248500294983387
1761475646328466000,2.6594658203125,0.10784894227981567,0.1269160658121109,0.027540748938918114
1761475646338443000,2.669443115234375,0.16298729181289673,0.19184473156929016,0.06021374091506004
1761475646348419800,2.679419921875,0.20913909375667572,0.22874633967876434,0.1005825400352478
1761475646358397000,2.68939697265625,0.2200881391763687,0.19539131224155426,0.10790303349494934
1761475646368374000,2.6993740234375,0.19201569259166718,0.0924564003944397,0.07287168502807617
1761475646378350800,2.709350830078125,0.14766420423984528,-0.055495504289865494,0.014520225115120411
1761475646388329000,2.719328857421875,0.05098288133740425,-0.18905778229236603,-0.09233370423316956
1761475646398306000,2.72930615234375,-0.09015373885631561,-0.34276556968688965,-0.23624587059020996
1761475646408283000,2.739282958984375,-0.2359406054019928,-0.4757646918296814,-0.3876913785934448
1761475646418260200,2.74926025390625,-0.3264705240726471,-0.5120949745178223,-0.4792846739292145
1761475646428237000,2.759237060546875,-0.35672473907470703,-0.4056665599346161,-0.5025504231452942
1761475646438214100,2.769214111328125,-0.3410371243953705,-0.17650847136974335,-0.4567725956439972
1761475646448191000,2.77919091796875,-0.2658156454563141,0.12751953303813934,-0.346407949924469
1761475646458168000,2.78916796875,-0.13899937272071838,0.43611225485801697,-0.20248407125473022
1761475646468146200,2.799146240234375,-0.005122149828821421,0.661474347114563,-0.05315469205379486
1761475646478123000,2.809123046875,0.0862240120768547,0.7478153705596924,0.05710417032241821
1761475646488100000,2.81910009765625,0.12335528433322906,0.7425345182418823,0.13349926471710205
1761475646498077000,2.829076904296875,0.12136083841323853,0.6942007541656494,0.19996510446071625
1761475646508054000,2.839053955078125,0.09103137999773026,0.6607566475868225,0.2482839971780777
1761475646518031000,2.849031005859375,0.04331951588392258,0.626063883304596,0.2835825979709625
1761475646528008000,2.859008056640625,-0.0197793897241354,0.5428187847137451,0.26904866099357605
1761475646537986000,2.868986083984375,-0.09963347017765045,0.416294127702713,0.21167030930519104
1761475646547963000,2.878962890625,-0.1904575526714325,0.23716193437576294,0.12397082895040512
1761475646557940000,2.88893994140625,-0.27260515093803406,0.06855693459510803,0.027955880388617516
1761475646567917000,2.8989169921875,-0.32587185502052307,-0.04002828896045685,-0.04730156064033508
1761475646577894000,2.908893798828125,-0.34106385707855225,-0.08087851107120514,-0.09966996312141418
1761475646587871000,2.91887109375,-0.3420749008655548,-0.050895363092422485,-0.13187776505947113
1761475646597848000,2.92884814453125,-0.33490806818008423,0.0011119104456156492,-0.16418643295764923
1761475646607825200,2.9388251953125,-0.3436535894870758,0.058362510055303574,-0.2216196209192276
1761475646617802000,2.948802001953125,-0.380544513463974,0.09208984673023224,-0.3119676411151886
1761475646627779800,2.95877978515625,-0.42417100071907043,0.09615447372198105,-0.412895530462265
1761475646637757200,2.968757080078125,-0.4679664075374603,0.11584003269672394,-0.5069759488105774
1761475646647734000,2.978734130859375,-0.4971349835395813,0.1619611233472824,-0.5654569268226624
1761475646657711000,2.988711181640625,-0.5026978254318237,0.191073477268219,-0.5899074077606201
1761475646667688200,2.998688232421875,-0.5012921690940857,0.21294334530830383,-0.5892690420150757
1761475646677665000,3.0086650390625,-0.4817490875720978,0.24190495908260345,-0.5700601935386658
1761475646687642000,3.01864208984375,-0.45539391040802,0.252834290266037,-0.5335968732833862
1761475646697620000,3.028619873046875,-0.4193488359451294,0.27472975850105286,-0.47754693031311035
1761475646707597000,3.03859716796875,-0.3650107681751251,0.2905350923538208,-0.39156052470207214
1761475646717574100,3.04857421875,-0.2999958097934723,0.25818780064582825,-0.2889667749404907
1761475646727551000,3.058551025390625,-0.23477081954479218,0.1882350742816925,-0.16670730710029602
1761475646737528000,3.068528076171875,-0.18290522694587708,0.10973973572254181,-0.05048002675175667
1761475646747505000,3.0785048828125,-0.15683865547180176,0.027188248932361603,0.05244293063879013
1761475646757482000,3.08848193359375,-0.14974772930145264,-0.050369925796985626,0.1331596076488495
1761475646767458800,3.098458740234375,-0.13669848442077637,-0.14937543869018555,0.19441309571266174
1761475646777437000,3.10843701171875,-0.1284773200750351,-0.2360975593328476,0.23909561336040497
1761475646787414000,3.1184140625,-0.11858757585287094,-0.28315189480781555,0.27499353885650635
1761475646797390800,3.128390869140625,-0.1117219477891922,-0.2906162142753601,0.29509028792381287
1761475646807368000,3.138367919921875,-0.10279501974582672,-0.27878430485725403,0.3016471564769745
1761475646817345000,3.148344970703125,-0.09976061433553696,-0.25555434823036194,0.28870177268981934
1761475646827322000,3.158322021484375,-0.0994483157992363,-0.23697373270988464,0.25117865204811096
1761475646837299200,3.16829931640625,-0.10509049147367477,-0.219427227973938,0.2071227729320526
1761475646847276000,3.178276123046875,-0.09406715631484985,-0.20128579437732697,0.16798560321331024
1761475646857254100,3.188254150390625,-0.07025530189275742,-0.18260425329208374,0.13878962397575378
1761475646867231200,3.198231201171875,-0.028693271800875664,-0.16170918941497803,0.13085511326789856
1761475646877208000,3.2082080078125,0.04015237092971802,-0.1292862594127655,0.15361502766609192
1761475646887185200,3.21818505859375,0.12390011548995972,-0.07233558595180511,0.22277846932411194
1761475646897162000,3.228161865234375,0.21201027929782867,0.0046662576496601105,0.3204040825366974
1761475646907139000,3.23813916015625,0.2862406373023987,0.06962577253580093,0.427409827709198
1761475646917116000,3.248115966796875,0.3250351548194885,0.031552962958812714,0.5070860385894775
1761475646927093000,3.258093017578125,0.32023710012435913,-0.13394440710544586,0.5459283590316772
1761475646937071000,3.268071044921875,0.29340919852256775,-0.34888705611228943,0.5682514905929565
1761475646947048000,3.2780478515625,0.2536706328392029,-0.5827032327651978,0.581037700176239
1761475646957025000,3.28802490234375,0.20618940889835358,-0.817895770072937,0.6029680371284485
1761475646967001900,3.298001953125,0.15062204003334045,-0.9912671446800232,0.628789484500885
1761475646976979000,3.30797900390625,0.08007650077342987,-1.1085069179534912,0.6603835821151733
1761475646986956000,3.3179560546875,-0.0005448918091133237,-1.138171672821045,0.7004784941673279
1761475646996932900,3.327932861328125,-0.030487610027194023,-1.0515673160552979,0.7823288440704346
1761475647006910200,3.33791015625,-0.020856238901615143,-0.8114128112792969,0.8966420888900757
1761475647016887800,3.3478876953125,0.026433512568473816,-0.4691726267337799,1.0180156230926514
1761475647026865000,3.357864990234375,0.08837734162807465,-0.06493736803531647,1.1160032749176025
1761475647036842000,3.367842041015625,0.14148317277431488,0.3005218505859375,1.1565773487091064
1761475647046819000,3.377819091796875,0.1542799025774002,0.5819522738456726,1.1148205995559692
1761475647056796200,3.387796142578125,0.1437910497188568,0.7405123710632324,0.999689519405365
1761475647066773000,3.39777294921875,0.13516484200954437,0.7897200584411621,0.8310622572898865
1761475647076750000,3.40775,0.1356348991394043,0.7433698773384094,0.6287057399749756
1761475647086727200,3.41772705078125,0.13138140738010406,0.6273884773254395,0.40187719464302063
1761475647096705300,3.427705322265625,0.1083969995379448,0.4765470325946808,0.16277165710926056
1761475647106682000,3.43768212890625,0.07598463445901871,0.3260694742202759,-0.050027791410684586
1761475647116659200,3.4476591796875,0.025371793657541275,0.2024032026529312,-0.2256866991519928
1761475647126636000,3.457635986328125,-0.02276231348514557,0.15312933921813965,-0.3551836609840393
1761475647136613000,3.467613037109375,-0.043139755725860596,0.16193774342536926,-0.4492230713367462
1761475647146590200,3.477590087890625,-0.02998082898557186,0.1777530312538147,-0.5201334357261658
1761475647156567000,3.487567138671875,0.028429483994841576,0.188078373670578,-0.5754150152206421
1761475647166544100,3.497544189453125,0.11861270666122437,0.21348914504051208,-0.6143373847007751
1761475647176522200,3.507522216796875,0.23002365231513977,0.22621531784534454,-0.6370658278465271
1761475647186499000,3.5174990234375,0.32802852988243103,0.25179019570350647,-0.6549573540687561
1761475647196476200,3.52747607421875,0.40125346183776855,0.31484028697013855,-0.6758003234863281
1761475647206453000,3.537452880859375,0.4496903717517853,0.3901822566986084,-0.6974024176597595
1761475647216430000,3.54743017578125,0.48694825172424316,0.44898220896720886,-0.747581422328949
1761475647226407200,3.5574072265625,0.5354220867156982,0.4898948073387146,-0.8115032315254211
1761475647236384300,3.56738427734375,0.5947977900505066,0.5060926675796509,-0.8903218507766724
1761475647246361300,3.577361328125,0.6486162543296814,0.48500844836235046,-0.9825820326805115
1761475647256339200,3.587339111328125,0.7023423314094543,0.46693703532218933,-1.0544335842132568
1761475647266316300,3.59731640625,0.7513977289199829,0.47453856468200684,-1.0802732706069946
1761475647276293000,3.607293212890625,0.7844736576080322,0.4952758252620697,-1.0608620643615723
1761475647286270200,3.617270263671875,0.793913722038269,0.5003547668457031,-0.9971657991409302
1761475647296247300,3.627247314453125,0.7701606750488281,0.49501141905784607,-0.9081546664237976
1761475647306224000,3.63722412109375,0.7291827201843262,0.4663693904876709,-0.7889447808265686
1761475647316201200,3.647201171875,0.6793426871299744,0.4081343114376068,-0.6452280879020691
1761475647326178000,3.657177978515625,0.6395772099494934,0.32575303316116333,-0.47859716415405273
1761475647336156200,3.66715625,0.5883004665374756,0.22845792770385742,-0.30883049964904785
1761475647346133200,3.67713330078125,0.5233508348464966,0.10825715959072113,-0.1432761400938034
1761475647356110000,3.687110107421875,0.43997424840927124,-0.007185814902186394,-0.011253922246396542
1761475647366087200,3.697087158203125,0.3612159490585327,-0.1059504821896553,0.10083053261041641
1761475647376064000,3.70706396484375,0.2922419607639313,-0.1840713769197464,0.1969781070947647
1761475647386041000,3.717041015625,0.23534981906414032,-0.23438243567943573,0.27097582817077637
1761475647396018000,3.727017822265625,0.17871956527233124,-0.22995306551456451,0.3259272277355194
1761475647405995000,3.7369951171875,0.11452871561050415,-0.18484069406986237,0.3460766077041626
1761475647415972400,3.746972412109375,0.038017962127923965,-0.12365378439426422,0.32801318168640137
1761475647425950000,3.756949951171875,-0.04187189042568207,-0.0866926833987236,0.2793177664279938
1761475647435927000,3.766927001953125,-0.11045414954423904,-0.0768222063779831,0.19722610712051392
1761475647445904100,3.776904052734375,-0.16219571232795715,-0.10649482905864716,0.09679877012968063
1761475647455881200,3.786881103515625,-0.20036786794662476,-0.11746279150247574,0.006731192581355572
1761475647465858300,3.7968583984375,-0.2160574346780777,-0.08175954967737198,-0.06333242356777191
1761475647475835100,3.806835205078125,-0.22524720430374146,-0.04235115647315979,-0.11051537841558456
1761475647485812200,3.816812255859375,-0.2130906730890274,-0.020964911207556725,-0.1258874088525772
1761475647495790300,3.826790283203125,-0.19135688245296478,0.0009052343666553497,-0.11372289061546326
1761475647505767200,3.83676708984375,-0.15096713602542877,0.057092029601335526,-0.05740242823958397
1761475647515744300,3.846744140625,-0.09993617981672287,0.11925952881574631,0.036675866693258286
1761475647525721000,3.85672119140625,-0.06137668713927269,0.08891354501247406,0.1169932559132576
1761475647535698200,3.8666982421875,-0.0627247765660286,-0.02156103402376175,0.15890315175056458
1761475647545675000,3.876675048828125,-0.09234138578176498,-0.1994154006242752,0.16460439562797546
1761475647555652000,3.886652099609375,-0.14035072922706604,-0.458941251039505,0.13033536076545715
1761475647565629200,3.896629150390625,-0.26918771862983704,-0.8104038834571838,0.00639851950109005
1761475647575606000,3.90660595703125,-0.4728769063949585,-1.1019351482391357,-0.15931986272335052
1761475647585583000,3.9165830078125,-0.6637049913406372,-1.2200992107391357,-0.2982982397079468
1761475647595561000,3.92656103515625,-0.793728768825531,-1.0747736692428589,-0.35169410705566406
1761475647605538000,3.9365380859375,-0.8806120753288269,-0.7315469980239868,-0.3298497498035431
1761475647615515100,3.94651513671875,-0.9031674861907959,-0.2975316047668457,-0.25087371468544006
1761475647625492000,3.956491943359375,-0.8422006964683533,0.1190120056271553,-0.1444844901561737
1761475647635469300,3.96646923828125,-0.6985556483268738,0.39313197135925293,-0.04123241454362869
1761475647645446100,3.976446044921875,-0.5346804857254028,0.48412448167800903,0.02681388147175312
1761475647655423200,3.98642333984375,-0.3900173604488373,0.4825902283191681,0.07513666898012161
1761475647665400000,3.996400146484375,-0.2645872235298157,0.4793654680252075,0.13256636261940002
1761475647675378200,4.006378173828125,-0.14888618886470795,0.4858420193195343,0.20905447006225586
1761475647685355300,4.016355224609375,-0.055804137140512466,0.43427222967147827,0.27715539932250977
1761475647695332000,4.02633203125,-0.0019366431515663862,0.28291040658950806,0.31178155541419983
1761475647705309200,4.03630908203125,-0.003961211070418358,0.07231476157903671,0.31645599007606506
1761475647715286300,4.046286376953125,-0.05005786567926407,-0.10903000086545944,0.31408071517944336
1761475647725263000,4.05626318359375,-0.13241083920001984,-0.20301023125648499,0.31562891602516174
1761475647735240200,4.066240234375,-0.23273079097270966,-0.2203066647052765,0.31153589487075806
1761475647745217000,4.076217041015625,-0.3137904107570648,-0.1984041929244995,0.30388373136520386
1761475647755194000,4.086194091796875,-0.37713369727134705,-0.18327876925468445,0.27451038360595703
1761475647765172200,4.096172119140625,-0.422818660736084,-0.1692809909582138,0.20612072944641113
1761475647775149000,4.106149169921875,-0.4716959297657013,-0.1144036203622818,0.09653778374195099
1761475647785126100,4.116126220703125,-0.5062739253044128,-0.033090971410274506,-0.04483446851372719
1761475647795103000,4.12610302734375,-0.5261591672897339,0.05840432271361351,-0.20301425457000732
1761475647805080000,4.136080078125,-0.5285746455192566,0.15138699114322662,-0.37147292494773865
1761475647815057200,4.14605712890625,-0.49295589327812195,0.25353574752807617,-0.5057092308998108
1761475647825034200,4.1560341796875,-0.42724689841270447,0.37435969710350037,-0.5975292325019836
1761475647835011300,4.16601123046875,-0.3452606797218323,0.450268030166626,-0.6649325489997864
1761475647844989200,4.1759892578125,-0.2540200352668762,0.494141161441803,-0.6956619024276733
1761475647854966300,4.18596630859375,-0.15609398484230042,0.5356395840644836,-0.6785334944725037
1761475647864943000,4.195943115234375,-0.07340217381715775,0.5572556257247925,-0.6275253891944885
1761475647874920200,4.205920166015625,-0.013041360303759575,0.5305204391479492,-0.5601985454559326
1761475647884897300,4.215897216796875,0.03357446566224098,0.4719190299510956,-0.4729886054992676
1761475647894874000,4.2258740234375,0.07084886729717255,0.38801267743110657,-0.37556856870651245
1761475647904851200,4.235851318359375,0.0958823561668396,0.2606389820575714,-0.26728639006614685
1761475647914828000,4.245828125,0.1251254677772522,0.10881640762090683,-0.15361253917217255
1761475647924806100,4.25580615234375,0.1678391546010971,-0.05274659022688866,-0.035331081598997116
1761475647934783200,4.265783203125,0.20181895792484283,-0.22532181441783905,0.07717522233724594
1761475647944760000,4.275760009765625,0.2361448109149933,-0.382402628660202,0.17109782993793488
1761475647954737200,4.285737060546875,0.2426415979862213,-0.5381922125816345,0.22881652414798737
1761475647964714000,4.2957138671875,0.21213120222091675,-0.7007388472557068,0.24099425971508026
1761475647974691000,4.305691162109375,0.15053388476371765,-0.7990262508392334,0.2232554852962494
1761475647984668200,4.315668212890625,0.07349421083927155,-0.7798110842704773,0.20386067032814026
1761475647994645000,4.32564501953125,0.002642412669956684,-0.6764711141586304,0.17326973378658295
1761475648004622300,4.335622314453125,-0.04861806333065033,-0.5266212224960327,0.1414342224597931
1761475648014600000,4.345599853515625,-0.06915982067584991,-0.3469947576522827,0.11450567841529846
1761475648024577000,4.355576904296875,-0.07747294753789902,-0.14215141534805298,0.09171444922685623
1761475648034554400,4.365554443359375,-0.04678267985582352,0.05202658101916313,0.06882671266794205
1761475648044531200,4.37553125,0.0036969082430005074,0.1775238960981369,0.04775115102529526
1761475648054508300,4.38550830078125,0.07807207852602005,0.23484551906585693,0.03476051613688469
1761475648064485000,4.395485107421875,0.16354133188724518,0.24752108752727509,0.03986019641160965
1761475648074462200,4.405462158203125,0.26510417461395264,0.2445516586303711,0.08671106398105621
1761475648084439000,4.41543896484375,0.3750402331352234,0.22692707180976868,0.15301556885242462
1761475648094417200,4.425417236328125,0.43604153394699097,0.07393885403871536,0.20087817311286926
1761475648104394200,4.435394287109375,0.42413216829299927,-0.18605537712574005,0.19879178702831268
1761475648114371000,4.44537109375,0.3605121672153473,-0.46807724237442017,0.1823377162218094
1761475648124348200,4.45534814453125,0.2773122191429138,-0.6813277006149292,0.19448892772197723
1761475648134325000,4.465324951171875,0.19284074008464813,-0.8084244132041931,0.23825770616531372
1761475648144302000,4.475302001953125,0.1262538880109787,-0.8519187569618225,0.31198981404304504
1761475648154279200,4.485279052734375,0.08867587894201279,-0.7538086771965027,0.42487001419067383
1761475648164256000,4.495256103515625,0.0744992271065712,-0.5707550048828125,0.5473495721817017
1761475648174234000,4.505234130859375,0.08586613088846207,-0.396467387676239,0.6512828469276428
1761475648184211200,4.515211181640625,0.09501464664936066,-0.2926628887653351,0.6905391216278076
1761475648194188000,4.52518798828125,0.07613896578550339,-0.23827528953552246,0.6511113047599792
1761475648204165000,4.5351650390625,0.0614829920232296,-0.15693606436252594,0.5763612985610962
1761475648214142200,4.54514208984375,0.07626166939735413,-0.03452892601490021,0.521678626537323
1761475648224119300,4.555119384765625,0.11289383471012115,0.1117381677031517,0.5052266120910645
1761475648234096000,4.56509619140625,0.15905120968818665,0.27696043252944946,0.5304712653160095
1761475648244073200,4.5750732421875,0.19062650203704834,0.4332921802997589,0.5710968375205994
1761475648254050300,4.58505029296875,0.2019670307636261,0.5281502604484558,0.5982720255851746
1761475648264028200,4.595028076171875,0.20562130212783813,0.5320112109184265,0.5866345167160034
1761475648274005200,4.605005126953125,0.2045147567987442,0.42593780159950256,0.5225788354873657
1761475648283982000,4.614982177734375,0.18825341761112213,0.22421017289161682,0.4080426096916199
1761475648293959200,4.624959228515625,0.15077954530715942,-0.05506035313010216,0.26963838934898376
1761475648303936300,4.634936279296875,0.12390079349279404,-0.3074987232685089,0.17783497273921967
1761475648313913000,4.6449130859375,0.14823302626609802,-0.40228328108787537,0.2022809237241745
1761475648323890200,4.65489013671875,0.19334344565868378,-0.4154766798019409,0.3026215136051178
1761475648333867000,4.664866943359375,0.180382639169693,-0.5235171318054199,0.3513469696044922
1761475648343845000,4.67484521484375,0.08374407887458801,-0.740963876247406,0.26739802956581116
1761475648353822200,4.684822265625,-0.009524354711174965,-0.9454842209815979,0.10384184867143631
1761475648363799000,4.694799072265625,-0.0526905357837677,-1.0316838026046753,-0.07614502310752869
1761475648373776100,4.704776123046875,-0.026740161702036858,-0.9676475524902344,-0.2170318365097046
1761475648383753000,4.7147529296875,0.05112485960125923,-0.7591518759727478,-0.2973300516605377
1761475648393730000,4.72472998046875,0.15557031333446503,-0.40978795289993286,-0.3227994441986084
1761475648403707100,4.73470703125,0.2784869074821472,-0.03858193755149841,-0.3209313750267029
1761475648413684200,4.744684326171875,0.3874163031578064,0.2675401568412781,-0.34821468591690063
1761475648423661300,4.754661376953125,0.5016297698020935,0.49376246333122253,-0.410980224609375
1761475648433639200,4.76463916015625,0.6150266528129578,0.6019014716148376,-0.49815163016319275
1761475648443616300,4.7746162109375,0.6911482810974121,0.5987882018089294,-0.6144707798957825
1761475648453593300,4.78459326171875,0.7214625477790833,0.49979186058044434,-0.7576282024383545
1761475648463570200,4.794570068359375,0.6905912756919861,0.34123849868774414,-0.9046101570129395
1761475648473547300,4.80454736328125,0.6018174886703491,0.1078295037150383,-1.0613816976547241
1761475648483524000,4.814524169921875,0.4839470684528351,-0.11924903094768524,-1.2075799703598022
1761475648493501200,4.824501220703125,0.3774629533290863,-0.24476513266563416,-1.307948350906372
1761475648503478000,4.83447802734375,0.2980181574821472,-0.23303407430648804,-1.3505243062973022
1761475648513456000,4.8444560546875,0.2354474812746048,-0.10128004103899002,-1.3443721532821655
1761475648523433200,4.85443310546875,0.17326393723487854,0.006105163600295782,-1.2868317365646362
1761475648533410000,4.86441015625,0.11902972310781479,-0.006479604169726372,-1.225814700126648
1761475648543387100,4.87438720703125,0.08422493189573288,-0.011525236070156097,-1.1714212894439697
1761475648553364000,4.884364013671875,0.08216364681720734,-0.0375501774251461,-1.093017816543579
1761475648563341000,4.894341064453125,0.06964053958654404,-0.10347188264131546,-0.9746075868606567
1761475648573318100,4.904318115234375,0.07629311829805374,-0.15280133485794067,-0.8940773010253906
1761475648583295200,4.914295166015625,0.1227756068110466,-0.07723862677812576,-0.8448353409767151
1761475648593272300,4.924272216796875,0.17131544649600983,0.03747250884771347,-0.8127413392066956
1761475648603250000,4.93425,0.269816130399704,0.0138371167704463,-0.8127561807632446
1761475648613227000,4.94422705078125,0.4549044966697693,-0.02940942347049713,-0.8073196411132812
1761475648623204400,4.954204345703125,0.6568466424942017,-0.03462564945220947,-0.7613251805305481
1761475648633181200,4.96418115234375,0.7869689464569092,-0.056889940053224564,-0.6758509874343872
1761475648643158300,4.974158203125,0.7934778332710266,-0.07224732637405396,-0.5978662967681885
1761475648653135000,4.984135009765625,0.7058073878288269,-0.1224370002746582,-0.5108124017715454
1761475648663112200,4.9941123046875,0.5660280585289001,-0.15702086687088013,-0.40828025341033936
1761475648673089000,5.004089111328125,0.3970123529434204,-0.18294008076190948,-0.2825460433959961
1761475648683066000,5.014066162109375,0.21653543412685394,-0.20192484557628632,-0.14452846348285675
1761475648693044200,5.024044189453125,0.048041217029094696,-0.12000015377998352,0.006814175751060247
1761475648703021000,5.03402099609375,-0.08789286762475967,0.11448340117931366,0.16091257333755493
1761475648712998100,5.043998046875,-0.14051799476146698,0.3789893686771393,0.29547467827796936
1761475648722975200,5.053975341796875,-0.0934998095035553,0.5310877561569214,0.39172080159187317
1761475648732952000,5.0639521484375,0.029304666444659233,0.5996087789535522,0.4267546832561493
1761475648742929200,5.07392919921875,0.16928060352802277,0.6474800109863281,0.3707139194011688
1761475648752906000,5.083906005859375,0.24082936346530914,0.5387889742851257,0.24521005153656006
1761475648762883000,5.093883056640625,0.21760150790214539,0.32098832726478577,0.0713191106915474
1761475648772861200,5.103861083984375,0.07443662732839584,0.20876216888427734,-0.14248798787593842
1761475648782838000,5.113838134765625,-0.1133367195725441,0.1351483017206192,-0.3210412263870239
1761475648792815000,5.123815185546875,-0.2789731025695801,0.1731811761856079,-0.4327230155467987
1761475648802792200,5.133792236328125,-0.3741174638271332,0.3057493269443512,-0.48093369603157043
1761475648812769300,5.143769287109375,-0.39181283116340637,0.5084896683692932,-0.44663456082344055
1761475648822746000,5.15374609375,-0.33585166931152344,0.7459167838096619,-0.3748973608016968
1761475648832723200,5.16372314453125,-0.23609498143196106,0.9367828965187073,-0.27715909481048584
1761475648842700300,5.1737001953125,-0.12222830206155777,1.042056918144226,-0.17650443315505981
1761475648852677000,5.183677001953125,-0.015173753723502159,1.0344754457473755,-0.0803518071770668
1761475648862655200,5.1936552734375,0.054524149745702744,0.9208379983901978,0.006967839784920216
1761475648872632000,5.203632080078125,0.08246523141860962,0.7290328741073608,0.09156235307455063
1761475648882609200,5.213609130859375,0.075416199862957,0.5063109993934631,0.18799331784248352
1761475648892586200,5.223586181640625,0.023648876696825027,0.23751549422740936,0.2807410955429077
1761475648902563000,5.23356298828125,-0.0684279203414917,-0.07288797944784164,0.37667006254196167
1761475648912540200,5.2435400390625,-0.22943784296512604,-0.35224398970603943,0.4492878019809723
1761475648922517000,5.25351708984375,-0.43151673674583435,-0.5215769410133362,0.5135734677314758
1761475648932494000,5.263494140625,-0.6241213083267212,-0.5982498526573181,0.5572926998138428
1761475648942471000,5.273470947265625,-0.7684235572814941,-0.59151691198349,0.5901378989219666
1761475648952449000,5.283448974609375,-0.8401244282722473,-0.5317273736000061,0.6020360589027405
1761475648962426000,5.293426025390625,-0.838236391544342,-0.4378136992454529,0.5574303269386292
1761475648972403000,5.30340283203125,-0.794387936592102,-0.3532775044441223,0.5096335411071777
1761475648982380000,5.313380126953125,-0.6863127946853638,-0.20442187786102295,0.44602513313293457
1761475648992357400,5.323357421875,-0.5390533208847046,0.01958591863512993,0.37277278304100037
1761475649002334200,5.333334228515625,-0.37787458300590515,0.21865540742874146,0.27493470907211304
1761475649012311300,5.343311279296875,-0.22409380972385406,0.3301528990268707,0.15333078801631927
1761475649022288100,5.3532880859375,-0.09563387930393219,0.34800323843955994,0.02174723893404007
1761475649032265200,5.36326513671875,-0.010355197824537754,0.26515308022499084,-0.10466369986534119
1761475649042243300,5.373243408203125,0.027778854593634605,0.17092174291610718,-0.2066717892885208
1761475649052220200,5.38322021484375,0.03721097484230995,0.11474157124757767,-0.26103195548057556
1761475649062197200,5.393197265625,0.03222189098596573,0.09106872975826263,-0.270376592874527
1761475649072174000,5.403174072265625,0.02300895005464554,0.12160187214612961,-0.23987142741680145
1761475649082151000,5.41315087890625,0.020710842683911324,0.18812353909015656,-0.17036014795303345
1761475649092127700,5.423127685546875,0.01942746527493,0.26058974862098694,-0.08520611375570297
1761475649102104800,5.433104736328125,0.010706030763685703,0.27521899342536926,-0.01391576323658228
1761475649112082000,5.44308203125,0.012323901057243347,0.22455711662769318,0.03291112929582596
1761475649122058800,5.453058837890625,0.031950946897268295,0.1262558400630951,0.05363704636693001
1761475649132036900,5.463036865234375,0.061924293637275696,-0.0021692293230444193,0.06189311295747757
1761475649142013700,5.473013671875,0.10093296319246292,-0.16365011036396027,0.07242615520954132
1761475649151990800,5.48299072265625,0.13299421966075897,-0.2714807093143463,0.09881728142499924
1761475649161967900,5.4929677734375,0.14474770426750183,-0.3057607114315033,0.14166641235351562
1761475649171945000,5.502945068359375,0.13360077142715454,-0.2910853624343872,0.18626663088798523
1761475649181922000,5.512922119140625,0.10766728222370148,-0.2175542414188385,0.24005140364170074
1761475649191899000,5.52289892578125,0.07797437161207199,-0.11504118889570236,0.27514785528182983
1761475649201876000,5.5328759765625,0.047495286911726,-0.04852314665913582,0.28338900208473206
1761475649211852800,5.542852783203125,0.017679067328572273,-0.042909469455480576,0.25362977385520935
1761475649221831000,5.552830810546875,0.00005143624730408192,-0.05038800090551376,0.21724233031272888
1761475649231808000,5.56280810546875,0.0030549492221325636,-0.05783446505665779,0.18485935032367706
1761475649241784800,5.572784912109375,0.03436288610100746,-0.05212651193141937,0.16986189782619476
1761475649251762000,5.582761962890625,0.07697878777980804,-0.020353136584162712,0.1680501401424408
1761475649261738800,5.59273876953125,0.12773337960243225,0.028263991698622704,0.19310790300369263
1761475649271715800,5.6027158203125,0.17784154415130615,0.01855543814599514,0.2090967297554016
1761475649281693000,5.61269287109375,0.20550864934921265,-0.06119281426072121,0.19906103610992432
1761475649291669800,5.622669677734375,0.20576564967632294,-0.1597082018852234,0.1791304647922516
1761475649301646800,5.632646728515625,0.1823122501373291,-0.24297699332237244,0.15967980027198792
1761475649311625000,5.642625,0.1408018320798874,-0.33425018191337585,0.14493121206760406
1761475649321601800,5.652601806640625,0.07617048174142838,-0.4097994565963745,0.1240134984254837
1761475649331579000,5.662578857421875,0.008418604731559753,-0.4032585024833679,0.12320443242788315
1761475649341555700,5.6725556640625,-0.03066454455256462,-0.30381450057029724,0.148071750998497
1761475649351533000,5.682532958984375,-0.04499528184533119,-0.14923451840877533,0.1876484602689743
1761475649361510000,5.692510009765625,-0.012249586172401905,0.021178225055336952,0.23395363986492157
1761475649371487000,5.702487060546875,0.05859316140413284,0.19729919731616974,0.284151554107666
1761475649381464000,5.712464111328125,0.14847497642040253,0.32693248987197876,0.3185751140117645
1761475649391441000,5.72244091796875,0.23885519802570343,0.42290085554122925,0.3477811813354492
1761475649401419000,5.7324189453125,0.333417147397995,0.514252781867981,0.3842824399471283
1761475649411395800,5.742395751953125,0.42506131529808044,0.58261638879776,0.4162321388721466
1761475649421373000,5.752373046875,0.5055914521217346,0.5956613421440125,0.4372403025627136
1761475649431350000,5.76235009765625,0.5515868663787842,0.5570899844169617,0.43810075521469116
1761475649441326800,5.772326904296875,0.5670695304870605,0.4628022611141205,0.41895294189453125
1761475649451304000,5.782303955078125,0.5481253862380981,0.3194466829299927,0.37045010924339294
1761475649461280800,5.79228076171875,0.528653621673584,0.14020639657974243,0.3131304085254669
1761475649471257900,5.8022578125,0.48772749304771423,-0.03100316785275936,0.2467934936285019
1761475649481234700,5.812234619140625,0.44078394770622253,-0.21582600474357605,0.16584430634975433
1761475649491212800,5.822212890625,0.4060848355293274,-0.3844358026981354,0.09060787409543991
1761475649501190000,5.83218994140625,0.39525043964385986,-0.5047513246536255,0.02983645536005497
1761475649511166700,5.842166748046875,0.3806786835193634,-0.5502546429634094,-0.014100108295679092
1761475649521143800,5.852143798828125,0.3704943358898163,-0.49477049708366394,-0.04337621107697487
1761475649531121000,5.862120849609375,0.36567825078964233,-0.3700549602508545,-0.07244514673948288
1761475649541098000,5.872097900390625,0.37088942527770996,-0.22770380973815918,-0.11115922778844833
1761475649551075000,5.882074951171875,0.4102743864059448,-0.10964669287204742,-0.1414971500635147
1761475649561052000,5.892052001953125,0.48909491300582886,-0.014622651971876621,-0.16165947914123535
1761475649571029000,5.902029052734375,0.5872848629951477,0.07315301150083542,-0.1658765971660614
1761475649581007000,5.912007080078125,0.6795282363891602,0.15803150832653046,-0.14472493529319763
1761475649590984000,5.92198388671875,0.7379776835441589,0.21184121072292328,-0.12485881894826889
1761475649600961000,5.9319609375,0.7564648389816284,0.23713277280330658,-0.1090676560997963
1761475649610937900,5.941937744140625,0.7527039647102356,0.23502808809280396,-0.11116915941238403
1761475649620915000,5.9519150390625,0.7447367310523987,0.1966688185930252,-0.12205760180950165
1761475649630891800,5.961891845703125,0.7199591994285583,0.13169941306114197,-0.1410912126302719
1761475649640868900,5.971868896484375,0.6789659857749939,0.08211560547351837,-0.16576699912548065
1761475649650846000,5.981845947265625,0.628541111946106,0.05679773911833763,-0.1981923133134842
1761475649660822800,5.99182275390625,0.5812332630157471,0.0758180320262909,-0.22369608283042908
1761475649670801000,6.00180078125,0.5501150488853455,0.09728124737739563,-0.24206523597240448
1761475649680777700,6.01177783203125,0.517578661441803,0.13001228868961334,-0.26303547620773315
1761475649690754800,6.0217548828125,0.48128777742385864,0.19394733011722565,-0.27462130784988403
1761475649700732000,6.03173193359375,0.4484820067882538,0.2949637770652771,-0.27292400598526
1761475649710708700,6.041708740234375,0.4300720989704132,0.36365175247192383,-0.2705809473991394
1761475649720686000,6.05168603515625,0.4271555244922638,0.36874791979789734,-0.2645762860774994
1761475649730663000,6.061662841796875,0.4255717396736145,0.3682120740413666,-0.2512839138507843
1761475649740640000,6.071639892578125,0.4270479679107666,0.3490277826786041,-0.21798084676265717
1761475649750616800,6.081616943359375,0.42134562134742737,0.3203335702419281,-0.17600543797016144
1761475649760595000,6.091594970703125,0.4095626771450043,0.3098723292350769,-0.12636005878448486
1761475649770572000,6.101572021484375,0.38818657398223877,0.30828163027763367,-0.07524628192186356
1761475649780548900,6.111548828125,0.36011868715286255,0.2978825867176056,-0.018894515931606293
1761475649790526000,6.12152587890625,0.3236549496650696,0.2651131749153137,0.042769912630319595
1761475649800502800,6.131502685546875,0.27852684259414673,0.22248321771621704,0.10487637668848038
1761475649810479900,6.14147998046875,0.23147490620613098,0.1476270854473114,0.1515227109193802
1761475649820457000,6.15145703125,0.1854596585035324,0.0400933213531971,0.19650612771511078
1761475649830433800,6.161433837890625,0.140774205327034,-0.07228568196296692,0.230897918343544
1761475649840411000,6.171410888671875,0.10734721273183823,-0.1381622701883316,0.27795130014419556
1761475649850389000,6.181388916015625,0.08184904605150223,-0.14929908514022827,0.3287345767021179
1761475649860365800,6.19136572265625,0.06430640816688538,-0.11258532851934433,0.385682076215744
1761475649870343000,6.201343017578125,0.04660943150520325,-0.0931389257311821,0.4283459186553955
1761475649880319700,6.21131982421875,0.0189087875187397,-0.14210104942321777,0.44556179642677307
1761475649890296800,6.221296875,-0.019272686913609505,-0.24424365162849426,0.4253998100757599
1761475649900274000,6.23127392578125,-0.08718295395374298,-0.3833121061325073,0.36347392201423645
1761475649910251000,6.2412509765625,-0.21174804866313934,-0.5773481726646423,0.23908139765262604
1761475649920228000,6.25122802734375,-0.3804631531238556,-0.8176592588424683,0.059353653341531754
1761475649930205000,6.261204833984375,-0.5651856064796448,-0.9876802563667297,-0.1408497393131256
1761475649940183000,6.27118310546875,-0.6964497566223145,-1.039564609527588,-0.29444020986557007
1761475649950160000,6.281159912109375,-0.740281343460083,-0.8779028058052063,-0.3703208565711975
1761475649960137000,6.291136962890625,-0.7499537467956543,-0.5140351057052612,-0.3806079924106598
1761475649970114000,6.301114013671875,-0.7001038789749146,-0.07301533967256546,-0.342155396938324
1761475649980091000,6.3110908203125,-0.5742292404174805,0.3885043263435364,-0.2448333203792572
1761475649990068000,6.32106787109375,-0.3733845353126526,0.7688575387001038,-0.11207474768161774
1761475650000044800,6.331044921875,-0.14204005897045135,1.0309743881225586,0.035369254648685455
1761475650010022000,6.34102197265625,0.05420881137251854,1.1254010200500488,0.1508212834596634
1761475650019998700,6.350998779296875,0.17820954322814941,1.0075918436050415,0.24435396492481232
1761475650029975800,6.360975830078125,0.2553413510322571,0.7776769399642944,0.3275601863861084
1761475650039954000,6.370953857421875,0.2754736542701721,0.519934892654419,0.40950027108192444
1761475650049930800,6.3809306640625,0.2585010528564453,0.2627207040786743,0.49368226528167725
1761475650059907800,6.390907958984375,0.20472708344459534,0.009773874655365944,0.5743054151535034
1761475650069884700,6.400884765625,0.10183612257242203,-0.19553427398204803,0.6310214400291443
1761475650079862500,6.410862548828125,-0.06568659842014313,-0.3300088047981262,0.6419656872749329
1761475650089839400,6.42083935546875,-0.2805171310901642,-0.41290339827537537,0.5903512239456177
1761475650099816400,6.43081640625,-0.5025324821472168,-0.4505442976951599,0.4942595064640045
1761475650109793500,6.44079345703125,-0.6908776164054871,-0.4029858112335205,0.373853474855423
1761475650119770600,6.4507705078125,-0.8276904821395874,-0.2965579032897949,0.24057833850383759
1761475650129748500,6.46074853515625,-0.9164304733276367,-0.1699988692998886,0.08979707211256027
1761475650139725600,6.4707255859375,-0.9382776618003845,-0.046968553215265274,-0.05431988462805748
1761475650149702700,6.48070263671875,-0.8977147936820984,0.05667341873049736,-0.19447273015975952
1761475650159679700,6.4906796875,-0.7869244813919067,0.1411695033311844,-0.31257233023643494
1761475650169656600,6.500656494140625,-0.6433912515640259,0.22061479091644287,-0.41800448298454285
1761475650179633700,6.510633544921875,-0.47844672203063965,0.26506128907203674,-0.4986308217048645
1761475650189610500,6.520610595703125,-0.3220978379249573,0.27219218015670776,-0.5497448444366455
1761475650199587600,6.530587646484375,-0.21313464641571045,0.26940086483955383,-0.5638958215713501
1761475650209564400,6.540564453125,-0.16600415110588074,0.2753221392631531,-0.5535531640052795
1761475650219541500,6.55054150390625,-0.17603786289691925,0.3044849932193756,-0.5161818265914917
1761475650229519600,6.56051953125,-0.20318639278411865,0.36045318841934204,-0.4464791715145111
1761475650239496400,6.570496337890625,-0.22466792166233063,0.3995959758758545,-0.35682499408721924
1761475650249473500,6.5804736328125,-0.23313091695308685,0.4133104681968689,-0.2595929801464081
1761475650259450600,6.59045068359375,-0.23010414838790894,0.3725251257419586,-0.1721051037311554
1761475650269427500,6.600427490234375,-0.214579775929451,0.27469977736473083,-0.09870199114084244
1761475650279404500,6.610404541015625,-0.1937568336725235,0.1437780112028122,-0.044099923223257065
1761475650289381600,6.620381591796875,-0.18418462574481964,0.0007870362605899572,0.0015956582501530647
1761475650299358700,6.630358642578125,-0.1812795102596283,-0.12745605409145355,0.03698243945837021
1761475650309335600,6.64033544921875,-0.19152602553367615,-0.21097038686275482,0.07389545440673828
1761475650319313400,6.6503134765625,-0.20102298259735107,-0.26346299052238464,0.09904991090297699
1761475650329290800,6.660290771484375,-0.21927762031555176,-0.3044285178184509,0.11000508815050125
1761475650339267600,6.670267578125,-0.2399854212999344,-0.3111552894115448,0.10643834620714188
1761475650349244700,6.68024462890625,-0.2386290729045868,-0.28330209851264954,0.08520789444446564
1761475650359221500,6.690221435546875,-0.21040578186511993,-0.22032009065151215,0.06523753702640533
1761475650369198600,6.700198486328125,-0.1578994244337082,-0.11337873339653015,0.0476689338684082
1761475650379175700,6.71017578125,-0.10136698186397552,-0.005872730631381273,0.03974410891532898
1761475650389152500,6.720152587890625,-0.053779225796461105,0.06896208971738815,0.034241486340761185
1761475650399129600,6.730129638671875,-0.026877308264374733,0.0738624706864357,0.028256410732865334
1761475650409107500,6.740107421875,-0.01603717729449272,0.017218364402651787,0.015519309788942337
1761475650419084500,6.75008447265625,0.00498693622648716,-0.07230507582426071,0.015227234922349453
1761475650429061600,6.7600615234375,0.032454781234264374,-0.1265408843755722,0.04082447290420532
1761475650439038500,6.77003857421875,0.060777999460697174,-0.10733474791049957,0.09124455600976944
1761475650449015600,6.780015625,0.09001391381025314,0.005331347696483135,0.16656780242919922
1761475650458992400,6.789992431640625,0.11730346083641052,0.12119515985250473,0.24416641891002655
1761475650468969500,6.799969482421875,0.1243126317858696,0.11199526488780975,0.2899719774723053
1761475650478946600,6.809946533203125,0.11699943244457245,0.035792265087366104,0.28602153062820435
1761475650488923600,6.819923583984375,0.08941121399402618,-0.10539042204618454,0.24158884584903717
1761475650498900700,6.829900634765625,0.028799939900636673,-0.305939644575119,0.15313996374607086
1761475650508878600,6.839878662109375,-0.05943591520190239,-0.5247052907943726,0.040625136345624924
1761475650518855700,6.849855712890625,-0.17767630517482758,-0.69246906042099,-0.0862126499414444
1761475650528832800,6.859832763671875,-0.27458101511001587,-0.7308222651481628,-0.19119738042354584
1761475650538809600,6.8698095703125,-0.3250594139099121,-0.6276959180831909,-0.2429494857788086
1761475650548786700,6.87978662109375,-0.33080995082855225,-0.4002780020236969,-0.25006037950515747
1761475650558763500,6.889763427734375,-0.33174917101860046,-0.0718843936920166,-0.23659691214561462
1761475650568740600,6.89974072265625,-0.26445427536964417,0.2609798312187195,-0.17953282594680786
1761475650578717400,6.909717529296875,-0.14133845269680023,0.5594348907470703,-0.09754543751478195
1761475650588694500,6.919694580078125,0.017825905233621597,0.7565077543258667,-0.00571671687066555
1761475650598672600,6.929672607421875,0.1727486103773117,0.8902081251144409,0.08454889804124832
1761475650608649500,6.9396494140625,0.2733133137226105,0.924940824508667,0.1431533396244049
1761475650618626600,6.94962646484375,0.33056679368019104,0.8307301998138428,0.17858926951885223
1761475650628603400,6.959603271484375,0.3790435194969177,0.6564119458198547,0.2060435265302658
1761475650638580500,6.96958056640625,0.4016987681388855,0.4389430284500122,0.2206490933895111
1761475650648557600,6.9795576171875,0.38591712713241577,0.20625118911266327,0.2231639176607132
1761475650658534400,6.989534423828125,0.3331508934497833,-0.015496223233640194,0.20205767452716827
1761475650668511700,6.99951171875,0.26078614592552185,-0.2693769633769989,0.15592055022716522
1761475650678488600,7.009488525390625,0.20653671026229858,-0.5449168682098389,0.1004328653216362
1761475650688465700,7.019465576171875,0.16210933029651642,-0.8066393136978149,0.03008333034813404
1761475650698443800,7.02944384765625,0.10000111907720566,-1.033772587776184,-0.041804973036050797
1761475650708420600,7.039420654296875,0.025914371013641357,-1.1258703470230103,-0.09507671743631363
1761475650718397700,7.049397705078125,-0.030682273209095,-1.0917003154754639,-0.10951949656009674
1761475650728374500,7.05937451171875,-0.06655479222536087,-0.8869825601577759,-0.08723176270723343
1761475650738351600,7.0693515625,-0.04692704603075981,-0.5670090913772583,-0.009297680109739304
1761475650748328400,7.079328369140625,0.03496089577674866,-0.152017742395401,0.09478238224983215
1761475650758305500,7.089305419921875,0.17397019267082214,0.2643704414367676,0.19728319346904755
1761475650768282600,7.09928271484375,0.3077455461025238,0.5855185985565186,0.22834870219230652
1761475650778259500,7.109259521484375,0.39559897780418396,0.6901004910469055,0.1737762987613678
1761475650788236500,7.119236572265625,0.45286890864372253,0.6147668957710266,0.0499345101416111
1761475650798214700,7.129214599609375,0.497432142496109,0.48394545912742615,-0.08269871026277542
1761475650808191500,7.13919140625,0.532585859298706,0.35974228382110596,-0.19780239462852478
1761475650818168600,7.14916845703125,0.538116455078125,0.23615890741348267,-0.29295578598976135
1761475650828145400,7.1591455078125,0.5175603032112122,0.18945185840129852,-0.34654176235198975
1761475650838122500,7.16912255859375,0.4708670973777771,0.22671763598918915,-0.3654612898826599
1761475650848099600,7.179099609375,0.40528541803359985,0.2904052734375,-0.36884403228759766
1761475650858076700,7.18907666015625,0.32639285922050476,0.3395952880382538,-0.3738037943840027
1761475650868053800,7.1990537109375,0.2467651516199112,0.3669760525226593,-0.37431830167770386
1761475650878030600,7.209030517578125,0.19665619730949402,0.389974981546402,-0.3621995747089386
1761475650888008700,7.2190087890625,0.18251188099384308,0.41304463148117065,-0.33454158902168274
1761475650897985500,7.228985595703125,0.21158963441848755,0.3876085579395294,-0.2960360646247864
1761475650907962600,7.238962646484375,0.26364749670028687,0.3336523771286011,-0.24717026948928833
1761475650917939700,7.248939697265625,0.32981687784194946,0.23549260199069977,-0.1907055824995041
1761475650927916500,7.25891650390625,0.38301244378089905,0.11897450685501099,-0.11685772240161896
1761475650937893600,7.2688935546875,0.39930233359336853,0.0021909475326538086,-0.04026912525296211
1761475650947870500,7.278870361328125,0.3796332776546478,-0.07236451655626297,0.051048800349235535
1761475650957847600,7.28884765625,0.33902493119239807,-0.09487120807170868,0.1556587517261505
1761475650967824400,7.298824462890625,0.28431880474090576,-0.1133844405412674,0.2506590485572815
1761475650977801500,7.308801513671875,0.21032851934432983,-0.14727790653705597,0.3268393576145172
1761475650987779600,7.318779541015625,0.1313926875591278,-0.1769532412290573,0.3783172070980072
1761475650997756400,7.32875634765625,0.06761067360639572,-0.18519264459609985,0.4118627607822418
1761475651007733500,7.3387333984375,0.014907251112163067,-0.19119593501091003,0.42831283807754517
1761475651017710300,7.34871044921875,-0.026432262733578682,-0.19832691550254822,0.4279502332210541
1761475651027687400,7.3586875,-0.04568132758140564,-0.1739797592163086,0.41928696632385254
1761475651037664800,7.368664794921875,-0.03805616497993469,-0.11114487797021866,0.4176328778266907
1761475651047641600,7.3786416015625,-0.02510307915508747,-0.04261375218629837,0.4210886061191559
1761475651057618700,7.38861865234375,-0.018194831907749176,-0.027409661561250687,0.39653921127319336
1761475651067595500,7.398595458984375,-0.04548211395740509,-0.07517877966165543,0.3470936119556427
1761475651077572600,7.408572509765625,-0.12154809385538101,-0.1293690949678421,0.2516457140445709
1761475651087550000,7.418550048828125,-0.2634940445423126,-0.20209816098213196,0.10735165327787399
1761475651097526800,7.42852685546875,-0.4270043671131134,-0.3282186686992645,-0.06413238495588303
1761475651107503900,7.43850390625,-0.612290620803833,-0.4120136797428131,-0.2629501521587372
1761475651117481000,7.44848095703125,-0.7418490052223206,-0.44264888763427734,-0.4244922697544098
1761475651127457800,7.458457763671875,-0.7864878177642822,-0.36219024658203125,-0.5220941305160522
1761475651137435000,7.468434814453125,-0.759357213973999,-0.1718946099281311,-0.5603641867637634
1761475651147411700,7.47841162109375,-0.6924447417259216,0.08622827380895615,-0.5471852421760559
1761475651157388800,7.488388916015625,-0.5604124665260315,0.34226757287979126,-0.4903962016105652
1761475651167366000,7.498365966796875,-0.3762263357639313,0.5584906935691833,-0.3659072816371918
1761475651177343700,7.50834375,-0.1736171394586563,0.7220064997673035,-0.19432951509952545
1761475651187320800,7.51832080078125,-0.00009380979463458061,0.8064872622489929,-0.012661440297961235
1761475651197298000,7.5282978515625,0.09126520901918411,0.7657177448272705,0.1345457285642624
1761475651207275000,7.53827490234375,0.11396200209856033,0.6169948577880859,0.26426032185554504
1761475651217251800,7.548251953125,0.11924871057271957,0.4342893958091736,0.38915327191352844
1761475651227229000,7.55822900390625,0.10134641081094742,0.26196449995040894,0.5161852836608887
1761475651237206000,7.5682060546875,0.046099551022052765,0.10336112976074219,0.6299025416374207
1761475651247182800,7.578182861328125,-0.02986126020550728,-0.06480443477630615,0.7069544196128845
1761475651257160000,7.588159912109375,-0.1364123821258545,-0.21433188021183014,0.7395617961883545
1761475651267136800,7.59813671875,-0.27027246356010437,-0.3345312774181366,0.7156476974487305
1761475651277115000,7.608114990234375,-0.42126673460006714,-0.4047193229198456,0.6284012794494629
1761475651287092000,7.618092041015625,-0.5517292022705078,-0.4537808895111084,0.4885440468788147
1761475651297068800,7.62806884765625,-0.629458487033844,-0.46990641951560974,0.334275484085083
1761475651307046000,7.6380458984375,-0.6321395039558411,-0.4657883942127228,0.18776008486747742
1761475651317022700,7.648022705078125,-0.5673474073410034,-0.4058528244495392,0.06091859191656113
1761475651326999800,7.657999755859375,-0.4873524010181427,-0.26750266551971436,-0.03978937491774559
1761475651336977000,7.667976806640625,-0.3914649784564972,-0.08688423037528992,-0.12736764550209045
1761475651346954000,7.6779541015625,-0.2851230800151825,0.09041252732276917,-0.1949853003025055
1761475651356931000,7.68793115234375,-0.17507387697696686,0.22809769213199615,-0.25761768221855164
1761475651366908000,7.697907958984375,-0.08803112059831619,0.3108396828174591,-0.30375292897224426
1761475651376886000,7.707885986328125,-0.036668483167886734,0.33072903752326965,-0.3207795023918152
1761475651386863000,7.717863037109375,-0.020745445042848587,0.2936548888683319,-0.30749645829200745
1761475651396840000,7.72783984375,-0.029531681910157204,0.22715695202350616,-0.2636345624923706
1761475651406817000,7.737817138671875,-0.05148252099752426,0.16657109558582306,-0.20300130546092987
1761475651416793900,7.7477939453125,-0.08751431107521057,0.1143474206328392,-0.1319103240966797
1761475651426771000,7.75777099609375,-0.12140063941478729,0.05440365523099899,-0.07642550021409988
1761475651436747800,7.767747802734375,-0.15306413173675537,-0.025841113179922104,-0.0341360941529274
1761475651446724900,7.777724853515625,-0.1700953096151352,-0.11235469579696655,0.0028059447649866343
1761475651456702000,7.787701904296875,-0.18250730633735657,-0.18229329586029053,0.03471101075410843
1761475651466678800,7.7976787109375,-0.1918150633573532,-0.2290821075439453,0.06440632045269012
1761475651476657000,7.807656982421875,-0.20555461943149567,-0.23440635204315186,0.08894021064043045
1761475651486633700,7.8176337890625,-0.19491049647331238,-0.2098054140806198,0.09501355141401291
1761475651496610800,7.82761083984375,-0.18063947558403015,-0.18834257125854492,0.09030545502901077
1761475651506588000,7.837587890625,-0.17550942301750183,-0.17974668741226196,0.06048204377293587
1761475651516564700,7.847564697265625,-0.1710466891527176,-0.1761203110218048,0.02294270507991314
1761475651526541800,7.857541748046875,-0.15961161255836487,-0.12845851480960846,-0.00894918106496334
1761475651536519000,7.867518798828125,-0.1332578957080841,-0.05334341898560524,-0.020377574488520622
1761475651546496000,7.87749609375,-0.10669498890638351,0.03317416459321976,-0.01657617837190628
1761475651556472800,7.887472900390625,-0.08476899564266205,0.12556642293930054,-0.013550163246691227
1761475651566450000,7.897449951171875,-0.06010200083255768,0.1864529401063919,-0.009954363107681274
1761475651576428000,7.907427978515625,-0.019796432927250862,0.20053131878376007,-0.004397244192659855
1761475651586404900,7.91740478515625,0.01626969315111637,0.14773814380168915,-0.01144023984670639
1761475651596382000,7.9273818359375,0.049795959144830704,0.0698702335357666,-0.005086736753582954
1761475651606359000,7.937359130859375,0.08053523302078247,0.009539779275655746,0.024078339338302612
1761475651616336000,7.9473359375,0.11308003962039948,0.014178740791976452,0.07955824583768845
1761475651626313000,7.95731298828125,0.15749917924404144,0.07448815554380417,0.15303672850131989
1761475651636289800,7.967289794921875,0.20999927818775177,0.13064128160476685,0.22873763740062714
1761475651646267000,7.977266845703125,0.23446014523506165,0.08565862476825714,0.26497501134872437
1761475651656243700,7.98724365234375,0.21859116852283478,-0.023709679022431374,0.2503129839897156
1761475651666220800,7.997220703125,0.1718851774930954,-0.12859109044075012,0.1953706294298172
1761475651676199000,8.007198974609375,0.07585954666137695,-0.21730130910873413,0.10121382027864456
1761475651686175700,8.01717578125,-0.06878365576267242,-0.3121196925640106,-0.0472550168633461
1761475651696152800,8.02715283203125,-0.23010404407978058,-0.39779460430145264,-0.20012810826301575
1761475651706129700,8.037129638671875,-0.35549524426460266,-0.3867752254009247,-0.31937992572784424
1761475651716107000,8.04710693359375,-0.408310204744339,-0.2496875673532486,-0.3544536232948303
1761475651726084000,8.057083984375,-0.42289578914642334,-0.017269518226385117,-0.33776119351387024
1761475651736061000,8.06706103515625,-0.3857031762599945,0.2580970823764801,-0.27115243673324585
1761475651746038000,8.0770380859375,-0.305678129196167,0.5417003035545349,-0.17631621658802032
1761475651756014800,8.087014892578125,-0.16100530326366425,0.7636711001396179,-0.03579844534397125
1761475651765992000,8.096991943359376,0.02370835281908512,0.9023083448410034,0.11846276372671127
1761475651775970000,8.106969970703124,0.20249764621257782,0.9563773274421692,0.26429757475852966
1761475651785947000,8.11694677734375,0.3226325511932373,0.9202361106872559,0.3743966519832611
1761475651795924000,8.126924072265625,0.37211936712265015,0.7886992692947388,0.46183711290359497
1761475651805900800,8.13690087890625,0.3726557195186615,0.6036521792411804,0.5343443751335144
1761475651815878000,8.1468779296875,0.32541370391845703,0.38598892092704773,0.5741281509399414
1761475651825854700,8.156854736328125,0.23769904673099518,0.15083447098731995,0.5955412983894348
1761475651835831800,8.166831787109375,0.12456028908491135,-0.04645749554038048,0.5877742767333984
1761475651845809000,8.176808837890626,0.00901318434625864,-0.24012604355812073,0.556136965751648
1761475651855785700,8.18678564453125,-0.0400860421359539,-0.4368027448654175,0.5161237716674805
1761475651865763000,8.19676318359375,-0.042084209620952606,-0.6030277013778687,0.46284034848213196
1761475651875741000,8.206740966796875,-0.041600145399570465,-0.742087185382843,0.4005107879638672
1761475651885717800,8.2167177734375,-0.04284090921282768,-0.7838386297225952,0.34383073449134827
1761475651895694800,8.22669482421875,-0.033527739346027374,-0.7464568018913269,0.29684391617774963
1761475651905672000,8.236671875,-0.023379499092698097,-0.632293701171875,0.25750502943992615
1761475651915649000,8.24664892578125,0.0012429178459569812,-0.48051774501800537,0.2320854216814041
1761475651925625900,8.2566259765625,0.0335816815495491,-0.28436529636383057,0.20294325053691864
1761475651935603000,8.26660302734375,0.08948162943124771,-0.051850397139787674,0.183982715010643
1761475651945580000,8.276580078125,0.15188881754875183,0.16401691734790802,0.14389175176620483
1761475651955556900,8.286556884765625,0.20970521867275238,0.27265438437461853,0.07965289801359177
1761475651965534000,8.296533935546876,0.25446414947509766,0.28590521216392517,-0.01517242006957531
1761475651975511800,8.30651171875,0.28816527128219604,0.25276893377304077,-0.11674029380083084
1761475651985489000,8.316489013671875,0.3130514621734619,0.18647754192352295,-0.21081511676311493
1761475651995466000,8.326466064453125,0.3157557547092438,0.09344293177127838,-0.2845956087112427
1761475652005442800,8.33644287109375,0.301320344209671,0.004995628260076046,-0.3291175365447998
1761475652015420000,8.346419921875,0.26560741662979126,-0.040303461253643036,-0.33569175004959106
1761475652025396700,8.356396728515625,0.23232297599315643,-0.024132749065756798,-0.3157278895378113
1761475652035373800,8.366373779296875,0.19724752008914948,0.019570255652070045,-0.27050358057022095
1761475652045351000,8.376350830078126,0.1595344990491867,0.058091018348932266,-0.22333233058452606
1761475652055328000,8.386327880859374,0.12058499455451965,0.08811502158641815,-0.19154968857765198
1761475652065305000,8.39630517578125,0.08653993904590607,0.09309592843055725,-0.17337600886821747
1761475652075282000,8.406281982421875,0.059442464262247086,0.05474986881017685,-0.17797568440437317
1761475652085260000,8.416260009765624,0.04570028558373451,-0.008151332847774029,-0.18716971576213837
1761475652095236900,8.42623681640625,0.04821731895208359,-0.06335706263780594,-0.1896173059940338
1761475652105214000,8.4362138671875,0.04955396056175232,-0.14145079255104065,-0.18822206556797028
1761475652115191000,8.44619091796875,0.032055534422397614,-0.21911512315273285,-0.18345896899700165
1761475652125167900,8.45616796875,-0.004924319684505463,-0.2773190438747406,-0.17035461962223053
1761475652135145000,8.46614501953125,-0.043954093009233475,-0.28951504826545715,-0.1414656788110733
1761475652145121800,8.476121826171875,-0.0633392408490181,-0.2699669301509857,-0.09519165754318237
1761475652155099000,8.486098876953125,-0.06933856010437012,-0.2303570806980133,-0.03428247198462486
1761475652165075700,8.49607568359375,-0.06270942091941833,-0.1789199858903885,0.0344526506960392
1761475652175052800,8.506052734375,-0.06693518161773682,-0.148634135723114,0.09494345635175705
1761475652185031000,8.516031005859375,-0.08291921019554138,-0.15544436872005463,0.15317374467849731
1761475652195007700,8.5260078125,-0.10882335901260376,-0.18842794001102448,0.19262757897377014
1761475652204984800,8.53598486328125,-0.14666448533535004,-0.21903511881828308,0.22149226069450378
1761475652214962000,8.5459619140625,-0.1850295215845108,-0.2164723128080368,0.2460702508687973
1761475652224938800,8.555938720703125,-0.21513043344020844,-0.15267841517925262,0.2710360884666443
1761475652234916000,8.565916015625,-0.23212048411369324,-0.08814704418182373,0.28724148869514465
1761475652244893000,8.575892822265626,-0.251941055059433,-0.08898486942052841,0.25961413979530334
1761475652254870000,8.5858701171875,-0.3000776469707489,-0.18092086911201477,0.1653265655040741
1761475652264846800,8.595846923828125,-0.38519492745399475,-0.2895496189594269,0.015860915184020996
1761475652274824000,8.605823974609375,-0.49630409479141235,-0.38855212926864624,-0.17029304802417755
1761475652284802000,8.615802001953124,-0.6177229285240173,-0.46091553568840027,-0.38903260231018066
1761475652294779000,8.62577880859375,-0.7097175121307373,-0.49850592017173767,-0.5821168422698975
1761475652304756000,8.635755859375,-0.7431218028068542,-0.4578293263912201,-0.7305119037628174
1761475652314732800,8.64573291015625,-0.7238021492958069,-0.30395373702049255,-0.8130620718002319
1761475652324710000,8.6557099609375,-0.6592202186584473,-0.07913128286600113,-0.8278697729110718
1761475652334687000,8.66568701171875,-0.5665351152420044,0.1476134955883026,-0.7962647080421448
1761475652344663800,8.675663818359375,-0.44894590973854065,0.3534742593765259,-0.710013747215271
1761475652354641000,8.685640869140625,-0.2978495657444,0.5202288627624512,-0.5639578700065613
1761475652364617700,8.69561767578125,-0.13271358609199524,0.6307721734046936,-0.35741719603538513
1761475652374594800,8.7055947265625,0.014480660669505596,0.6871664524078369,-0.1258005052804947
1761475652384572000,8.715572021484375,0.10826973617076874,0.6501578688621521,0.09065058082342148
1761475652394549800,8.7255498046875,0.14200975000858307,0.5084876418113708,0.27786511182785034
1761475652404526800,8.73552685546875,0.13814736902713776,0.3092946410179138,0.4402486979961395
1761475652414504000,8.74550390625,0.09545784443616867,0.0923648327589035,0.5764614343643188
1761475652424481000,8.75548095703125,0.028221022337675095,-0.09577257931232452,0.6857559680938721
1761475652434457900,8.765457763671876,-0.08354760706424713,-0.2574519217014313,0.7384157180786133
1761475652444435000,8.77543505859375,-0.2344668060541153,-0.4175854027271271,0.7127670645713806
1761475652454412000,8.785412109375,-0.4124734103679657,-0.5582014322280884,0.6130194664001465
1761475652464388900,8.795388916015625,-0.592194676399231,-0.6568233966827393,0.4439542591571808
1761475652474366000,8.805365966796876,-0.7349002957344055,-0.7151040434837341,0.24654175341129303
1761475652484342800,8.8153427734375,-0.8246226906776428,-0.6600064635276794,0.04658842459321022
1761475652494321000,8.82532080078125,-0.8516555428504944,-0.5075542330741882,-0.12140882015228271
1761475652504298000,8.835298095703125,-0.8193567395210266,-0.27815619111061096,-0.26349005103111267
1761475652514274800,8.84527490234375,-0.727496862411499,-0.04408259689807892,-0.3869786858558655
1761475652524252000,8.855251953125,-0.5768447518348694,0.14423272013664246,-0.4859963357448578
1761475652534228700,8.865228759765625,-0.3915877640247345,0.27595603466033936,-0.5662631392478943
1761475652544205800,8.875205810546875,-0.2272033393383026,0.3251131772994995,-0.6128258109092712
1761475652554183000,8.885182861328126,-0.12305669486522675,0.3075017035007477,-0.6374132037162781
1761475652564159700,8.89515966796875,-0.0750231221318245,0.2722952365875244,-0.6236100196838379
1761475652574137000,8.90513720703125,-0.06254036724567413,0.2559105157852173,-0.5646470785140991
1761475652584114000,8.915114013671875,-0.0684395357966423,0.26022350788116455,-0.4761912226676941
1761475652594091000,8.925091064453126,-0.09645870327949524,0.27306610345840454,-0.37445068359375
1761475652604069000,8.935069091796874,-0.13776032626628876,0.25956496596336365,-0.2789393663406372
1761475652614046000,8.9450458984375,-0.18452025949954987,0.20769158005714417,-0.1990433931350708
1761475652624023000,8.95502294921875,-0.22949838638305664,0.1402616798877716,-0.1334092617034912
1761475652634000000,8.964999755859376,-0.2620738744735718,0.07589712738990784,-0.08017005026340485
1761475652643977000,8.97497705078125,-0.27623069286346436,0.023225659504532814,-0.03807266801595688
1761475652653953800,8.984953857421875,-0.2905901372432709,-0.03302967920899391,0.010919952765107155
1761475652663931000,8.994930908203125,-0.2963087260723114,-0.08025578409433365,0.04138971120119095
1761475652673908000,9.004907958984376,-0.3004818260669708,-0.12107857316732407,0.06251590698957443
1761475652683884800,9.014884765625,-0.3065474331378937,-0.15033286809921265,0.06413350999355316
1761475652693862000,9.02486181640625,-0.30945661664009094,-0.1548381894826889,0.05129513517022133
1761475652703839700,9.03483984375,-0.3185707628726959,-0.13489936292171478,0.031982421875
1761475652713816800,9.04481689453125,-0.32363495230674744,-0.08116695284843445,0.027915019541978836
1761475652723794000,9.0547939453125,-0.3272289037704468,0.01840890571475029,0.03544670343399048
1761475652733770800,9.064770751953125,-0.32400593161582947,0.10834001749753952,0.05007503554224968
1761475652743747800,9.074747802734375,-0.2978193461894989,0.16623128950595856,0.06631765514612198
1761475652753725000,9.084724853515626,-0.24401268362998962,0.21149377524852753,0.07687966525554657
1761475652763702000,9.094701904296874,-0.169921413064003,0.23917894065380096,0.0847541019320488
1761475652773678800,9.104678955078125,-0.08590792119503021,0.21671800315380096,0.09889879077672958
1761475652783656000,9.114656005859375,-0.007627757731825113,0.1797943413257599,0.1181047111749649
1761475652793633000,9.124633056640626,0.05486774817109108,0.09293704479932785,0.15200982987880707
1761475652803611000,9.13461083984375,0.0940026342868805,-0.015183568932116032,0.2057604193687439
1761475652813588000,9.144587890625,0.12095548212528229,-0.09194428473711014,0.27829816937446594
1761475652823565000,9.15456494140625,0.14689306914806366,-0.1204715371131897,0.3734438419342041
1761475652833542000,9.1645419921875,0.16959227621555328,-0.12243790179491043,0.466580331325531
1761475652843519000,9.17451904296875,0.1895771622657776,-0.14358898997306824,0.5450429320335388
1761475652853495800,9.184495849609375,0.18595919013023376,-0.1995592713356018,0.5822733640670776
1761475652863473000,9.194472900390625,0.14574626088142395,-0.2917863726615906,0.5810008645057678
1761475652873449700,9.20444970703125,0.07518603652715683,-0.36536505818367004,0.5376753211021423
1761475652883426800,9.2144267578125,-0.02493417076766491,-0.4351388216018677,0.4480295479297638
1761475652893404000,9.22440380859375,-0.14443522691726685,-0.4722169041633606,0.33535036444664
1761475652903381000,9.234381103515625,-0.25347116589546204,-0.4208306670188904,0.21242497861385345
1761475652913358800,9.24435888671875,-0.31702783703804016,-0.24031783640384674,0.10330309718847275
1761475652923335700,9.254335693359375,-0.3186880648136139,0.0008987807668745518,0.00973452813923359
1761475652933312800,9.264312744140625,-0.2786206901073456,0.24018806219100952,-0.08427266031503677
1761475652943290000,9.2742900390625,-0.20404790341854095,0.38671571016311646,-0.1896377056837082
1761475652953267000,9.284266845703126,-0.10757354646921158,0.43643689155578613,-0.2788708508014679
1761475652963244000,9.294244140625,0.005856876261532307,0.4811820089817047,-0.32796943187713623
1761475652973220900,9.304220947265625,0.1249704509973526,0.5460501313209534,-0.3185518980026245
1761475652983198000,9.314197998046875,0.22615832090377808,0.5987229347229004,-0.25944462418556213
1761475652993174800,9.3241748046875,0.3037510812282562,0.6408179998397827,-0.16364212334156036
1761475653003152000,9.33415185546875,0.35451197624206543,0.6408454179763794,-0.05394705757498741
1761475653013129000,9.34412890625,0.3500417172908783,0.5866801142692566,0.04159097746014595
1761475653023106800,9.35410693359375,0.2979620099067688,0.47017109394073486,0.10665839910507202
1761475653033084000,9.364083984375,0.21590249240398407,0.2905358374118805,0.1433909684419632
1761475653043060700,9.374060791015625,0.1385059654712677,0.07095924764871597,0.16631199419498444
1761475653053037800,9.384037841796875,0.08133169263601303,-0.15766476094722748,0.1868472695350647
1761475653063015000,9.394014892578125,0.05025206878781319,-0.3384130001068115,0.20415754616260529
1761475653072991700,9.40399169921875,0.046210672706365585,-0.4667557179927826,0.20741413533687592
1761475653082968800,9.41396875,0.06570181995630264,-0.5462100505828857,0.20207476615905762
1761475653092946200,9.4239462890625,0.08933132141828537,-0.5793390274047852,0.19529573619365692
1761475653102923000,9.433923095703125,0.11586519330739975,-0.501946210861206,0.18670091032981873
1761475653112900000,9.443900146484374,0.1463928073644638,-0.378618448972702,0.19205760955810547
1761475653122877200,9.453877197265625,0.1700374037027359,-0.23275205492973328,0.17639076709747314
1761475653132855000,9.46385498046875,0.18825700879096985,-0.1007474735379219,0.1444707214832306
1761475653142832000,9.47383203125,0.20182102918624878,0.007502305321395397,0.0915055051445961
1761475653152809000,9.48380908203125,0.21657635271549225,0.07947167009115219,0.021959993988275528
1761475653162786000,9.4937861328125,0.2514411509037018,0.13174261152744293,-0.053219448775053024
1761475653172763100,9.50376318359375,0.31090885400772095,0.17859148979187012,-0.12189575284719467
1761475653182740000,9.513739990234376,0.38006341457366943,0.2057245820760727,-0.1810608059167862
1761475653192717000,9.523717041015624,0.4331245720386505,0.20363447070121765,-0.23366910219192505
1761475653202694000,9.53369384765625,0.45535263419151306,0.1549692004919052,-0.2889898717403412
1761475653212671000,9.5436708984375,0.44365158677101135,0.08833696693181992,-0.33781206607818604
1761475653222647800,9.553647705078125,0.4049217700958252,0.02469141036272049,-0.3811800181865692
1761475653232626000,9.5636259765625,0.35339105129241943,-0.032507963478565216,-0.4112391173839569
1761475653242603000,9.57360302734375,0.3136138319969177,-0.05680212005972862,-0.41762593388557434
1761475653252579800,9.583579833984375,0.2995354235172272,-0.04372493177652359,-0.39145129919052124
1761475653262557000,9.593556884765626,0.304290235042572,-0.026120636612176895,-0.35469064116477966
1761475653272534000,9.603533935546874,0.31793123483657837,-0.038358982652425766,-0.31403037905693054
1761475653282511000,9.613510986328125,0.34143149852752686,-0.06577888876199722,-0.2828295826911926
1761475653292488200,9.62348828125,0.35981136560440063,-0.11050114035606384,-0.25570857524871826
1761475653302465000,9.633465087890626,0.3616497218608856,-0.17089469730854034,-0.23648667335510254
1761475653312442000,9.643442138671874,0.3545810580253601,-0.20298756659030914,-0.1969485580921173
1761475653322419000,9.6534189453125,0.33286404609680176,-0.20431967079639435,-0.1583862453699112
1761475653332396000,9.66339599609375,0.30917492508888245,-0.17740927636623383,-0.11636710166931152
1761475653342374100,9.6733740234375,0.2786386013031006,-0.1335776299238205,-0.07811398804187775
1761475653352351000,9.68335107421875,0.2457745224237442,-0.10178551822900772,-0.05619533732533455
1761475653362328000,9.693328125,0.21996049582958221,-0.08499215543270111,-0.041067518293857574
1761475653372305000,9.703304931640625,0.20264872908592224,-0.051717132329940796,-0.021049639210104942
1761475653382282000,9.713281982421876,0.1796611249446869,-0.011159585788846016,-0.0043356395326554775
1761475653392259000,9.723259033203124,0.14444078505039215,0.027037281543016434,0.002524981275200844
1761475653402236000,9.73323583984375,0.11101465672254562,0.04690712317824364,0.0014623799361288548
1761475653412213000,9.743212890625,0.07000265270471573,0.050111815333366394,-0.02086739055812359
1761475653422189800,9.75318994140625,0.019053984433412552,0.010049882344901562,-0.05464000254869461
1761475653432167200,9.763167236328124,-0.04629581794142723,-0.046481676399707794,-0.09230697154998779
1761475653442144000,9.77314404296875,-0.12147659063339233,-0.0854482501745224,-0.12912437319755554
1761475653452121900,9.783121826171875,-0.18989412486553192,-0.10869040340185165,-0.13798768818378448
1761475653462099200,9.79309912109375,-0.24261139333248138,-0.07727628946304321,-0.1226673349738121
1761475653472076000,9.803075927734374,-0.2520875334739685,0.031292106956243515,-0.06392743438482285
1761475653482053000,9.81305322265625,-0.21283656358718872,0.1294354498386383,0.026651201769709587
1761475653492030000,9.823030029296875,-0.17362022399902344,0.05662121996283531,0.0830378532409668
1761475653502007000,9.833007080078126,-0.18242010474205017,-0.11910693347454071,0.09213228523731232
1761475653511984000,9.842984130859374,-0.24857957661151886,-0.313029408454895,0.04867580905556679
1761475653521961000,9.8529609375,-0.36489126086235046,-0.5406820178031921,-0.04120933637022972
1761475653531938000,9.86293798828125,-0.537328839302063,-0.7573791146278381,-0.17029894888401031
1761475653541915000,9.872914794921876,-0.7038546800613403,-0.8991857767105103,-0.2909761071205139
1761475653551892000,9.88289208984375,-0.8039793968200684,-0.8783572316169739,-0.35146021842956543
1761475653561870000,9.8928701171875,-0.8113105893135071,-0.6937058568000793,-0.3330806791782379
1761475653571847000,9.902846923828125,-0.7925769686698914,-0.36802178621292114,-0.2654770016670227
1761475653581824000,9.912823974609376,-0.7228878736495972,0.011924214661121368,-0.15155257284641266
1761475653591800800,9.92280078125,-0.5763161182403564,0.4290499687194824,0.0024361801333725452
1761475653601778000,9.93277783203125,-0.36885160207748413,0.7466830611228943,0.1702028214931488
1761475653611755000,9.942755126953125,-0.15746505558490753,0.8420825004577637,0.29677918553352356
1761475653621732000,9.952732177734376,-0.017341511324048042,0.6964331865310669,0.356256365776062
1761475653631709200,9.962709228515624,0.05982215330004692,0.4425943195819855,0.4013369083404541
1761475653641686000,9.97268603515625,0.09551144391298294,0.19127342104911804,0.47359806299209595
1761475653651663000,9.9826630859375,0.07995658367872238,-0.004168839193880558,0.5651953816413879
1761475653661640000,9.992639892578126,0.008502635173499584,-0.12143340706825256,0.6538763046264648
1761475653671617000,10.002616943359374,-0.0978085920214653,-0.206366628408432,0.7171875238418579
1761475653681595100,10.01259521484375,-0.22225704789161682,-0.2752237319946289,0.7218403816223145
1761475653691572000,10.022572021484375,-0.35753127932548523,-0.316293865442276,0.6645901799201965
1761475653701549000,10.032549072265626,-0.47888514399528503,-0.3248881697654724,0.560326874256134
1761475653711526000,10.04252587890625,-0.5520828366279602,-0.19598418474197388,0.4451194405555725
1761475653721503000,10.0525029296875,-0.5754355192184448,-0.08887743949890137,0.320791631937027
1761475653731480000,10.06247998046875,-0.5647167563438416,0.010087012313306332,0.17745214700698853
1761475653741457000,10.072456787109376,-0.5238582491874695,0.10843195766210556,0.021232709288597107
1761475653751434000,10.08243408203125,-0.46190035343170166,0.19138413667678833,-0.1415506899356842
1761475653761411000,10.0924111328125,-0.3801727592945099,0.2560984194278717,-0.3042442798614502
1761475653771388200,10.10238818359375,-0.2852928936481476,0.28356871008872986,-0.45803987979888916
1761475653781365000,10.112364990234376,-0.19706077873706818,0.28519004583358765,-0.5809354782104492
1761475653791342800,10.1223427734375,-0.13658098876476288,0.2884538173675537,-0.6633448600769043
1761475653801320200,10.1323203125,-0.11081970483064651,0.3262198269367218,-0.68489009141922
1761475653811297000,10.142297119140625,-0.10449566692113876,0.38740232586860657,-0.6635642647743225
1761475653821274000,10.152274169921874,-0.10959082841873169,0.4050880968570709,-0.613532304763794
1761475653831251000,10.1622509765625,-0.10162951052188873,0.35836920142173767,-0.5477004051208496
1761475653841228000,10.17222802734375,-0.07849036902189255,0.30793851613998413,-0.4580181837081909
1761475653851205000,10.182205078125,-0.04527236521244049,0.26476383209228516,-0.36433953046798706
1761475653861182000,10.192181884765626,-0.005841072183102369,0.18192540109157562,-0.2744216322898865
1761475653871159000,10.202158935546874,0.03285918012261391,0.07010453939437866,-0.18010003864765167
1761475653881135900,10.212135986328125,0.0677761510014534,-0.04073169827461243,-0.10043690353631973
1761475653891113000,10.222113037109375,0.09048479050397873,-0.17973731458187103,-0.030905695632100105
1761475653901091000,10.232091064453124,0.07416041195392609,-0.2953565716743469,0.028073733672499657
1761475653911068000,10.24206787109375,0.045453835278749466,-0.37974274158477783,0.07601530849933624
1761475653921045000,10.252044921875,0.004527708515524864,-0.42282310128211975,0.11824825406074524
1761475653931021800,10.262021728515625,-0.03300736844539642,-0.4503706097602844,0.1412496417760849
1761475653940999000,10.2719990234375,-0.061058443039655685,-0.4607388377189636,0.1312369555234909
1761475653950976300,10.281976318359375,-0.06930150836706161,-0.4541069269180298,0.11011133342981339
1761475653960953000,10.291953125,-0.06134051829576492,-0.41046276688575745,0.07450726628303528
1761475653970930200,10.30193017578125,-0.04344857484102249,-0.3429785370826721,0.03190399333834648
1761475653980907000,10.311906982421876,-0.020060161128640175,-0.22395414113998413,-0.011610724963247776
1761475653990884000,10.321884033203125,0.019573332741856575,-0.10807882994413376,-0.06503836810588837
1761475654000861000,10.33186083984375,0.06796696037054062,-0.0040839919820427895,-0.11839213222265244
1761475654010839000,10.341839111328126,0.14636120200157166,0.059798214584589005,-0.1630748063325882
1761475654020816100,10.351816162109374,0.2229342758655548,0.11338420957326889,-0.20500494539737701
1761475654030793000,10.36179296875,0.30381810665130615,0.14253483712673187,-0.2273034155368805
1761475654040770000,10.37177001953125,0.3795115351676941,0.20671889185905457,-0.2238255888223648
1761475654050747000,10.381746826171875,0.4408414959907532,0.2793838381767273,-0.19388717412948608
1761475654060724000,10.391723876953124,0.4684709906578064,0.27649322152137756,-0.1711467206478119
1761475654070701000,10.401701171875,0.4455764889717102,0.1737469881772995,-0.16106383502483368
1761475654080678000,10.411677978515625,0.3927724063396454,0.046444427222013474,-0.1545257717370987
1761475654090654700,10.42165478515625,0.3293267786502838,-0.10163046419620514,-0.13745948672294617
1761475654100631600,10.431631591796876,0.2562653422355652,-0.20152084529399872,-0.10489940643310547
1761475654110608600,10.441608642578124,0.19775539636611938,-0.20899079740047455,-0.058965686708688736
1761475654120585500,10.45158544921875,0.17276589572429657,-0.11575193703174591,0.01044534519314766
1761475654130563600,10.4615634765625,0.16890566051006317,0.08607082813978195,0.07279098033905029
1761475654140540700,10.471540771484374,0.23578642308712006,0.3052859902381897,0.1470353901386261
1761475654150517500,10.481517578125,0.32219380140304565,0.44352710247039795,0.18380653858184814
1761475654160494600,10.49149462890625,0.37889593839645386,0.41310903429985046,0.15248750150203705
1761475654170471700,10.5014716796875,0.40526607632637024,0.28492170572280884,0.09598755091428757
1761475654180448500,10.511448486328124,0.44214898347854614,0.17711536586284637,0.06790238618850708
1761475654190425600,10.521425537109375,0.49761223793029785,0.12804245948791504,0.073715940117836
1761475654200402400,10.53140234375,0.5541008710861206,0.2012500911951065,0.12532854080200195
1761475654210379500,10.541379638671875,0.6098907589912415,0.35476744174957275,0.20090484619140625
1761475654220356400,10.5513564453125,0.6520419120788574,0.49498260021209717,0.275972455739975
1761475654230333400,10.56133349609375,0.6664242148399353,0.5404241681098938,0.32964572310447693
1761475654240310800,10.571310791015625,0.6476041674613953,0.47813814878463745,0.34770193696022034
1761475654250288400,10.581288330078126,0.5904234051704407,0.3673948645591736,0.3182126581668854
1761475654260265500,10.591265380859374,0.5251189470291138,0.19334930181503296,0.2511846423149109
1761475654270242600,10.60124267578125,0.4586186110973358,-0.034216806292533875,0.16637003421783447
1761475654280219600,10.6112197265625,0.3836064338684082,-0.22727654874324799,0.08852850645780563
1761475654290196700,10.62119677734375,0.33812999725341797,-0.3881937563419342,0.04280876740813255
1761475654300173600,10.631173583984374,0.2772440016269684,-0.5277260541915894,0.004074950702488422
1761475654310150700,10.641150634765625,0.21000538766384125,-0.6184945702552795,-0.036637719720602036
1761475654320127500,10.65112744140625,0.1448567509651184,-0.7003654837608337,-0.07118424773216248
1761475654330104600,10.6611044921875,0.0887032151222229,-0.7131298780441284,-0.06987985223531723
1761475654340081400,10.671081298828126,0.05493486672639847,-0.5723221302032471,-0.03719593957066536
1761475654350058500,10.68105859375,0.06193927302956581,-0.3649175465106964,0.019994493573904037
1761475654360036600,10.69103662109375,0.07803115993738174,-0.20119360089302063,0.05264831334352493
1761475654370013400,10.701013427734376,0.10609477013349533,-0.08640528470277786,0.041163764894008636
1761475654379990500,10.710990478515624,0.13252291083335876,0.04232313483953476,0.015765199437737465
1761475654389967400,10.72096728515625,0.17034919559955597,0.1675153523683548,-0.04011001065373421
1761475654399944400,10.7309443359375,0.2225881665945053,0.23989927768707275,-0.11419462412595749
1761475654409921500,10.740921630859376,0.3087235987186432,0.24388879537582397,-0.19161292910575867
1761475654419898600,10.750898681640624,0.3997515141963959,0.21245311200618744,-0.2558513283729553
1761475654429875700,10.760875732421875,0.4591732919216156,0.18127921223640442,-0.2956794202327728
1761475654439852500,10.7708525390625,0.47516265511512756,0.14990104734897614,-0.3290901184082031
1761475654449829600,10.78082958984375,0.44299498200416565,0.14138415455818176,-0.3422775864601135
1761475654459806500,10.790806396484374,0.3712869882583618,0.126418799161911,-0.34127622842788696
1761475654469784600,10.80078466796875,0.2876821458339691,0.11547244340181351,-0.3311794400215149
1761475654479761700,10.81076171875,0.22292551398277283,0.1299794763326645,-0.3027834892272949
1761475654489738500,10.820738525390626,0.17939238250255585,0.12914320826530457,-0.2811407148838043
1761475654499715600,10.830715576171874,0.16486164927482605,0.09181899577379227,-0.26976051926612854
1761475654509692700,10.840692626953125,0.19759638607501984,0.05117228627204895,-0.2510533034801483
1761475654519669500,10.85066943359375,0.24595192074775696,0.005655401851981878,-0.22536234557628632
1761475654529646600,10.860646484375,0.27862784266471863,-0.04700833931565285,-0.19880104064941406
1761475654539623400,10.87062353515625,0.2968992590904236,-0.07151581346988678,-0.17385973036289215
1761475654549600500,10.8806005859375,0.29766562581062317,-0.10362831503152847,-0.1677488535642624
1761475654559577300,10.890577392578125,0.28369149565696716,-0.10226797312498093,-0.17917726933956146
1761475654569554700,10.9005546875,0.25041961669921875,-0.08980246633291245,-0.1346755176782608
1761475654579531800,10.91053173828125,0.11459919065237045,-0.19750122725963593,0.12163028866052628
1761475654589509400,10.92050927734375,0.020389355719089508,-0.31812867522239685,0.26099804043769836
1761475654599486500,10.930486572265625,-0.03145866096019745,-0.3799414336681366,0.328198105096817
1761475654609463600,10.940463623046876,-0.028631072491407394,-0.43483951687812805,0.3436996638774872
1761475654619440600,10.950440673828124,-0.035001885145902634,-0.275994211435318,0.2928468585014343
1761475654629417700,10.960417724609375,-0.07026506960391998,-0.024623513221740723,0.19950836896896362
1761475654639394600,10.97039453125,-0.03635024279356003,0.32021909952163696,0.12553028762340546
1761475654649371600,10.98037158203125,0.0673561617732048,0.424571692943573,0.04237736761569977
