time,seconds_elapsed,z,y,x
1761475660949655600,0.069655517578125,-0.7890501905411481,0.09846125101298094,-0.43303873112536967
1761475660959632400,0.07963232421875,-0.6641887161195278,0.05175765976607799,-0.44671676253974435
1761475660969609500,0.089609375,-0.489776736587286,0.06431918130591512,-0.22401626065671443
1761475660979586300,0.09958642578125,-0.23066052097678183,0.04574366017356515,0.04190802753344178
1761475660989563400,0.1095634765625,-0.02042845552265644,0.023463147043436765,0.2755958604421466
1761475660999540500,0.11954052734375,0.15155425103604792,0.0305734174400568,0.41219424214772876
1761475661009517300,0.129517333984375,0.28282266989052296,0.05225289593711495,0.4733443649634719
1761475661019494700,0.13949462890625,0.19774609336853027,-0.016153262421488762,0.3854728239607066
1761475661029471500,0.149471435546875,0.10408347480893135,-0.03086187899261713,0.28348697901815173
1761475661039448600,0.159448486328125,0.11047346810698508,0.013735387624800205,0.2009714120905846
1761475661049425400,0.16942529296875,0.2197644484311342,-0.010290215606987476,0.25845073743909597
1761475661059402500,0.179402587890625,0.392063381332159,-0.030941227839142084,0.3650172612354159
1761475661069380600,0.189380615234375,0.3965969331085682,-0.07120017299130559,0.36507571342438455
1761475661079357400,0.199357421875,0.2844417955249548,-0.1234878479808569,0.22235782592520117
1761475661089334800,0.209334716796875,0.23704642262160777,-0.06254676480591297,0.15813991303667424
1761475661099311900,0.219311767578125,0.2524514970242977,-0.021178104846179484,0.11275449171625077
1761475661109289000,0.2292890625,0.32530747439861296,-0.06082052553519606,0.15782259071581065
1761475661119265800,0.239265869140625,0.4157113834232092,-0.10759688975736498,0.23135675961263477
1761475661129243000,0.249242919921875,0.4247323097467422,-0.13814590340852737,0.26627149419263
1761475661139219700,0.2592197265625,0.24453590159416197,-0.11960486906766891,0.20450755032747983
1761475661149196800,0.26919677734375,0.0783002142548561,-0.11018763690292835,0.11541947314180433
1761475661159173600,0.279173583984375,0.02756663683950901,-0.05423559418693184,0.07216068858653306
1761475661169150700,0.289150634765625,-0.047018940806388854,-0.060585547735542054,0.06315605581067502
1761475661179127800,0.2991279296875,-0.12678688952624798,-0.07096884845346212,0.031554610497131944
1761475661189105000,0.30910498046875,-0.15674246732890604,-0.06423223367482424,-0.03803330499194562
1761475661199082000,0.31908203125,-0.10064005635678767,-0.05630392489358783,-0.07248977441042662
1761475661209059800,0.329059814453125,-0.0410346056997776,-0.09780293323472142,-0.05744885714501142
1761475661219037000,0.339036865234375,-0.00730067840218544,-0.17168430813401936,-0.08901281999237835
1761475661229014000,0.349013916015625,0.06520692392587661,-0.16192717649042607,-0.0873261820796877
1761475661238990800,0.358990966796875,0.11620587427914142,-0.17549217598438263,-0.08767156145125626
1761475661248968000,0.368968017578125,0.12917933762073516,-0.2213778749771416,0.001613645741716027
1761475661258944800,0.37894482421875,0.10248130030930042,-0.23678572585880756,0.07967311004325747
1761475661268921900,0.388921875,0.0627063392817974,-0.24221476517021653,0.10984284205324947
1761475661278899000,0.39889892578125,0.0294797769844532,-0.2428551089003682,0.042600320646539326
1761475661288875800,0.408875732421875,0.05600479581654071,-0.2055335323743522,-0.01322356564514339
1761475661298852900,0.418852783203125,0.03485737836956978,-0.25608999965712426,0.01627732719257474
1761475661308829700,0.42882958984375,-0.035386370679736136,-0.30667905403524637,0.06807173877246678
1761475661318806800,0.438806884765625,-0.062567223072052,-0.2340121694922447,0.055503056839480994
1761475661328784000,0.448783935546875,-0.12813830413520336,-0.16879063251912593,0.06089834001176059
1761475661338761700,0.45876171875,-0.19615794739425182,-0.15446195517629385,0.12774404412060975
1761475661348738800,0.46873876953125,-0.2658668589144945,-0.14425342650339007,0.20571013105027378
1761475661358715600,0.478715576171875,-0.17710837900936602,-0.1490292626030743,0.2123459158029407
1761475661368693000,0.48869287109375,-0.03181318836808204,-0.19219532737359404,0.23131628147177397
1761475661378669800,0.498669921875,0.09019581923186779,-0.21563333997577427,0.22055406443886458
1761475661388647000,0.50864697265625,0.10300620096623897,-0.30693229814395306,0.20731668946407733
1761475661398624000,0.5186240234375,0.12155541861355304,-0.3560222000055015,0.14733246862255037
1761475661408600800,0.528600830078125,0.19442250190377233,-0.3107143009006977,0.08686660174392163
1761475661418578000,0.538577880859375,0.2474111647695303,-0.2901506746910512,0.09123312639035284
1761475661428554800,0.5485546875,0.272494168099761,-0.2781149305909872,0.1601113592401147
1761475661438531800,0.55853173828125,0.30027473995089526,-0.27045389444380996,0.17914646070823073
1761475661448508700,0.5685087890625,0.3136369103491306,-0.24548706483915447,0.11264686662331223
1761475661458485800,0.57848583984375,0.3267389685064554,-0.27411007886379957,0.06290200798436998
1761475661468462800,0.588462890625,0.35419045453369613,-0.31385581379681826,0.014989844665303825
1761475661478440700,0.598440673828125,0.39813071854710574,-0.31282164844349025,-0.012226444366574286
1761475661488417800,0.608417724609375,0.398186248126626,-0.3242486129954457,0.05375972030349076
1761475661498394600,0.61839453125,0.3959124579757452,-0.36402094367444515,0.17747984267026184
1761475661508371700,0.628371826171875,0.3884562967509031,-0.39486777122840283,0.28465901847220954
1761475661518349000,0.63834912109375,0.4175573035508394,-0.36115985515490173,0.32051958253495394
1761475661528326000,0.648325927734375,0.4380342743903398,-0.38952860215753315,0.33536022798791526
1761475661538303000,0.658302978515625,0.3936941974043846,-0.45402606263980266,0.30556919309720393
1761475661548279800,0.66827978515625,0.32824703498184676,-0.5033450970821083,0.25870200878642496
1761475661558257000,0.6782568359375,0.3089151425242424,-0.5260474888861179,0.27769736276604234
1761475661568233700,0.688233642578125,0.2860053915798664,-0.500000608959794,0.3128246441181749
1761475661578210800,0.6982109375,0.2296896301180124,-0.4274412764444947,0.3427221350580454
1761475661588188000,0.70818798828125,0.09537000699937342,-0.36261940631344913,0.3037095367051661
1761475661598164700,0.718164794921875,-0.04466974733173847,-0.2909805496439338,0.26642960736379023
1761475661608142800,0.728142822265625,-0.16270108347237108,-0.1900327425122261,0.26541239314526316
1761475661618120000,0.738119873046875,-0.15180676449239253,-0.09539514144062995,0.298308189118281
1761475661628096800,0.7480966796875,-0.09425240114629269,-0.10730579785630107,0.37105361879020926
1761475661638073900,0.758073974609375,0.0407908600717783,-0.1367776837952435,0.4843748775437474
1761475661648050700,0.76805078125,0.2126630919933319,-0.24523498977422714,0.5544665047712624
1761475661658027800,0.77802783203125,0.28976036019921303,-0.37903774941191076,0.5738877560127527
1761475661668004900,0.7880048828125,0.28200784637629983,-0.510633062133193,0.5583511641848832
1761475661677982000,0.79798193359375,0.2568529468536377,-0.6201311093367636,0.5187418420478701
1761475661687959000,0.807958984375,0.22183657853007316,-0.7325153795011341,0.46706784197725354
1761475661697936000,0.817935791015625,0.12611585839688777,-0.8304580134674906,0.4722162377163768
1761475661707913000,0.827912841796875,0.02898702503144741,-0.925541020219028,0.4527956440620124
1761475661717889800,0.837889892578125,-0.039516017830371855,-0.960062298502028,0.42162729293610895
1761475661727867000,0.847866943359375,-0.09338789327144623,-0.9444498649589717,0.358491695391573
1761475661737845000,0.857844970703125,-0.12690087129473684,-0.9174744720108806,0.2929444335954264
1761475661747821800,0.86782177734375,-0.07664134113192558,-0.8981003478467464,0.31690840630047024
1761475661757799000,0.877798828125,-0.012526304095983504,-0.8738584715157747,0.355285921620205
1761475661767775700,0.887775634765625,0.08924597116112709,-0.8661768309719861,0.4306337523428723
1761475661777752800,0.8977529296875,0.08099602921009064,-0.8631504688881337,0.48053727214224634
1761475661787729700,0.907729736328125,0.04056172749102115,-0.8819286729857325,0.48757623086832463
1761475661797706800,0.917706787109375,-0.015693828216195107,-0.9525146596014499,0.5124292979001999
1761475661807683800,0.927683837890625,-0.05789981578290462,-1.0051751134261488,0.5018951905347406
1761475661817661000,0.937660888671875,-0.051180736660957335,-1.044296140589565,0.46008433976545926
1761475661827638000,0.947637939453125,-0.029477438896894453,-1.1223565547391772,0.3925493382181972
1761475661837614800,0.95761474609375,-0.011125789648294448,-1.1746712638661265,0.3842829200563952
1761475661847592000,0.967592041015625,0.05953589255213737,-1.1912018351674079,0.39202655645310874
1761475661857568800,0.97756884765625,0.11993804654479026,-1.1570520205453036,0.3809316003344953
1761475661867547000,0.987546875,0.1583218454748392,-1.188692409629747,0.42662955820281057
1761475661877524000,0.99752392578125,0.1707920354694128,-1.2096576754428445,0.40712957916930315
1761475661887500800,1.007500732421875,0.14819266564846037,-1.1914665505181998,0.3414525900462642
1761475661897478000,1.017477783203125,0.08440262278318404,-1.1710603798925876,0.3277604570413008
1761475661907454700,1.027454833984375,0.05052081144750118,-1.15438280133605,0.3260677912466228
1761475661917431800,1.037431884765625,0.08536065416038036,-1.1388529315099118,0.3745863594936207
1761475661927409000,1.047408935546875,0.17852935172319412,-1.1055109261393545,0.4333529116410762
1761475661937385700,1.0573857421875,0.19342764564752576,-1.1668214271485804,0.4489213599119335
1761475661947362800,1.06736279296875,0.16464403423368928,-1.1885663720972834,0.323312281993404
1761475661957339600,1.077339599609375,0.1783773760318756,-1.193351706677675,0.17113452876415103
1761475661967317000,1.08731689453125,0.192837863060832,-1.2411144515886903,0.08034078017175197
1761475661977293800,1.0972939453125,0.1377653796583414,-1.2588904929064213,0.025693646041862667
1761475661987271000,1.10727099609375,0.05475742610394954,-1.2254720612987875,-0.010984043090045451
1761475661997248000,1.117248046875,-0.05175707524418831,-1.1648238235905766,-0.0688347590342164
1761475662007225900,1.127225830078125,-0.21203882261514662,-1.0729682544529437,-0.12478566923905163
1761475662017203000,1.137202880859375,-0.3782973063081503,-0.9790309106051921,-0.18431158838644623
1761475662027180000,1.147179931640625,-0.5263093546926975,-0.9124749101579189,-0.18006806906517595
1761475662037156900,1.157156982421875,-0.6666875471979379,-0.9086329939074814,-0.08516089380457997
1761475662047134000,1.167134033203125,-0.7371773799628019,-1.140719602164626,0.22514734704587608
1761475662057110800,1.17711083984375,-0.6480711095333099,-1.4762395507588981,0.6770053814642131
1761475662067088000,1.187087890625,-0.5686491977721453,-1.5941542747825383,0.8214839950256049
1761475662077064700,1.197064697265625,-0.3560398817926645,-1.5993148724161088,0.5543214702773839
1761475662087041800,1.207041748046875,-0.2479378189921379,-1.477208834182471,0.15031637980416415
1761475662097018600,1.2170185546875,-0.21152619691789148,-1.3430585762813687,-0.3765785196915269
1761475662106995500,1.226995361328125,-0.4111784161686897,-1.2533426495209337,-0.603128098218143
1761475662116972800,1.236972900390625,-0.5964671790242195,-0.9871991656221448,-0.9009013767421246
1761475662126950000,1.246949951171875,-0.6888222221165895,-0.5246444902203977,-0.9868985752403735
1761475662136927500,1.256927490234375,-0.895497471871972,-0.263037626837939,-0.7545080156005919
1761475662146904800,1.26690478515625,-1.0968477272123098,-0.04921382050216198,-0.40192181792575865
1761475662156881700,1.276881591796875,-1.079282844427228,0.30859993909522887,-0.32915191139969974
1761475662166858800,1.286858642578125,-0.9449877712279557,0.6212357095777988,-0.2495048491131514
1761475662176835800,1.2968359375,-0.6386392643213272,0.8643601369388401,-0.2620909388386644
1761475662186812700,1.306812744140625,-0.28780571900010105,0.7959538324497639,-0.074060220331233
1761475662196789800,1.316789794921875,0.025374679753184318,0.5195318233817815,0.16520853624865411
1761475662206766600,1.3267666015625,0.44920857935547825,0.38348040803447364,0.14008278975524008
1761475662216743700,1.33674365234375,0.8204431076705455,0.29117168830186124,0.06973985464777797
1761475662226720500,1.346720458984375,0.9737006554931401,0.2226376657798886,0.0236915489718318
1761475662236697600,1.356697509765625,1.1119172860503197,0.23578268629610538,-0.11910908490736037
1761475662246674700,1.3666748046875,1.1609463976353407,0.29012539411932226,-0.3111378600750118
1761475662256651500,1.376651611328125,1.0143272649139166,0.35429976012706754,-0.45136685336790977
1761475662266628900,1.38662890625,0.7393944714903831,0.376799322835356,-0.5836923069946468
1761475662276606500,1.3966064453125,0.46710780866146084,0.3421395128645003,-0.708916915640235
1761475662286583600,1.40658349609375,0.32218671202957627,0.3693162736035883,-0.9060620474409311
1761475662296560600,1.416560546875,0.3234627233147621,0.4310360860660672,-1.0854206165298819
1761475662306537700,1.426537841796875,0.38581016615629193,0.4846453650481999,-1.1612662772394715
1761475662316514800,1.436514892578125,0.5529857646942138,0.4886662911273539,-1.168107375305891
1761475662326491600,1.44649169921875,0.7294611064970493,0.4491548033416271,-1.0586439610242844
1761475662336468700,1.45646875,0.8666758665353059,0.38021351519301533,-0.9026185559235512
1761475662346445600,1.466445556640625,0.9797533796608447,0.3224319189622998,-0.7634694668218494
1761475662356422700,1.476422607421875,1.0200661008268594,0.2845101845860481,-0.6505087119437754
1761475662366399700,1.486399658203125,1.0326473499804734,0.26937004472985865,-0.5810562594026327
1761475662376376600,1.49637646484375,0.9712725515633821,0.22869228964373467,-0.5797409755529835
1761475662386353700,1.506353759765625,0.7961895409017801,0.15854045666158198,-0.5565952604282647
1761475662396330500,1.51633056640625,0.6190379072725772,0.09911737683415413,-0.453335450027138
1761475662406308600,1.52630859375,0.5140671282351017,0.08788535033240914,-0.38146468429788943
1761475662416285700,1.53628564453125,0.4399135122656822,0.1348638129979372,-0.3312520620167255
1761475662426262500,1.546262451171875,0.29555297212600706,0.14748378672674298,-0.28977274475675074
1761475662436239600,1.556239501953125,0.09843582431077956,0.1267668696515262,-0.187148200051859
1761475662446216700,1.566216796875,-0.040075405278801914,0.13882467945292593,-0.13504768166486172
1761475662456193800,1.57619384765625,-0.1140238540649414,0.14182722226977348,-0.12952110026311128
1761475662466171000,1.5861708984375,-0.17671031960248945,0.11515256583392619,-0.06584580635130405
1761475662476147700,1.596147705078125,-0.1744043807476759,0.05485051121488213,-0.021533421089872717
1761475662486124800,1.606124755859375,-0.22095278143286703,-0.06372209219560027,-0.011048523161001503
1761475662496101600,1.6161015625,-0.21021628336310386,-0.17605828543454408,-0.014674495105817913
1761475662506078700,1.62607861328125,-0.13595394632220267,-0.26907179243564605,-0.05757606372125446
1761475662516055600,1.6360556640625,-0.036598669078946114,-0.4167978634856641,-0.13102021624706683
1761475662526032600,1.64603271484375,0.0695341394752264,-0.573311198233813,-0.19109547637291252
1761475662536010800,1.6560107421875,0.16692016247212885,-0.7252649699814617,-0.18093970080055297
1761475662545987600,1.665987548828125,0.26431787590682504,-0.8391236966125667,-0.11513831811286508
1761475662555964700,1.675964599609375,0.3528466387093067,-0.9024902533687651,-0.09218600666839628
1761475662565941500,1.68594140625,0.4259685735434294,-0.969721230468154,-0.08567633251342922
1761475662575918600,1.695918701171875,0.48778234789967534,-1.0699443765871226,-0.06586710486765951
1761475662585895700,1.705895751953125,0.5006213712066412,-1.1642525995738804,-0.07138806024622171
1761475662595872800,1.715872802734375,0.4837579146891832,-1.2363579047113655,-0.09936492185443639
1761475662605849900,1.725849853515625,0.35741117014586926,-1.2850418561205268,-0.10282989455126225
1761475662615826700,1.73582666015625,0.18907237304747104,-1.2313351081132888,-0.09668262396790087
1761475662625803800,1.7458037109375,-0.022618659043312072,-1.1793497770711778,-0.05033785609602928
1761475662635780600,1.755780517578125,-0.21119594205021858,-1.1292660418666898,-0.04001140013188124
1761475662645757700,1.7657578125,-0.39112989987432956,-1.093388672799617,-0.068891457657516
1761475662655734800,1.77573486328125,-0.46329906402826304,-1.0564088954485953,-0.10864924835450947
1761475662665711600,1.785711669921875,-0.49077626901865,-1.1121847048148512,-0.13488032574132083
1761475662675689700,1.795689697265625,-0.5545177965670823,-1.1603405406966805,-0.1346168524995446
1761475662685666600,1.80566650390625,-0.7017161904811858,-1.1711626712232828,-0.14867394635938108
1761475662695643600,1.8156435546875,-0.8075789499223232,-1.1222111549191176,-0.14957359861284494
1761475662705620700,1.825620849609375,-0.8750696008712053,-1.0926008834227918,-0.15552110884040593
1761475662715597600,1.83559765625,-0.898684869736433,-1.1134620312742889,-0.15262633724696933
1761475662725574700,1.84557470703125,-0.9001333149790763,-1.137451394148916,-0.16749803542532027
1761475662735551500,1.855551513671875,-0.8658236336201429,-1.21650578777194,-0.1107840684261173
1761475662745528600,1.865528564453125,-0.8203168509423733,-1.325335726455599,0.023255422576889395
1761475662755505700,1.875505615234375,-0.7002133847028017,-1.459851456668228,0.11853380577005446
1761475662765482800,1.885482666015625,-0.574246579387784,-1.463662100997567,0.0701356855649501
1761475662775459800,1.8954599609375,-0.4820429274648428,-1.3402638309963046,-0.06431465126127005
1761475662785436700,1.905436767578125,-0.5343097057968378,-1.1961850304074584,-0.17979392829891294
1761475662795413800,1.915413818359375,-0.68757192979455,-1.093991314867884,-0.17329112227614968
1761475662805392000,1.925391845703125,-0.901709770515561,-0.9054051179021596,-0.20862916030213235
1761475662815368700,1.93536865234375,-1.1255635340869425,-0.6711505179561674,-0.3151780023112893
1761475662825345800,1.945345703125,-1.295295246848464,-0.3674102938517928,-0.3361145900191739
1761475662835322600,1.955322509765625,-1.3206775253862142,-0.07656301519870758,-0.2938844909245148
1761475662845299700,1.9652998046875,-1.2406588167756796,0.12904270562902093,-0.07736417551375925
1761475662855276500,1.975276611328125,-1.0200830519616604,0.3034694443389773,0.1775165214188397
1761475662865253600,1.985253662109375,-0.6859358530253171,0.41668081297725434,0.3493186837788671
1761475662875230700,1.995230712890625,-0.3211626296788454,0.4411347246237099,0.47938642160668965
1761475662885207600,2.00520751953125,0.043696518385410305,0.445234707288444,0.6274860021442175
1761475662895184600,2.0151845703125,0.27559973289966583,0.46728477266356344,0.7917395757555961
1761475662905161700,2.02516162109375,0.41544484144151206,0.5153922393590211,0.8998484336230903
1761475662915138800,2.035138916015625,0.490032172653079,0.5860116898529231,0.9151073044881224
1761475662925115600,2.04511572265625,0.5537047266185283,0.6062142276652157,0.899922156446427
1761475662935092700,2.0550927734375,0.6407499728649855,0.5506986766703427,0.8515181910224259
1761475662945069800,2.06506982421875,0.7950356946915388,0.48925665823593734,0.7215086861878633
1761475662955047700,2.075047607421875,0.9208592921435832,0.46643253974840043,0.6033673503341153
1761475662965024800,2.085024658203125,1.0277870504677296,0.42964974627420305,0.5766207611732185
1761475662975001600,2.095001708984375,1.089439496782422,0.4192313742429018,0.6133171915382146
1761475662984978700,2.104978759765625,1.0669815812587737,0.46331250803172586,0.6820662450503557
1761475662994955800,2.114955810546875,1.047698788639903,0.538602434554696,0.7691158752109855
1761475663004932600,2.1249326171875,0.9802718505769967,0.6058823653623462,0.8074623378053307
1761475663014909700,2.13490966796875,0.9387690428435802,0.6930434930734336,0.8209703464150429
1761475663024886500,2.144886474609375,0.87278528932631,0.7212243162885308,0.8235453845348208
1761475663034863600,2.154863525390625,0.8702437881499528,0.7438293851979076,0.769941585445404
1761475663044840400,2.16484033203125,0.8425596624106169,0.7780736001051962,0.6539893936663865
1761475663054817800,2.17481787109375,0.791404060190916,0.7689210102260112,0.6077199560530483
1761475663064795000,2.184794921875,0.6389625049263239,0.7723179591879248,0.5649632027357816
1761475663074771700,2.194771728515625,0.514596120545268,0.7914259797617793,0.5768529990265145
1761475663084749800,2.204749755859375,0.48200317997634406,0.8735735170945524,0.573489331279695
1761475663094726400,2.214726318359375,0.4592886593431234,0.9134396635368466,0.6081536347625777
1761475663104703200,2.224703125,0.41518765181004996,0.8546874687083065,0.6753511845164001
1761475663114680300,2.234680419921875,0.4216173925966024,0.8572440213233232,0.6910873905695974
1761475663124657400,2.244657470703125,0.5090753112971782,0.8228302950680255,0.6801613612771034
1761475663134634200,2.25463427734375,0.6128513275921345,0.7479812441803515,0.699935882935673
1761475663144611300,2.264611328125,0.7203443185836076,0.6050520520180463,0.728742217637971
1761475663154588200,2.274588134765625,0.7921271137684583,0.4771203763708472,0.6621290801759809
1761475663164565200,2.284565185546875,0.8051110985040664,0.29730872975215317,0.6242034002769739
1761475663174542000,2.2945419921875,0.7906091104209423,0.11753624610006809,0.6521082560949027
1761475663184519200,2.304519287109375,0.786079650297761,-0.0267848388120532,0.6501075107317418
1761475663194496500,2.31449658203125,0.8000386175453662,-0.17598858119919894,0.6806517751425504
1761475663204473300,2.324473388671875,0.7995815214276313,-0.3375283658072352,0.7717954696837812
1761475663214450400,2.334450439453125,0.792256293106079,-0.4865900693751871,0.8062432443391532
1761475663224428300,2.34442822265625,0.6599222908467054,-0.6217879366330802,0.71524151555188
1761475663234405400,2.3544052734375,0.359244815313816,-0.7521506388194859,0.5317145016718655
1761475663244382500,2.364382568359375,-0.002789338457584381,-0.8431418462127447,0.23445260673612356
1761475663254359300,2.374359375,-0.3001432225257158,-0.900513400337845,-0.05144442909844219
1761475663264336400,2.38433642578125,-0.5349643703132867,-0.9714192665576934,-0.1912295510813594
1761475663274313200,2.394313232421875,-0.6689993312716483,-1.0417153303161262,-0.3280905292458832
1761475663284290300,2.404290283203125,-0.6743383542120456,-1.0342520086981355,-0.5182333080038428
1761475663294267400,2.414267333984375,-0.6244792215436696,-1.0727212939545512,-0.6657347034525126
1761475663304244200,2.424244140625,-0.5464163231760263,-1.1801527640171348,-0.6451993534892797
1761475663314221300,2.43422119140625,-0.47681554820537564,-1.3090018467701972,-0.5080165229592472
1761475663324198100,2.4441982421875,-0.3725847738802433,-1.3413658008888363,-0.3771148915905505
1761475663334175200,2.45417529296875,-0.3466659042477607,-1.318556441579014,-0.2392076923087239
1761475663344152300,2.46415234375,-0.432032403627038,-1.2879594971328974,-0.16534915029574185
1761475663354130200,2.474130126953125,-0.5923878007560968,-1.2667264472290873,-0.08189878673609345
1761475663364107300,2.484107177734375,-0.8319190259307623,-1.2067260059051215,-0.05146821183282882
1761475663374084400,2.49408447265625,-1.0790385142773389,-1.118618683385104,-0.06648457917887717
1761475663384061400,2.5040615234375,-1.2365180637091397,-1.0623748181156814,-0.0049036271978169675
1761475663394038300,2.514038330078125,-1.2287439225763082,-1.2001210546821355,0.265812973302789
1761475663404015400,2.524015380859375,-1.075517354413867,-1.3790049189314246,0.4797647168671712
1761475663413992400,2.533992431640625,-0.8229518756210803,-1.303664577395469,0.36891404947824774
1761475663423969300,2.54396923828125,-0.6784007813453674,-1.0019497216388582,-0.05944434181116521
1761475663433946400,2.5539462890625,-0.8814666084319353,-0.8188704515263437,-0.34240967157538976
1761475663443923200,2.563923095703125,-1.2350140888869763,-0.54223173096776,-0.47510238761194046
1761475663453900300,2.573900390625,-1.4376315876841543,0.006130027187615633,-0.598846913767606
1761475663463877000,2.583877197265625,-1.7250871780723331,0.5974978372462093,-0.5621021142162382
1761475663473854200,2.593854248046875,-2.0118536171525716,1.0480454101204872,-0.3988815003817901
1761475663483831300,2.603831298828125,-2.0672481721162796,1.484054316163063,-0.3760447050757706
1761475663493809200,2.61380908203125,-1.7920125963538884,1.8489089341826737,-0.39072347449790684
1761475663503786200,2.6237861328125,-1.3946733204454183,1.9726323444850742,-0.18362667486220596
1761475663513763000,2.63376318359375,-0.8700427126199006,1.846169426216185,0.11880772734060883
1761475663523740400,2.643740478515625,-0.2948351792454719,1.5041833503477275,0.4147192305807024
1761475663533717500,2.653717529296875,0.3866314194113016,1.236908378200978,0.4606344844615087
1761475663543694300,2.6636943359375,0.9991823027521372,0.9747261991485953,0.42899204955045134
1761475663553671400,2.67367138671875,1.3123323063671588,0.6064074121497571,0.6198444744151085
1761475663563648300,2.683648193359375,1.398963126593828,0.3177351394481957,0.7483665902361273
1761475663573625300,2.693625244140625,1.387590668708086,0.16287512486502528,0.5194895551426336
1761475663583602200,2.703602294921875,1.3012304821163416,0.19036197446659206,0.1248651276834309
1761475663593579300,2.713579345703125,1.2660066085219384,0.1666024748250842,-0.23831826918832957
1761475663603556400,2.723556396484375,1.1800164242863656,0.1477019595220685,-0.4215883126325905
1761475663613533200,2.733533203125,1.162016072693467,0.3193311764679849,-0.535526607305929
1761475663623510300,2.74351025390625,1.0889069973409176,0.4493944573163986,-0.6359662457197904
1761475663633488400,2.75348828125,0.9813760124266147,0.46701472355052825,-0.5036916454974562
1761475663643465200,2.76346533203125,0.8683867621064185,0.5855138233333825,-0.2514604401603341
1761475663653442300,2.7734423828125,0.8091244257986545,0.781849757643044,-0.10432663591504096
1761475663663419100,2.783419189453125,0.724700175705552,0.9532090716063976,0.07724263149332254
1761475663673396200,2.793396240234375,0.571900308522582,1.0635479535482824,0.16760087474528698
1761475663683373300,2.803373291015625,0.4146288488835096,1.0805347441844642,0.1704437700210139
1761475663693350400,2.813350341796875,0.35020693785548207,1.00043098763898,0.06937829132638872
1761475663703327500,2.823327392578125,0.31022447155714034,0.8708432153478264,-0.073658197135292
1761475663713304300,2.83330419921875,0.23959435353875158,0.6871963744804263,-0.19239647596888243
1761475663723281400,2.843281494140625,0.2129629517227411,0.5257067126244306,-0.3195637431148439
1761475663733258200,2.85325830078125,0.22052958758473395,0.3868548529036343,-0.5207821157038212
1761475663743235300,2.8632353515625,0.2700958747863769,0.18992431370168925,-0.5940622367743402
1761475663753212200,2.873212158203125,0.34129356355965135,-0.03187529381886124,-0.57135619170852
1761475663763189200,2.883189208984375,0.4320750737249851,-0.18388912519067524,-0.5074002176918089
1761475663773166300,2.893166259765625,0.5727706616163254,-0.3523119473107159,-0.3919199542734772
1761475663783144200,2.903144287109375,0.7113403433948755,-0.5120120954014361,-0.35684951767511663
1761475663793121300,2.913121337890625,0.7761936315774917,-0.6723074329063295,-0.35645255424678324
1761475663803098000,2.92309814453125,0.745748808953166,-0.7935271898247301,-0.3419138874150812
1761475663813075200,2.9330751953125,0.7078782202422619,-0.8871902467757463,-0.30303529070541263
1761475663823052300,2.94305224609375,0.6368202322006226,-0.9438480996735393,-0.2624637724727392
1761475663833029400,2.953029296875,0.5025707517087459,-0.9582461889907717,-0.24783771961852907
1761475663843006500,2.96300634765625,0.38639819517731666,-0.9795495276518166,-0.22563991633579134
1761475663852983300,2.9729833984375,0.26669863356351853,-1.0211496582798658,-0.1857728931106627
1761475663862960400,2.98296044921875,0.10966741242110728,-1.0249195322073996,-0.15427154717072844
1761475663872937200,2.992937255859375,-0.05184592257142066,-0.9597136311948299,-0.18604389207176864
1761475663882914300,3.002914306640625,-0.1944248399913311,-0.8692316884979605,-0.18151932731941342
1761475663892891400,3.012891357421875,-0.3161363259494305,-0.8363666529893875,-0.0883819016776979
1761475663902868200,3.0228681640625,-0.4222720571130514,-0.8359066342622041,0.11453640669696033
1761475663912845300,3.03284521484375,-0.5023135620772838,-0.8692347572378814,0.2900828701518476
1761475663922823200,3.0428232421875,-0.5193225645452737,-0.915472776799649,0.373367594821006
1761475663932800300,3.05280029296875,-0.49451019484996794,-1.0208185266293586,0.4127254994802177
1761475663942777300,3.06277734375,-0.5194400534451008,-1.1820599128127098,0.3622756343770772
1761475663952754200,3.072754150390625,-0.6622761604964733,-1.2828097131542862,0.2983397533003241
1761475663962731300,3.082731201171875,-0.8781985465466976,-1.3339597624160349,0.22825711309686303
1761475663972708400,3.092708251953125,-1.1201707351326942,-1.2473748271577059,0.16643873563073575
1761475663982685400,3.102685546875,-1.3055144430458545,-1.0783701134964823,0.0986992975525558
1761475663992662300,3.112662353515625,-1.4341110123425722,-0.9449215741239487,0.13244316172227263
1761475664002639400,3.122639404296875,-1.4268307922065258,-0.8741048474922776,0.18077092010490595
1761475664012616400,3.132616455078125,-1.3829600862979887,-0.8335137477762997,0.35157866460010406
1761475664022593300,3.14259326171875,-1.2264619491189717,-0.8194038277506828,0.4058290910299867
1761475664032570400,3.1525703125,-0.9270622384369372,-0.8489403033584356,0.3810662595648318
1761475664042547200,3.162547119140625,-0.6123509768545627,-0.8550146548360585,0.42215149947330355
1761475664052524300,3.172524169921875,-0.30457389844954014,-0.8313944175347685,0.5535269588988274
1761475664062501000,3.182501220703125,-0.10391747059226035,-0.827059310939908,0.7141674565795808
1761475664072479200,3.192479248046875,-0.012814473387598991,-0.7114832589969039,0.746022949719429
1761475664082456300,3.202456298828125,0.0041559506356716154,-0.48809302128404375,0.6716061527691781
1761475664092433700,3.21243359375,-0.04921148241460323,-0.209902687369287,0.6535439149212092
1761475664102410800,3.22241064453125,-0.1725169595658779,0.1383370420664549,0.647587709930539
1761475664112387800,3.232387939453125,-0.4183493307113647,0.5091144742637872,0.6619296851463615
1761475664122364700,3.24236474609375,-0.7339034728586673,0.8096148396641015,0.7574780443873256
1761475664132341800,3.252341796875,-0.9344254606813192,1.0882625619575381,0.8129159270361065
1761475664142318800,3.26231884765625,-0.9030915802627801,1.2382251598879694,0.8174732980795204
1761475664152296000,3.2722958984375,-0.7289835521131753,1.3269094055131077,0.8362168692551553
1761475664162272800,3.282272705078125,-0.3973053736388683,1.167070141212642,0.7847001786381006
1761475664172249900,3.292249755859375,-0.04093056080341339,0.9152496355682611,0.7123668368984013
1761475664182227000,3.30222705078125,0.39791619901359077,0.7766586187407374,0.5316378562390804
1761475664192203800,3.312203857421875,0.7223486441433429,0.7136021508470177,0.4095893203463405
1761475664202180900,3.322180908203125,0.9084171591997146,0.5870590069487691,0.4154205837830901
1761475664212159000,3.332158935546875,0.9493623330503702,0.532392181737721,0.4769022401081398
1761475664222135800,3.3421357421875,0.8462298753559588,0.6685875356003642,0.4352758425276726
1761475664232113000,3.35211279296875,0.6819558434784412,0.8437395198449492,0.39307540791891515
1761475664242089700,3.36208984375,0.5460317077726126,1.046134023541212,0.25429895152188836
1761475664252066800,3.37206689453125,0.4283762192070484,1.1999722938612103,0.09714607676118611
1761475664262043600,3.382043701171875,0.3575140459984541,1.3218290335088967,0.005742123848572373
1761475664272020700,3.392020751953125,0.3088140202373266,1.326421914257109,-0.017924546410329638
1761475664281997800,3.401997802734375,0.2940864067047834,1.2809008107930422,0.049435902287624775
1761475664291974700,3.411974609375,0.4106242894172668,1.2459721207529306,0.17567403535731135
1761475664301952000,3.421951904296875,0.6478823089629411,1.2212915607437491,0.22015954869594423
1761475664311928800,3.4319287109375,0.9495540562301874,1.193001285804808,0.25719134849514813
1761475664321906000,3.441906005859375,1.1851041028141975,1.0891957511544228,0.35902861527986824
1761475664331882800,3.4518828125,1.2565467062592506,0.89808427349478,0.47495581874810155
1761475664341859800,3.46185986328125,1.2904898923933505,0.7497799641653895,0.5872237325238063
1761475664351837000,3.4718369140625,1.2757745538204908,0.6417050816327333,0.624283552841097
1761475664361814800,3.481814697265625,1.2246341491699217,0.49865766991823907,0.6242739082299172
1761475664371792000,3.4917919921875,1.1831611520528793,0.3347770212724805,0.5691905015746132
1761475664381768700,3.501768798828125,1.1009528244435787,0.15503829375952483,0.42693402104210104
1761475664391745800,3.511745849609375,1.0259744480878115,0.01227817455381155,0.2392365896096453
1761475664401723000,3.521722900390625,0.9540718259155749,-0.10129588991701602,0.10475878025460987
1761475664411699700,3.53169970703125,0.8745803560495377,-0.19326164143085478,0.09518803802859037
1761475664421676800,3.5416767578125,0.7700251720756291,-0.28919892692416904,0.14160956093110144
1761475664431653600,3.551653564453125,0.6645955433547497,-0.3437221058808267,0.20816223691012709
1761475664441630700,3.561630615234375,0.5509861153095961,-0.3650467795908451,0.2520493459641933
1761475664451607800,3.57160791015625,0.46625791383385656,-0.4275602266490459,0.32598869812842457
1761475664461585000,3.5815849609375,0.43948798032999037,-0.5251157609939575,0.36891291696708645
1761475664471562000,3.59156201171875,0.38497722246348853,-0.5994662147097289,0.3316822701275349
1761475664481538800,3.601538818359375,0.1848299131721258,-0.7113675236627459,0.25774985916074367
1761475664491516000,3.611515869140625,-0.08551029176414013,-0.7749684736967086,0.18782339589968322
1761475664501492700,3.62149267578125,-0.36615386404991146,-0.810753488305211,0.1290249873092398
1761475664511469800,3.6314697265625,-0.5932710133314132,-0.7972440183907746,0.06289755100496112
1761475664521448000,3.641447998046875,-0.7919552643328904,-0.796244632089883,0.06772234081290662
1761475664531424800,3.6514248046875,-0.9100883072823286,-0.7224819151341915,0.11203958491254597
1761475664541401900,3.66140185546875,-1.0071060814887285,-0.668883449807018,0.19391426012068985
1761475664551378700,3.671378662109375,-1.0731570550233125,-0.6186836870074272,0.26511037799138576
1761475664561355800,3.681355712890625,-1.0331307495832442,-0.6298565306678414,0.33938703581858426
1761475664571332600,3.69133251953125,-0.9177624951720237,-0.7078434411898255,0.39945480675771833
1761475664581309700,3.701309814453125,-0.8088760039955377,-0.7823742199085653,0.347093664673157
1761475664591286800,3.711286865234375,-0.7494447408616542,-0.8673862067617476,0.20547957369741052
1761475664601263900,3.721263916015625,-0.7338625563263893,-0.9037835080496966,0.060384143411926924
1761475664611241000,3.731240966796875,-0.6965174527943134,-0.8587987034194171,-0.07690536236297339
1761475664621217800,3.7412177734375,-0.7228992637634277,-0.7574141123056412,-0.12155823162514716
1761475664631195000,3.75119482421875,-0.8589590085476636,-0.7189249533049762,-0.03331150063443929
1761475664641171700,3.761171630859375,-1.0454033711791038,-0.8391906243689358,0.1822240415226668
1761475664651148800,3.771148681640625,-1.0762661269545555,-1.0449787160262465,0.43491259870585053
1761475664661126000,3.7811259765625,-0.8478355569869279,-1.1406604193232952,0.5017725140031427
1761475664671103700,3.791103759765625,-0.5961959608674049,-1.1284651007473467,0.4372572256032377
1761475664681080800,3.801080810546875,-0.46322190713882444,-1.033977283409983,0.3539415943391621
1761475664691058000,3.811057861328125,-0.3444716090738773,-0.939876273433119,0.24889544851053505
1761475664701034800,3.82103466796875,-0.35719255895912644,-0.662325260335207,0.0056019116602838035
1761475664711011800,3.83101171875,-0.6311001009881496,-0.24770313345342873,-0.3439148885065689
1761475664720988700,3.84098876953125,-1.0969430042803288,0.23687676514312622,-0.5427442105345428
1761475664730965800,3.8509658203125,-1.548324251499772,0.7314176473923027,-0.6414153779711574
1761475664740942600,3.860942626953125,-1.9374591781646011,1.2390404217936097,-0.6353522054746746
1761475664750920000,3.870919921875,-2.1078882255405187,1.6783946927413342,-0.6396611547149718
1761475664760897000,3.88089697265625,-2.0142162546306848,2.0438823479674757,-0.6930155090879648
1761475664770873900,3.890873779296875,-1.7339491144418715,2.2901935886710882,-0.5630709227157756
1761475664780851000,3.900850830078125,-1.3356664202034472,2.290859212972969,-0.24477254162793977
1761475664790827800,3.910827880859375,-0.8806067767322063,2.052889684157073,0.17369141017273068
1761475664800804900,3.920804931640625,-0.36490357172787186,1.932242466429621,0.23730094537194818
1761475664810781700,3.93078173828125,0.10861819562911987,1.7743300785385072,0.08827361899763345
1761475664820759800,3.940759765625,0.3466092056244612,1.4690170521594583,0.02865731815304607
1761475664830737000,3.95073681640625,0.45477673487663267,1.2249096051104367,-0.044207134788669646
1761475664840713700,3.960713623046875,0.6349363181501626,1.1254989444181323,-0.2901633515095338
1761475664850690800,3.97069091796875,0.8905974248707293,1.1021814894556998,-0.6061011226795613
1761475664860667600,3.980667724609375,1.1048030701309441,1.0762924304395913,-0.9101413526438176
1761475664870644700,3.990644775390625,1.3033546346634626,0.9640041679956018,-1.0438627176083624
1761475664880621800,4.000621826171875,1.459844588536024,0.8662418590322136,-1.0390069481402635
1761475664890598700,4.0105986328125,1.5171832633048294,0.8457917761996387,-0.9252581116244196
1761475664900576000,4.020575927734375,1.6568810723304748,0.888555982170999,-0.7160762128103524
1761475664910552800,4.030552734375,1.7547312057077884,0.8939736233055591,-0.5198616398580372
1761475664920530000,4.040530029296875,1.8298697410613298,0.8381716565847397,-0.3632162031628191
1761475664930506800,4.0505068359375,1.8665420598983764,0.7698568297713995,-0.22280480250772086
1761475664940483800,4.06048388671875,1.8598364247798918,0.6698214613094925,-0.15407094656471162
1761475664950461000,4.0704609375,1.7804729652076958,0.4997559865489602,-0.10686831975448877
1761475664960437800,4.080437744140625,1.595193554702401,0.3279888224370777,-0.12829879192654042
1761475664970414800,4.090414794921875,1.300019352760911,0.18295681277662515,-0.22082024109438061
1761475664980391700,4.1003916015625,0.978439958974719,0.09057137454599141,-0.29145028604753315
1761475664990369800,4.110369873046875,0.6901689605504274,0.045920916436612606,-0.35767603162713346
1761475665000347000,4.120346923828125,0.49276598153114315,0.024577391895651817,-0.32811635780688375
1761475665010323700,4.13032373046875,0.45703474293649193,0.05098696765452623,-0.2785077293008566
1761475665020300800,4.14030078125,0.4291197310507297,0.03509221003875136,-0.09689188280440866
1761475665030277600,4.150277587890625,0.3995096056848764,-0.06886939195618033,0.05893398113623261
1761475665040254700,4.160254638671875,0.36266251480281353,-0.20586656372100112,0.12829166806600986
1761475665050231800,4.170231689453125,0.3358066565811634,-0.3547527645915746,0.1028255106370896
1761475665060209000,4.180208984375,0.2739613180428743,-0.533300236493349,0.08030972744636238
1761475665070186000,4.19018603515625,0.21345453463196754,-0.7255626377537846,0.0611286416362971
1761475665080162800,4.200162841796875,0.09303016587495803,-0.8826935198783874,-0.001531082024797797
1761475665090140000,4.210139892578125,-0.03815232826173305,-0.9855835471190512,-0.06007957097478211
1761475665100118300,4.2201181640625,-0.1090174240797758,-1.03219215355888,-0.12137005210928618
1761475665110095400,4.230095458984375,-0.19270693015754223,-1.0825595280103384,-0.16402071470357477
1761475665120072400,4.240072509765625,-0.2528811206132173,-1.1582258866302668,-0.1738353852206841
1761475665130049300,4.25004931640625,-0.2120364845275879,-1.1808499525010585,-0.2077965454028919
1761475665140027400,4.26002734375,-0.22844635205864905,-1.1517815327964722,-0.21685115480031816
1761475665150004500,4.27000439453125,-0.37289924665689467,-1.0943700850524007,-0.14693477454185486
1761475665159981300,4.279981201171875,-0.6028560032784939,-1.112958173405379,-0.003968428706936538
1761475665169958400,4.28995849609375,-0.9459487252146005,-1.0939746559940278,0.07550875690542161
1761475665179935200,4.299935302734375,-1.2635907795518635,-0.9981060518227517,0.09059548607394098
1761475665189912300,4.309912353515625,-1.4416799862921237,-0.9417924823179841,0.14761471963003278
1761475665199889400,4.319889404296875,-1.6074585775136947,-0.8545465989328921,0.21170476835519075
1761475665209866200,4.3298662109375,-1.604074780294299,-0.7962291422598063,0.19469817703999578
1761475665219843300,4.33984326171875,-1.562638023534417,-0.7926872318692505,0.17936207622028885
1761475665229820200,4.349820068359375,-1.5981331152856348,-0.8185450189642608,0.2121772081725299
1761475665239797200,4.35979736328125,-1.5317045406103134,-0.7451033506564796,0.1828835283447057
1761475665249775400,4.369775390625,-1.3928303229272365,-0.6889771204173565,0.05414046324938535
1761475665259752200,4.379752197265625,-1.3170762860238552,-0.8530958156026899,0.18474720332473515
1761475665269729300,4.389729248046875,-1.1635954508394002,-1.1033763983286917,0.4342259681485593
1761475665279706000,4.3997060546875,-0.881409325286746,-1.1996537294313312,0.490812290180102
1761475665289683500,4.409683349609375,-0.653141836926341,-1.1390937545284627,0.38043636416345833
1761475665299660300,4.419660400390625,-0.58415714802742,-1.1038320331417024,0.25698051875606176
1761475665309637400,4.429637451171875,-0.5710147578597068,-1.0851660572469233,0.25456816038470714
1761475665319614500,4.439614501953125,-0.4921376204997301,-0.8790605702035128,0.1341414535401389
1761475665329591300,4.44959130859375,-0.40336511206924913,-0.46288405348658557,-0.11387622575517743
1761475665339568400,4.459568359375,-0.37372751417458056,-0.02882204372808337,-0.20930640197657047
1761475665349545200,4.469545166015625,-0.4669482341855764,0.22981296423673628,-0.09917469651196151
1761475665359522300,4.479522216796875,-0.6608043343782425,0.5497498515129089,0.08157726316414773
1761475665369499100,4.4894990234375,-0.7407032160013913,0.8977379442751408,0.18143342086793854
1761475665379476200,4.499476318359375,-0.7068576450228691,1.195455693219602,0.3909743805190548
1761475665389453300,4.509453369140625,-0.5409557196825743,1.5040174922615288,0.5993184768021106
1761475665399431200,4.51943115234375,-0.2655722598820925,1.5533637069717048,0.7970609169088304
1761475665409408300,4.529408203125,0.0937245778799057,1.3608476232111453,1.1106910321909933
1761475665419385000,4.539385009765625,0.5350140546739101,1.166460192620754,1.2377053737975656
1761475665429362200,4.549362060546875,0.9907067353516816,1.0646209896072745,1.1849304998129606
1761475665439339500,4.559339599609375,1.34314011708498,0.9288584742039442,1.0941273623377084
1761475665449316400,4.56931640625,1.5177321293592452,0.7755728693306445,1.0695224979132414
1761475665459293400,4.57929345703125,1.5759171918243169,0.6958142729610204,1.0752325461231171
1761475665469270300,4.589270263671875,1.643730498856306,0.6203931212738156,1.1386676380708813
1761475665479247400,4.599247314453125,1.7347253595113754,0.7659908019930124,1.0424687790319322
1761475665489224200,4.60922412109375,1.7325924391359089,0.8730310807809233,0.9145323541443794
1761475665499201300,4.619201171875,1.6498305692970752,0.9761202838554978,0.70460387474671
1761475665509178400,4.629178466796875,1.6006185023605823,1.1495786159247159,0.4032629668690264
1761475665519155200,4.6391552734375,1.5237088656812905,1.2749465785637497,0.10133790242783725
1761475665529132300,4.64913232421875,1.2899305049449206,1.3733186899885534,-0.04903612584769725
1761475665539109000,4.659109130859375,0.9534709374129772,1.4650301744803786,-0.011625628929212688
1761475665549086200,4.669086181640625,0.6466027905464172,1.6097246227495372,0.08665398190654813
1761475665559064300,4.679064208984375,0.4762058918744325,1.6671989065967499,0.2198096392797306
1761475665569041200,4.689041259765625,0.31181846275031566,1.6953943428590892,0.3504000127421692
1761475665579018200,4.699018310546875,0.1438742179274559,1.6163107231415808,0.40213874861206855
1761475665588995300,4.708995361328125,0.09642039283514023,1.4776638844735919,0.42921825952176
1761475665598972400,4.718972412109375,0.2093289791345596,1.26986386847198,0.40403826209045945
1761475665608949500,4.728949462890625,0.46470308560729023,1.0138083556063473,0.3002109539996832
1761475665618926300,4.73892626953125,0.6251099206626415,0.700726448791474,0.14550700676105915
1761475665628903400,4.7489033203125,0.5922405012398958,0.34776422087848186,-0.011002893920987843
1761475665638880300,4.75888037109375,0.4525444457799196,0.16228446549549697,-0.1502781666856259
1761475665648857300,4.768857421875,0.2897293805390596,0.09845935131683944,-0.27186668385118246
1761475665658834200,4.778834228515625,0.13276947106719017,0.02168649275973439,-0.33499570552445945
1761475665668811300,4.788811279296875,0.06575169832706451,-0.05361673163622618,-0.28408457958512007
1761475665678788000,4.7987880859375,0.049095747080445284,-0.12435440168231725,-0.23966018531657754
1761475665688765200,4.80876513671875,0.054959670677781104,-0.21204349879026413,-0.2496362204078585
1761475665698742300,4.8187421875,0.12885668153762816,-0.3202478529214859,-0.21470774956345556
1761475665708720000,4.82872021484375,0.23424247111678123,-0.45255935108810663,-0.19593597520664333
1761475665718697200,4.838697265625,0.30673546039760113,-0.5963042435474694,-0.20036124430298805
1761475665728674300,4.84867431640625,0.3464671668052673,-0.7381858263529837,-0.20280447273664176
1761475665738651400,4.8586513671875,0.3275233968824148,-0.8621189338833093,-0.19094532731249927
1761475665748628500,4.86862841796875,0.24837387232184407,-0.9421293130569159,-0.20945019436143336
1761475665758605300,4.878605224609375,0.10915069507062435,-1.0127338582426308,-0.1772770135745406
1761475665768582400,4.88858251953125,-0.04662380400896072,-1.0620498239450156,-0.18318967168442904
1761475665778559200,4.898559326171875,-0.23072540290653704,-1.078192857233435,-0.21909827613998203
1761475665788536300,4.908536376953125,-0.4653068967193365,-1.0813327626943587,-0.23463000912964344
1761475665798513400,4.918513427734375,-0.6605687720566987,-1.1790342813812196,-0.31427805779688056
1761475665808490200,4.928490234375,-0.7548065601557493,-1.253139382033795,-0.33298871308360245
1761475665818467300,4.93846728515625,-0.7411568049877881,-1.2642990739516913,-0.36115419259909537
1761475665828444200,4.948444091796875,-0.7722884408324956,-1.3759921469815075,-0.2993175488239154
1761475665838421200,4.958421142578125,-0.8145429437160492,-1.4372576398052275,-0.151127988447994
1761475665848398300,4.9683984375,-0.8979869506001472,-1.3770371259897947,-0.06482117601130158
1761475665858376200,4.978376220703125,-1.0299918670356274,-1.2468589865900574,-0.01726221004407853
1761475665868353300,4.988353271484375,-1.190491056549549,-1.0929004508912563,0.0033490181669592854
1761475665878330000,4.998330078125,-1.3938380386650562,-0.8962373304538428,-0.004139803218469023
1761475665888307500,5.008307373046875,-1.575340853241086,-0.6894548209317028,-0.0008112798502668738
1761475665898284300,5.0182841796875,-1.7463228583246468,-0.5452583853125572,0.10040758104147389
1761475665908261400,5.028261474609375,-1.8134966984093188,-0.523632975090295,0.2589130577212199
1761475665918238500,5.038238525390625,-1.6821002692610025,-0.6960346377134323,0.528394855729863
1761475665928215300,5.04821533203125,-1.341865859365463,-0.8276276123471558,0.6031413230258971
1761475665938192400,5.0581923828125,-1.0190805969208478,-0.7738438535809516,0.3332576296854764
1761475665948169200,5.068169189453125,-0.8278922546327113,-0.6511360500618815,0.03835495642805472
1761475665958146300,5.078146240234375,-0.875754660525918,-0.7091476556561886,0.042739455122593785
1761475665968123100,5.088123046875,-0.9412971000164747,-0.6330779769323766,0.018157313986588267
1761475665978100200,5.098100341796875,-1.0300094026923179,-0.144242320587486,-0.20030123947774991
1761475665988077300,5.108077392578125,-1.2411159128934144,0.36026962831690906,-0.31146943011693656
1761475665998054100,5.11805419921875,-1.5321569605529308,0.7259469608962535,-0.15705272058816624
1761475666008032300,5.1280322265625,-1.754703733178973,0.9754201727621257,0.09722500548260286
1761475666018009000,5.138009033203125,-1.7087199806392193,1.3060802602350712,0.1363835333785042
1761475666027986200,5.147986083984375,-1.3739064267486334,1.6538051720164715,0.03679581735255196
1761475666037963300,5.15796337890625,-0.9748708683162927,1.7954831950739025,0.015067184217832982
1761475666047940400,5.1679404296875,-0.6441472140878438,1.711724715413153,0.05302289392892271
1761475666057917400,5.17791748046875,-0.29425124187767504,1.4975133710645139,0.06995258408300578
1761475666067894300,5.187894287109375,0.03308218539059162,1.3034297457262873,0.01380739341508597
1761475666077871400,5.197871337890625,0.4528331995934248,1.1589181066781282,-0.1371909407712519
1761475666087848200,5.20784814453125,0.8442214581429958,1.0458115135885775,-0.22754363106526432
1761475666097823700,5.21782373046875,1.1881342642903328,1.009767263521999,-0.3292577463943511
1761475666107800800,5.22780078125,1.3886825555980205,0.9017021717309951,-0.35999629126824434
1761475666117777700,5.237777587890625,1.5111130034804343,0.7625913688130677,-0.38576734992787237
1761475666127754800,5.247754638671875,1.6627894195914268,0.7608591381929815,-0.4898142921186983
1761475666137731800,5.25773193359375,1.7708219242870806,0.5942484800614416,-0.5547989515960217
1761475666147708700,5.267708740234375,1.833222558620572,0.45913434556424615,-0.6228199100293219
1761475666157685800,5.277685791015625,1.944261259394884,0.45235564520955085,-0.7953103469144552
1761475666167663600,5.28766357421875,2.029919435197115,0.49544338404685256,-0.9333443143811077
1761475666177640700,5.297640625,2.0088918447375295,0.46521688034832476,-0.9934304612271487
1761475666187617800,5.30761767578125,1.898598409372568,0.43869536864757536,-0.8293888498660177
1761475666197594600,5.3175947265625,1.77617556027472,0.49038551613539455,-0.5692974690804258
1761475666207571700,5.32757177734375,1.6073755754053591,0.5639268454253673,-0.33333752652127296
1761475666217548500,5.337548583984375,1.3627958346694706,0.642116000521183,-0.20486396254971623
1761475666227525600,5.347525634765625,1.0715361758232116,0.7434329332262277,-0.16234503657631574
1761475666237502500,5.35750244140625,0.787784116128087,0.7703788078188896,-0.12989698437079786
1761475666247479600,5.3674794921875,0.5821919854342937,0.7703440287664532,-0.12068199677988886
1761475666257457000,5.377456787109375,0.4326759622275829,0.7356573307886719,-0.11298245525322854
1761475666267433700,5.387433837890625,0.32671909476220606,0.6260707285188138,-0.055058674072846765
1761475666277410800,5.397410888671875,0.261205296844244,0.4766859304763376,-0.03911149215009063
1761475666287387600,5.4073876953125,0.17969196576178073,0.3015830460704863,-0.02206150008458644
1761475666297364700,5.41736474609375,0.11622457897961139,0.13256956458091734,0.06361943553872407
1761475666307341600,5.427341552734375,0.1297311262845993,-0.010242577072978019,0.14508322839103638
1761475666317318700,5.437318603515625,0.23524667972326277,-0.189685098118335,0.2160351987749338
1761475666327296800,5.447296875,0.3022919249922037,-0.40570831419453024,0.2660894156239927
1761475666337273600,5.457273681640625,0.30336510718166826,-0.6367385452665388,0.18610183280408382
1761475666347250700,5.467250732421875,0.25631927836835383,-0.8731083838008343,0.046137481796741486
1761475666357227500,5.4772275390625,0.2077174522846937,-1.058082089357823,-0.09826835878938436
1761475666367204600,5.48720458984375,0.1428027893036604,-1.2228726924553512,-0.1403436326485127
1761475666377181700,5.497181640625,0.14924538957178593,-1.2341345295734703,-0.17624160611219702
1761475666387158500,5.507158447265625,0.1985240920037031,-1.1731450772121548,-0.19485592488497494
1761475666397135600,5.517135498046875,0.19099661910831928,-1.1274261130884289,-0.12804339239336548
1761475666407112700,5.52711279296875,0.07321721190214156,-1.0775286942362785,-0.03278312937878072
1761475666417089800,5.53708984375,-0.04425122965872288,-0.9177543118655681,-0.01891889120992273
1761475666427066600,5.547066650390625,-0.15959201154112815,-0.7433188053272665,-0.008334880288131535
1761475666437043700,5.557043701171875,-0.2675532045662403,-0.638760844874382,0.09045779463630169
1761475666447020800,5.567020751953125,-0.3745487674295902,-0.6070460023142397,0.2073717075869441
1761475666456997600,5.57699755859375,-0.409143110948801,-0.64820145791471,0.314283756885305
1761475666466974700,5.586974609375,-0.42837797277271744,-0.6893458075992762,0.42372006396427747
1761475666476952800,5.596952880859375,-0.4522773192763328,-0.7583053620569408,0.529125435026735
1761475666486929700,5.6069296875,-0.5093471139758825,-0.8447139178350568,0.6481053040638566
1761475666496906800,5.61690673828125,-0.6014449674367904,-0.8577199682720005,0.664034913797304
1761475666506883600,5.626883544921875,-0.7258791563570499,-0.8503224053665995,0.5667644800040871
1761475666516860700,5.636860595703125,-0.8409586569547652,-0.8528584997154772,0.4027342668198049
1761475666526837500,5.64683740234375,-0.9319950186640024,-0.8869491314962505,0.337414603234455
1761475666536814600,5.656814697265625,-0.9945072966784239,-0.8702892347268759,0.39712957868054505
1761475666546791700,5.666791748046875,-0.9895242475688457,-0.9527589897513389,0.48550461222603913
1761475666556768800,5.676768798828125,-0.8694920929998159,-1.1106120486706494,0.5710098624888807
1761475666566745900,5.686745849609375,-0.599623597228527,-1.1006158475741743,0.326517361645028
1761475666576722700,5.69672265625,-0.3480225795537233,-0.9758736156180501,0.004834142158180475
1761475666586699800,5.70669970703125,-0.2913286324292421,-0.9962854122668504,-0.1294441260367632
1761475666596676600,5.716676513671875,-0.40709728433489795,-1.0562630572371183,-0.06527615323718637
1761475666606653700,5.72665380859375,-0.565874472361803,-0.9551501226715743,-0.11732738912235945
1761475666616630800,5.736630859375,-0.7319932553231716,-0.5866754144586622,-0.18588468292206525
1761475666626608600,5.746608642578125,-1.0507441476851702,-0.2626344528645277,-0.08912486553210765
1761475666636584700,5.756584716796875,-1.5571844343036412,0.04719035185053944,0.053616402842663224
1761475666646562600,5.7665625,-1.9344915605306625,0.40038843434602017,0.14468909624060616
1761475666656539600,5.77653955078125,-2.018354085087776,0.761168496403098,0.14619414877500383
1761475666666516700,5.786516845703125,-1.986115949305892,1.1347026799626647,0.26485004655476657
1761475666676493600,5.79649365234375,-1.769123888197541,1.4411391574136911,0.4033898446517065
1761475666686470700,5.806470703125,-1.4987369215101003,1.5116238756120204,0.6772599407471716
1761475666696447500,5.816447509765625,-1.1011305190980434,1.4624746447786687,0.9681786041360347
1761475666706424800,5.8264248046875,-0.5636380916118622,1.3572818935535846,1.0488980814270674
1761475666716401700,5.836401611328125,0.052536242923140526,1.254132630854845,0.9481085335969924
1761475666726378800,5.846378662109375,0.6738754128754139,1.111859564513713,0.7801454379431902
1761475666736355800,5.85635595703125,1.1020569862931966,0.9221556155644357,0.7547652782972901
1761475666746332700,5.866332763671875,1.3424194015949964,0.7229064241565764,0.8020805717017501
1761475666756309800,5.876309814453125,1.4444278236955403,0.5447340691775083,0.8878124703273177
1761475666766286600,5.88628662109375,1.544967342287302,0.5218098513163626,0.702211134391278
1761475666776263700,5.896263671875,1.4705185427635907,0.5465965020485222,0.47887441696394234
1761475666786240500,5.906240478515625,1.3453922799259423,0.67632572863698,0.21701704941913486
1761475666796218600,5.916218505859375,1.1422644935190678,0.8631221195764839,-0.0878871404306963
1761475666806195700,5.92619580078125,1.0070943910509347,1.0534526759915053,-0.28663685788381843
1761475666816172500,5.936172607421875,0.9519108484894037,1.2086907301068306,-0.2697352613130584
1761475666826149600,5.946149658203125,0.9650538231790066,1.2999414652191101,-0.11439867872670292
1761475666836126500,5.95612646484375,1.0134691867798566,1.3808769964136183,0.036998810845054686
1761475666846103600,5.966103515625,1.0645558154165744,1.394300980001688,0.17098237040974198
1761475666856081000,5.976080810546875,1.1082885741591453,1.2900118996180594,0.31176994743347164
1761475666866057700,5.9860576171875,1.183657995659113,1.1054875452637671,0.39604934569578615
1761475666876034800,5.996034912109375,1.2733207309275865,0.8809900769613682,0.3737042794294655
1761475666886011600,6.00601171875,1.2614292176038027,0.6141667941048741,0.30246267844922836
1761475666895988700,6.01598876953125,1.1079226634562014,0.3207673467509448,0.23103969302009789
1761475666905965600,6.025965576171875,0.8906348342716693,0.057472822542488575,0.12800751736238597
1761475666915942700,6.035942626953125,0.7368038704752922,-0.06876344736367464,0.021048779378086326
1761475666925919700,6.045919677734375,0.6226444073319435,-0.11456263711676001,-0.046210729696042833
1761475666935896600,6.055896484375,0.5157353537082672,-0.2246776471748948,-0.08763243501726538
1761475666945873700,6.065873779296875,0.41170623943507667,-0.3119895815335214,-0.06568608574494719
1761475666955851800,6.075851806640625,0.331197116959095,-0.354614963556081,-0.039727614754438395
1761475666965828600,6.08582861328125,0.25280162563621994,-0.42295492481067776,0.019032471119612454
1761475666975805700,6.0958056640625,0.17493746471107005,-0.45090164700895546,-0.006199402629397809
1761475666985782500,6.105782470703125,0.1565793857216835,-0.4759799741640687,-0.05460376991219818
1761475666995759600,6.115759521484375,0.1396253283113241,-0.5846040150120854,-0.04965465960483998
1761475667005736700,6.12573681640625,0.07916004595458508,-0.750131554082036,-0.0169399923523888
1761475667015713800,6.1357138671875,0.047374330115318296,-0.9093354430884122,0.032039288741536436
1761475667025691000,6.14569091796875,0.01685878034234047,-1.01061394347921,0.029680450655706226
1761475667035667700,6.155667724609375,-0.026479426124691962,-1.09546226420328,0.0018969561951234935
1761475667045644800,6.165644775390625,-0.13272563192546366,-1.200323591516912,-0.035998931353818625
1761475667055621600,6.17562158203125,-0.23825930554270744,-1.1843225970476865,-0.18946957393782213
1761475667065598700,6.1855986328125,-0.42461306728124615,-1.1537217070788144,-0.3173827458139509
1761475667075575600,6.195575439453125,-0.6722030957490205,-1.1422000499807297,-0.36046602767184377
1761475667085552600,6.205552734375,-0.8790957876473665,-1.1000732651300729,-0.4266253934843465
1761475667095530200,6.2155302734375,-1.08287823857069,-1.0449662949360907,-0.49286337749101217
1761475667105507000,6.225507080078125,-1.1655284647285937,-0.9764186822801828,-0.5411377617185935
1761475667115485200,6.235485107421875,-1.175022853782773,-0.9658787296958267,-0.650939723772183
1761475667125462300,6.245462158203125,-1.0982079096496105,-0.9491652030430734,-0.6795924022827297
1761475667135439000,6.255439208984375,-0.9793997439175843,-0.8882669360965489,-0.6713210522174835
1761475667145416200,6.265416259765625,-0.8861281705021857,-0.8567628136776387,-0.6689896135952323
1761475667155393000,6.27539306640625,-0.845920078754425,-0.7988653359822928,-0.6068744086069986
1761475667165370000,6.2853701171875,-0.7789677724659443,-0.6613065848119557,-0.6529275365885346
1761475667175347200,6.29534716796875,-0.7140145310401916,-0.531457823497057,-0.6290980404507368
1761475667185324300,6.30532421875,-0.7045651501715183,-0.607380202704668,-0.3792020731281489
1761475667195301400,6.31530126953125,-0.6892635361433028,-0.873556712090224,0.0012547196186962536
1761475667205278200,6.3252783203125,-0.6126391461461782,-1.1433879445910453,0.20858848123187199
1761475667215255300,6.33525537109375,-0.5355985765635967,-1.1120613706961273,0.07299271896388382
1761475667225232100,6.345232177734375,-0.5439134004443884,-1.065062742025405,-0.06207499170885421
1761475667235209200,6.355209228515625,-0.659423109152913,-1.0371882082805037,-0.2764423760025762
1761475667245186000,6.36518603515625,-0.8125374491125344,-0.6655434917293489,-0.7220466655220836
1761475667255163100,6.3751630859375,-1.0655576859354972,-0.050624125691503284,-1.1390969693988562
1761475667265140200,6.38514013671875,-1.5371253966152667,0.4346276808172464,-1.2018773968301713
1761475667275118000,6.3951181640625,-2.033161778119206,0.807836724075675,-0.8745902929216622
1761475667285095200,6.40509521484375,-2.1814438756167887,1.4097779505968093,-0.7117295619081705
1761475667295072000,6.415072021484375,-1.958515410196781,2.052168676406145,-0.7673491577994078
1761475667305049000,6.425049072265625,-1.671188999146223,2.349137068288028,-0.5066317906025797
1761475667315026200,6.435026123046875,-1.2377525739401578,2.34532890817672,-0.05527480104155838
1761475667325003300,6.445003173828125,-0.6821697784900664,2.1715995040811595,0.412959198638238
1761475667334980400,6.45498046875,-0.10616963343322276,2.041373287755996,0.6582973199933767
1761475667344957200,6.464957275390625,0.4690846616923809,1.9959139974817632,0.5928013865256682
1761475667354934300,6.474934326171875,0.8490016781568527,1.7802635602407157,0.5300196073874831
1761475667364911000,6.4849111328125,1.0245423694580793,1.4249163368873297,0.5929570885440334
1761475667374888200,6.49488818359375,1.1897072126954793,1.2342642934329806,0.5727318274432793
1761475667384865300,6.504865234375,1.3345792094886302,1.1891162610650061,0.27980986140798775
1761475667394842000,6.514842041015625,1.5233055455774067,1.151352055338025,-0.04612451271731406
1761475667404819200,6.524819091796875,1.7435206603854894,1.0958896958351134,-0.38755514666009694
1761475667414796000,6.534796142578125,1.878959642922878,1.0197216713033617,-0.7007341206412762
1761475667424773000,6.544773193359375,1.858579118195176,0.8921221502199769,-0.7841041124410927
1761475667434750200,6.554750244140625,1.8305887029856442,0.8482368312641978,-0.7869068218369036
1761475667444727300,6.564727294921875,1.900750618970394,0.8246845446325838,-0.7234321285311133
1761475667454705200,6.574705078125,1.9666326656788586,0.7870224841058254,-0.5241044285269454
1761475667464682000,6.584681884765625,2.041189017230272,0.7452204011648893,-0.33954123999960717
1761475667474659300,6.594659423828125,2.0020032542675734,0.6940688905984163,-0.18878993937689809
1761475667484636200,6.60463623046875,1.8234201265305279,0.601011252194643,-0.0618640478053363
1761475667494613200,6.61461328125,1.5491612868458031,0.47678705276325345,0.0497153859492857
1761475667504590300,6.62459033203125,1.2150485747009514,0.4235454380497336,0.10102658972265198
1761475667514567200,6.634567138671875,0.8759194956988096,0.48907691775485873,0.045038649142789655
1761475667524544300,6.644544189453125,0.4735539160609245,0.5051775732062757,-0.019950359999376815
1761475667534521000,6.65452099609375,0.042883448436856264,0.45948622774183745,-0.047746862355293705
1761475667544498200,6.664498291015625,-0.29088205770552156,0.3342055049948394,0.002311254350747913
1761475667554475000,6.67447509765625,-0.4675456155568361,0.2317965392693877,0.031844515088107435
1761475667564452000,6.6844521484375,-0.4960007256686687,0.10956935887411236,0.06729346614265815
1761475667574429200,6.69442919921875,-0.4226929128736257,-0.04367240685746073,0.19576324898824093
1761475667584406000,6.704406005859375,-0.25481530354619025,-0.20294336975067853,0.2678907659575343
1761475667594383400,6.71438330078125,-0.11093933205306529,-0.38909342561066146,0.2223785216533579
1761475667604360200,6.724360107421875,-0.08266542372703552,-0.6072086455300449,0.15342598145836964
1761475667614337300,6.734337158203125,-0.14754150826334952,-0.8715979792378842,-0.009638966890331358
1761475667624315100,6.744315185546875,-0.2299696161031723,-1.0380888103820383,-0.1685232137545943
1761475667634292200,6.754292236328125,-0.3433499115675688,-1.1178238797456026,-0.3877918414928019
1761475667644269300,6.764269287109375,-0.38694296957850455,-1.156792492826283,-0.5708122940901666
1761475667654246100,6.77424609375,-0.36312604066133497,-1.2244814428262412,-0.6694114192038774
1761475667664223200,6.78422314453125,-0.2979308071732521,-1.2710095313757657,-0.7347609664708376
1761475667674200300,6.794200439453125,-0.10590426049530506,-1.2102610481634735,-0.8554946203727275
1761475667684177200,6.80417724609375,0.05392798954248428,-1.1869435932010413,-0.8259465273924171
1761475667694154200,6.814154296875,0.10752923134863376,-1.2092965870454906,-0.694450729522854
1761475667704131000,6.824131103515625,0.09525602523088454,-1.2223077520489691,-0.48482371728979046
1761475667714108200,6.834108154296875,0.01447276198863983,-1.1563479639291763,-0.23835520366523413
1761475667724085000,6.8440849609375,-0.11685527809858322,-1.0637792780861257,-0.02735229083593003
1761475667734062000,6.85406201171875,-0.21950725879967212,-0.9916469388112426,0.11802216645348816
1761475667744039400,6.864039306640625,-0.34521979709267614,-0.9614338791161775,0.2333529566648416
1761475667754016300,6.874016357421875,-0.4964923085778951,-0.9955315251596272,0.23672690834365784
1761475667763993300,6.883993408203125,-0.6723346131742001,-1.0316821582101285,0.08730446343822404
1761475667773970200,6.89397021484375,-0.8951590336978436,-1.1032695769533514,-0.030744883283134548
1761475667783947300,6.903947265625,-1.0706599775105714,-1.2160767487049102,-0.03630510209300555
1761475667793925400,6.91392529296875,-1.2932289619684219,-1.4425519468210637,0.10801063079056329
1761475667803902200,6.923902099609375,-1.3036474801301956,-1.5339635715834796,0.1916725821411237
1761475667813879300,6.93387939453125,-1.1099942090332506,-1.5526332007400692,0.06440958126941695
1761475667823856000,6.943856201171875,-0.9796230312794446,-1.4254839076422154,-0.21681582775861025
1761475667833833200,6.953833251953125,-1.0760136134982108,-1.2824226135328411,-0.4157900381499901
1761475667843810000,6.96381005859375,-1.379199856981635,-1.141669888626784,-0.5155428268108516
1761475667853787100,6.973787109375,-1.705145044761896,-0.900649593938142,-0.464800737295486
1761475667863764200,6.98376416015625,-1.8952689726889131,-0.5438415042519569,-0.4165731878843158
1761475667873741000,6.993740966796875,-1.9587346059054136,-0.1490069046407938,-0.48158378552049397
1761475667883718100,7.00371826171875,-1.9071593169689178,0.12477701100856065,-0.28534336574086916
1761475667893695200,7.0136953125,-1.6851625794410705,0.3344707318022847,0.00026742789768613873
1761475667903672300,7.02367236328125,-1.290336163136363,0.5093089739225805,0.24160383019763976
1761475667913649200,7.033649169921875,-0.9348971698462962,0.612482786540687,0.5263377040043473
1761475667923626200,7.043626220703125,-0.6501940930366515,0.7253624390065669,0.678839391958341
1761475667933603300,7.053603271484375,-0.4281272128820419,0.8535648944191634,0.7841315119046718
1761475667943580200,7.063580078125,-0.25893735191226,0.9488064527332782,0.889806420623511
1761475667953557200,7.07355712890625,-0.053096214893460274,0.9561761047184467,1.0454816971123218
1761475667963534000,7.0835341796875,0.21749182732403277,0.897562003186345,1.135605912412703
1761475667973512200,7.09351220703125,0.6397720677435398,0.8931770661003887,1.1564460174761713
1761475667983489300,7.1034892578125,1.1386544863283634,0.9316489817053079,1.0501932358041406
1761475667993466000,7.113466064453125,1.551198345631361,0.9181915342390536,0.9756000593736767
1761475668003443200,7.123443115234375,1.8012515493422745,0.9301622502788901,0.8777208460323512
1761475668013420000,7.133419921875,1.844776218292117,0.8430681964546441,0.9685548901025205
1761475668023397000,7.143397216796875,1.7217220855534077,0.7941998283892869,0.995679116936773
1761475668033374000,7.1533740234375,1.5655840138584374,1.0490846900403499,0.8918793544400483
1761475668043351300,7.163351318359375,1.3745043926417826,1.2677297790527342,0.7219248657733202
1761475668053328400,7.173328369140625,1.225730127713084,1.306793084679544,0.5748255117869004
1761475668063305200,7.18330517578125,1.1314163517683744,1.2200611421659588,0.47395716309957203
1761475668073282300,7.1932822265625,0.9706886141955852,1.2032932549774646,0.4334862556971609
1761475668083259100,7.203259033203125,0.897140562903881,1.2325482832953334,0.3652004357825964
1761475668093235700,7.213235595703125,0.8685147724002599,1.2707520494833588,0.3103811234235763
1761475668103212800,7.223212890625,0.8515385031580924,1.2774267049416899,0.296618299802579
1761475668113189600,7.233189697265625,0.8859943149894476,1.2090550333745778,0.3466013145789504
1761475668123166700,7.243166748046875,0.9239812235563993,1.1317422227218747,0.4327096818340942
1761475668133143800,7.253143798828125,0.887229994264245,1.0455749283537268,0.5391260200373829
1761475668143120600,7.26312060546875,0.8313117076873778,0.97082407714352,0.5949363161951303
1761475668153098800,7.2730986328125,0.6875234144777059,0.9236519916020334,0.6211592833407222
1761475668163075600,7.28307568359375,0.522449756655097,0.8701067177668214,0.5569312143843621
1761475668173052700,7.293052734375,0.3815419873178005,0.7205350188501178,0.46669601299017666
1761475668183030000,7.303030029296875,0.25244214467406273,0.47857057517915963,0.3818077621145174
1761475668193006800,7.3130068359375,0.13763210866749287,0.2420962533570826,0.21547453268487005
1761475668202984000,7.32298388671875,0.14117372679710388,0.06333470031321048,0.12874193258415906
1761475668212960800,7.332960693359375,0.20683014805614947,-0.11164762645289301,0.1246963469877839
1761475668222937900,7.342937744140625,0.26957097412943837,-0.21407588140070438,0.1967158918042667
1761475668232914700,7.352914794921875,0.34098961217701435,-0.26331352116987106,0.26821236259471626
1761475668242891800,7.362891845703125,0.4338181180000305,-0.2920705368377268,0.3008727241103537
1761475668252868900,7.372868896484375,0.5090916779100895,-0.38119346614107485,0.3254905758805573
1761475668262845700,7.382845703125,0.511386510848999,-0.516888323135674,0.3440323408737778
1761475668272822800,7.39282275390625,0.4915893389672041,-0.6617695261485874,0.33514738895483315
1761475668282799600,7.402799560546875,0.4178980798125267,-0.7942784465834498,0.2671652281619608
1761475668292776700,7.412776611328125,0.2370318095743656,-0.9262889159768819,0.17599692890243604
1761475668302753800,7.42275390625,0.08300093929171562,-1.0355221747644245,0.0967972085245885
1761475668312731000,7.43273095703125,-0.03628594986796379,-1.1409482963539659,0.12763160585523584
1761475668322708000,7.4427080078125,-0.16534253789186476,-1.2107843413852155,0.16383255345402284
1761475668332684800,7.452684814453125,-0.2413192776352167,-1.2056988548144698,0.11636838049762882
1761475668342663000,7.462662841796875,-0.2845581153810024,-1.2038405135966836,0.0010430153800640254
1761475668352640000,7.472639892578125,-0.4135802166134119,-1.2407264751844107,-0.1150998218665365
1761475668362616800,7.482616943359375,-0.5328577534228564,-1.255780251931399,-0.27340098074637353
1761475668372594000,7.492593994140625,-0.6820417681962251,-1.243151218113303,-0.43683531039673834
1761475668382570800,7.50257080078125,-0.8910410769850015,-1.2452483365230262,-0.5213891051536426
1761475668392547800,7.5125478515625,-1.1659832227587699,-1.236182694274932,-0.5181069051451981
1761475668402524700,7.522524658203125,-1.3742156388282776,-1.1746512439914047,-0.6166176943883299
1761475668412501800,7.532501708984375,-1.492590089318156,-1.0967870830662547,-0.6849288679398596
1761475668422478800,7.542478759765625,-1.45998253570199,-0.9478954753682016,-0.7806218963485211
1761475668432455700,7.55245556640625,-1.3581155678987502,-0.8049884950377046,-0.8464172876868397
1761475668442432800,7.562432861328125,-1.3252724519610404,-0.7252104633152484,-0.7238257309585809
1761475668452409900,7.572409912109375,-1.286830200842023,-0.6849183465458453,-0.51469037469998
1761475668462387000,7.582386962890625,-1.1478776572257279,-0.7174364683128893,-0.27729112005271017
1761475668472363800,7.59236376953125,-0.9036626581490039,-0.7659089689284563,-0.21230735562453046
1761475668482340900,7.6023408203125,-0.7058084282308816,-0.7452667245246469,-0.2786771858499385
1761475668492318000,7.61231787109375,-0.5662450592398643,-0.6910090646363795,-0.45018093151897187
1761475668502294800,7.622294677734375,-0.6330290232241154,-0.6652241966471075,-0.49306898306570945
1761475668512272000,7.63227197265625,-0.8198200073361396,-0.6280665785111487,-0.5760952394617721
1761475668522249700,7.642249755859375,-1.0635317330658436,-0.19761442981287836,-0.8884453614033758
1761475668532226800,7.652226806640625,-1.4112696504592894,0.4454239462502301,-1.1589131382420659
1761475668542204000,7.662203857421875,-1.8865198490440844,0.8694370018117129,-0.9480573879316448
1761475668552180700,7.6721806640625,-2.089730053037405,1.328612556169182,-0.6528264873668551
1761475668562157800,7.68215771484375,-1.9159499416679142,1.80551695170179,-0.5548085962072015
1761475668572134700,7.692134765625,-1.435017605793476,2.038009072019905,-0.36199656170736993
1761475668582111700,7.70211181640625,-0.9427028751611709,1.8438928595863282,0.031402178148087115
1761475668592088600,7.712088623046875,-0.5347358222544193,1.5062386754423378,0.35877507891021665
1761475668602066000,7.72206591796875,0.0887619870364666,1.4650984174109996,0.2129124088455923
1761475668612043000,7.73204296875,0.5827496193170547,1.3271356154844165,0.1023242283177562
1761475668622019800,7.742019775390625,0.829243084719777,0.9460590537212789,0.3495218051355332
1761475668631997000,7.751996826171875,0.9480179327040911,0.5848340243756771,0.6437178096946329
1761475668641973800,7.761973876953125,1.1947872924387455,0.5308442216433584,0.5840252287434413
1761475668651950800,7.771950927734375,1.4957874240547417,0.6919565746195614,0.2872120456895791
1761475668661927700,7.781927734375,1.7334528553575277,0.8082568491838872,-0.05185292313436512
1761475668671904800,7.79190478515625,1.7976637539833784,0.7939869162909686,-0.21721622525304554
1761475668681881900,7.8018818359375,1.7363807255029677,0.7699510839261114,-0.22134062997298315
1761475668691858700,7.811858642578125,1.6987059516251086,0.8299431958131491,-0.1590217739051208
1761475668701835800,7.821835693359375,1.756149255812168,0.915865137118101,-0.045362497102562335
1761475668711813600,7.831813720703125,1.8121879538983106,0.9327366308115422,0.11897385942144319
1761475668721790700,7.841790771484375,1.7395342210978268,0.9211772720515727,0.31222499772459267
1761475668731767800,7.851767822265625,1.5967594888448715,0.8764537487059831,0.47224002045076335
1761475668741744600,7.86174462890625,1.386411688056588,0.7731690230593085,0.5661596459787339
1761475668751722000,7.871721923828125,1.0778531038850545,0.6310556773245334,0.5360507407778874
1761475668761698800,7.88169873046875,0.7878016517847776,0.4897866734594106,0.38180999060422177
1761475668771676000,7.891676025390625,0.5845435169965029,0.3728239894635975,0.22950488466825336
1761475668781652700,7.90165283203125,0.46110827598571774,0.23867869999855756,0.08283798554865643
1761475668791629800,7.9116298828125,0.4162812922656536,0.09698445645868778,0.020063439868856222
1761475668801607000,7.92160693359375,0.40922202140390873,-0.062315440268069504,0.07280136111024767
1761475668811583700,7.931583740234375,0.4709387651264667,-0.17788973864540455,0.12216299258526414
1761475668821560800,7.941560791015625,0.533425324177742,-0.3304134192354977,0.2051609727349132
1761475668831537700,7.95153759765625,0.5479202979981899,-0.45353725620955226,0.28331238963622596
1761475668841514800,7.9615146484375,0.5396335311681032,-0.5710146117292344,0.26270697011146693
1761475668851491600,7.97149169921875,0.4843471127539873,-0.7341830204524099,0.2588495640309527
1761475668861468700,7.98146875,0.4284674046218395,-0.8345769930936395,0.2043507157979533
1761475668871446000,7.991446044921875,0.43049101940393447,-0.8683193959586322,0.11958696808479725
1761475668881422800,8.0014228515625,0.4528390448123216,-0.9201616652682423,0.05340500684799626
1761475668891400000,8.01139990234375,0.5012836345076561,-0.9661569621153175,0.042516660951077936
1761475668901376800,8.021376708984375,0.5389677607357501,-0.9726255736075341,0.01476312323734164
1761475668911353900,8.031353759765626,0.4663163660228252,-0.9730993285991251,-0.037462519366666676
1761475668921330700,8.04133056640625,0.3134159610748291,-0.9212965145170688,-0.07404842029558495
1761475668931308800,8.051308837890625,0.08329904545545577,-0.8614519944071769,-0.08330662597371265
1761475668941286000,8.061285888671875,-0.23707214158475398,-0.8547467976801096,-0.0180826047825627
1761475668951262700,8.0712626953125,-0.5196382063657045,-0.8169847839102149,0.08441624944973737
1761475668961239800,8.08123974609375,-0.7061258236169815,-0.7619298361644148,0.20402692720368504
1761475668971217000,8.091216796875,-0.8056780847370624,-0.762325703614205,0.31179424162451175
1761475668981193700,8.10119384765625,-0.8578308813005685,-0.7593690457656979,0.3942305693034082
1761475668991170800,8.1111708984375,-0.9046493310987949,-0.706754330778867,0.44172516479752955
1761475669001147600,8.121147705078124,-1.0143845480591058,-0.6839360575102269,0.45229291870426386
1761475669011124700,8.131124755859375,-1.185291734340787,-0.6596038725472987,0.4309461792929098
1761475669021101800,8.141101806640625,-1.2996674705833196,-0.6529242486529052,0.3291146846618503
1761475669031079000,8.151078857421876,-1.3753420125097036,-0.7375657947584986,0.3674626085609197
1761475669041056000,8.161055908203124,-1.312694125416875,-0.904782455959171,0.5026600008947775
1761475669051032800,8.17103271484375,-1.1088427009105681,-1.0688501516096294,0.5324433639356866
1761475669061010000,8.181010009765625,-0.9602677579462527,-1.1862887825541197,0.42902478277627376
1761475669070986800,8.19098681640625,-0.9175625886857509,-1.267853113171458,0.28180600366126746
1761475669080963800,8.2009638671875,-0.899507292035222,-1.2376640188738703,-0.007286540278978645
1761475669090940700,8.210940673828125,-1.094883149141073,-1.2015865971900521,-0.14501737834690137
1761475669100917800,8.220917724609375,-1.4622341140210628,-1.1534084033459424,-0.3089300478324294
1761475669110895600,8.2308955078125,-1.6772347090512514,-0.8462599782332777,-0.5619534995257854
1761475669120872700,8.240872802734375,-1.851417556002736,-0.41416619980782265,-0.5798367275450378
1761475669130849800,8.250849853515625,-1.9827467651337385,0.11504837480708956,-0.4020215885058045
1761475669140826600,8.26082666015625,-1.9621902993172406,0.6156757373631,-0.12169464442115277
1761475669150803700,8.2708037109375,-1.8054548462510107,0.9319282370381057,0.1990020847789943
1761475669160780500,8.280780517578124,-1.5722142456531523,1.2040829440504313,0.40653738542981444
1761475669170758000,8.2907578125,-1.2647247520178555,1.3464622472450136,0.7297660807929932
1761475669180734700,8.300734619140625,-0.7381915254414081,1.4271703994244336,0.9059755382012575
1761475669190711800,8.3107119140625,-0.19496143108606337,1.4342859305180609,1.0720856994647532
1761475669200689000,8.32068896484375,0.33768881706595416,1.3080299329981206,1.2088280196856707
1761475669210665700,8.330665771484375,0.7929027743160724,1.089555962768942,1.2678417149946093
1761475669220642800,8.340642822265625,1.2621551937907933,0.9750311734445393,1.1938184474065898
1761475669230620700,8.35062060546875,1.675491664776206,0.8781627445809542,1.1710003933336586
1761475669240597800,8.36059765625,1.9016437684178351,0.739969056507945,1.2247449160680175
1761475669250574800,8.370574951171875,1.980082514360547,0.624559739433974,1.231390637692809
1761475669260551700,8.3805517578125,1.8855290844410657,0.6338619669169188,1.1375059008151291
1761475669270528800,8.39052880859375,1.5696984634399413,0.687029931872338,1.15431280483976
1761475669280505600,8.400505615234374,1.2291904973000287,0.8996319413281977,0.9445494528759271
1761475669290482700,8.410482666015625,0.997183237889409,1.1462281364530325,0.6523515633314848
1761475669300459500,8.42045947265625,0.7373387080043554,1.2407907725922762,0.41842619533985853
1761475669310436600,8.4304365234375,0.5020744926244021,1.3683350563570855,0.23839630286060273
1761475669320414000,8.4404140625,0.4329080174177885,1.480827755331993,0.13900062054172158
1761475669330390800,8.450390869140625,0.37186230482459065,1.420199537498504,0.21301451751319692
1761475669340368000,8.460367919921875,0.38807635752260683,1.3431862943142652,0.33980204636026173
1761475669350344700,8.4703447265625,0.4836591304898262,1.2662846948109567,0.43663920330274847
1761475669360321800,8.48032177734375,0.567733836492896,1.1252901239730417,0.5441054158851504
1761475669370298600,8.490298583984375,0.704703681859374,1.0403041483439504,0.570679315360263
1761475669380275700,8.500275634765625,0.7948246822893619,0.8812805843405425,0.5582481787344441
1761475669390252800,8.510252685546876,0.7739198414266109,0.6619019203566014,0.5168600103566423
1761475669400230700,8.520230712890625,0.6981120285093784,0.45415714167356486,0.3756578977152705
1761475669410207700,8.530207763671875,0.5774024130702018,0.28528014604523777,0.21237817410472778
1761475669420184600,8.5401845703125,0.49982525239288805,0.14924553570225835,0.09575290536973625
1761475669430161700,8.55016162109375,0.505060230436921,0.04480404123589396,0.04211769736190326
1761475669440138800,8.560138671875,0.562920298731327,-0.050544630714505906,0.026205600452260114
1761475669450115600,8.570115478515625,0.6637140843451023,-0.1457981717273593,0.06592887239172122
1761475669460092700,8.5800927734375,0.7379816820830106,-0.20348565993383524,0.11899998024338855
1761475669470069800,8.59006982421875,0.736475953695178,-0.2780811744518578,0.23342191198151557
1761475669480046800,8.600046875,0.633536972746253,-0.35885201660394667,0.34203060912992805
1761475669490023700,8.610023681640625,0.563537553846836,-0.4030705130368471,0.3506723268775269
1761475669500000800,8.620000732421875,0.5259744236499071,-0.47745238480418917,0.28746655017361045
1761475669509977900,8.629977783203126,0.5173462960362434,-0.6081624391235411,0.22285481566190718
1761475669519954700,8.63995458984375,0.4914619131952524,-0.7376828452669084,0.19457571970410645
1761475669529931800,8.649931884765625,0.45370063007771966,-0.8399914193578064,0.13718953426545485
1761475669539908600,8.65990869140625,0.3856494226366281,-0.9547187455169855,0.09724424903918988
1761475669549885700,8.6698857421875,0.28154139790832994,-1.0155272883534432,0.06349509677300229
1761475669559862500,8.679862548828124,0.12931611574292182,-0.9789093300521373,-0.013247114342445274
1761475669569839600,8.689839599609375,-0.09862111774981021,-0.8908785798996687,-0.11661956051341257
1761475669579817700,8.699817626953125,-0.3649924190551042,-0.7890656803712248,-0.17634985225964336
1761475669589794600,8.709794677734376,-0.5786193876445294,-0.7440962194405496,-0.23910043254196642
1761475669599771600,8.719771728515624,-0.7096452299147844,-0.7205163141496479,-0.23481192330149933
1761475669609748500,8.72974853515625,-0.785663470712304,-0.657014440575987,-0.23065792716089634
1761475669619725800,8.739725830078125,-0.8427502165466546,-0.623209493868798,-0.2515354598916136
1761475669629703000,8.749702880859376,-0.9305027342796325,-0.6349165905363857,-0.3193844775578007
1761475669639679700,8.7596796875,-1.0206628976762293,-0.6842658739864825,-0.3236214575404301
1761475669649656800,8.76965673828125,-1.0699065287947653,-0.678689681289345,-0.3399997608894482
1761475669659633700,8.779633544921875,-1.088609475699067,-0.6544394755214452,-0.316822737311013
1761475669669610800,8.78961083984375,-1.113503678458929,-0.7397066061794757,-0.0619143851865083
1761475669679587600,8.799587646484374,-1.1474772597312926,-1.0120032058805226,0.42719314690232274
1761475669689564700,8.809564697265625,-0.9225479758828878,-1.1172604006439446,0.5883786747125909
1761475669699541800,8.819541748046875,-0.5471434684067964,-0.9379420905001461,0.11921727625587955
1761475669709518600,8.8295185546875,-0.3680348554909229,-0.8012892021283506,-0.5869072504531592
1761475669719495700,8.83949560546875,-0.5857037929475307,-0.7532068698741495,-0.9038324617579578
1761475669729472500,8.849472412109375,-1.0084995816737412,-0.5998536065921187,-0.9982168187208473
1761475669739449900,8.859449951171875,-1.4310738366037605,-0.1514987214565277,-1.2561293576300143
1761475669749427700,8.869427734375,-1.8320786492824552,0.42709202461540696,-1.4298784893393515
1761475669759404500,8.879404541015624,-2.1952958753585814,0.8305744794540106,-1.1799832526691256
1761475669769382000,8.8893818359375,-2.3236019372761247,1.4842363947317003,-1.0643814086977392
1761475669779358700,8.899358642578125,-2.3185744645029307,2.053136206264049,-0.8225031820055096
1761475669789335800,8.909335693359376,-2.0342846446692944,2.3105891648374497,-0.45126679052691904
1761475669799313000,8.91931298828125,-1.6151602379322052,2.2502239818543193,0.1395482810197398
1761475669809289700,8.929289794921875,-1.1471201168566942,1.8846067088991403,0.7444792274087667
1761475669819266800,8.939266845703125,-0.6256850902020931,1.6104529370240865,0.8532728526700287
1761475669829243600,8.94924365234375,-0.05160509955286979,1.4209109006382523,0.6014861031647771
1761475669839220700,8.959220703125,0.3032774288982153,1.0318227357245982,0.4817136224452406
1761475669849197600,8.969197509765625,0.5125117154866456,0.5655209827490151,0.5668942438635974
1761475669859174700,8.979174560546875,0.8053881618797779,0.3096859807662666,0.41605829716473813
1761475669869151700,8.98915185546875,1.042862454524636,0.23616291778534648,0.0010885441553778947
1761475669879128600,8.999128662109374,1.147663137692213,0.1594005806222558,-0.26927630203180014
1761475669889106000,9.00910595703125,1.2626210577368735,0.018462708407640457,-0.44560978767853227
1761475669899082800,9.019082763671875,1.4531804544717073,0.0775846133314073,-0.7651336737070232
1761475669909059800,9.029059814453126,1.5785831961631773,0.13792422348186373,-0.9060141897112131
1761475669919036700,9.03903662109375,1.6562047805041074,0.21335589656308293,-0.8064477539353072
1761475669929014800,9.049014892578125,1.6759160276681184,0.2766372592538595,-0.5483333723111078
1761475669938991900,9.058991943359375,1.7118997797191142,0.34855902451798315,-0.27728772251922634
1761475669948968700,9.06896875,1.7925795825868844,0.4472317263245582,-0.08618075663791969
1761475669958945800,9.07894580078125,1.820419191148877,0.535898144032061,0.08877333954754285
1761475669968922600,9.088922607421875,1.7300918544918298,0.5732919090114533,0.2185381032402627
1761475669978899700,9.098899658203125,1.5148498519212006,0.5550882899314165,0.3515817333400249
1761475669988876800,9.108876708984376,1.210153788396716,0.5275723603658378,0.38159357137456534
1761475669998853600,9.118853515625,0.8792921870023012,0.5132973129063845,0.32300182780474423
1761475670008830700,9.128830810546875,0.577877629366517,0.49338849734365936,0.21101788206957278
1761475670018807600,9.1388076171875,0.34992052212953567,0.41810163956061003,0.16261705845072866
1761475670028784600,9.14878466796875,0.2699444836169481,0.3373239292763173,0.13989095697756856
1761475670038761700,9.15876171875,0.22324176915287972,0.19393354934304952,0.1542779403788969
1761475670048738800,9.16873876953125,0.19267828858494757,0.040692514263838526,0.161735161049664
1761475670058716000,9.1787158203125,0.25758184565007686,-0.03888838745132089,0.2223216586332768
1761475670068692700,9.188692626953125,0.2975450227260589,-0.1396346806615591,0.30061416450571266
1761475670078669800,9.198669921875,0.2828326067626476,-0.31870427674129603,0.3414720619317144
1761475670088646700,9.208646728515625,0.1784200461298227,-0.5004140120662749,0.24924024336021391
1761475670098624800,9.218624755859375,0.02827157023847103,-0.6444919358722865,0.0828603983098641
1761475670108601600,9.2286015625,-0.047210079464316365,-0.7093536996223032,-0.053632331064157185
1761475670118578700,9.23857861328125,-0.05423953970968723,-0.7199813304901123,-0.14990378041528166
1761475670128555800,9.2485556640625,-0.005281739795207977,-0.7709028316929936,-0.08738028688710182
1761475670138532600,9.25853271484375,0.03471650859415531,-0.8610210556440054,-0.00894599792379886
1761475670148509700,9.268509765625,0.05075578924715519,-0.8741763052932917,-0.032223705397732554
1761475670158486500,9.278486572265624,0.08792612073421478,-0.8350657995238899,-0.07717183127943426
1761475670168463600,9.288463623046875,0.0871457840114832,-0.8319998360820114,-0.05545731800161302
1761475670178440400,9.2984404296875,0.03562193300127983,-0.9086334322988986,0.01244911067392677
1761475670188417800,9.308417724609376,-0.005840542721748352,-0.9013331922881305,0.1035424267347902
1761475670198395000,9.318394775390624,-0.014978957945108413,-0.8886137037076055,0.2736738794036209
1761475670208371700,9.328371826171875,-0.02895487632751465,-0.8523289228834211,0.4709295954393223
1761475670218348800,9.338348876953125,-0.13657353952527046,-0.8439690908171236,0.5742147960100322
1761475670228325600,9.34832568359375,-0.36022096686959265,-0.8166920845739543,0.5917737605109811
1761475670238302700,9.358302734375,-0.6561871959716081,-0.7868811759389936,0.5552339454798028
1761475670248279600,9.368279541015625,-0.917064576035738,-0.7843390902407467,0.4379605880996212
1761475670258256600,9.378256591796875,-1.1541817258059979,-0.7990510678127407,0.4224416415262967
1761475670268234800,9.38823486328125,-1.345603876850009,-0.7520385567471385,0.4646671009784564
1761475670278211600,9.398211669921874,-1.5029565850317477,-0.711156511260569,0.4223860754141584
1761475670288188700,9.408188720703125,-1.5806787071377038,-0.8274836738318204,0.49835612968839704
1761475670298165500,9.41816552734375,-1.4753209746092557,-0.9392486430540681,0.5189547176135704
1761475670308142600,9.428142578125,-1.2323925082117317,-0.9998765686266123,0.46689537148717786
1761475670318119700,9.43811962890625,-0.9392477662712335,-1.029320835906267,0.32789120728150006
1761475670328096500,9.448096435546875,-0.7148451366454363,-1.0687813241571187,0.17235924825351684
1761475670338073900,9.458073974609375,-0.6726467478632927,-1.0583337260313332,0.13107307894546538
1761475670348050700,9.46805078125,-0.8138374257951975,-0.8474825057655573,-0.04396116067096591
1761475670358027800,9.47802783203125,-1.074170615980029,-0.502596762932837,-0.15505283374153075
1761475670368004600,9.488004638671875,-1.4736644395738838,-0.025834990741312503,-0.22890284538818523
1761475670377981700,9.497981689453125,-1.7721160557508469,0.5750409446358681,-0.2951283535057679
1761475670387958800,9.507958740234375,-1.8253449571132658,1.0095021828450261,-0.03709246221156791
1761475670397935600,9.517935546875,-1.713664451304078,1.4087842633843422,0.26669854223197326
1761475670407912700,9.52791259765625,-1.39752344917953,1.66429397893548,0.5658717689480632
1761475670417889500,9.5378896484375,-0.9423018931448459,1.7370999796882272,0.9523137302018702
1761475670427867600,9.54786767578125,-0.5209001891255378,1.4846651415377854,1.3038980938903986
1761475670437844700,9.5578447265625,-0.036413375639915466,1.2401917837858198,1.337903093214333
1761475670447821600,9.567821533203125,0.6267676247417926,1.1273721909441052,1.0161098374817519
1761475670457798700,9.577798583984375,1.1671908449828623,0.8689831205643713,0.8300695986717939
1761475670467775500,9.587775390625,1.3966723853081464,0.5131282399497926,0.8759599738396704
1761475670477752600,9.597752685546874,1.5097937375754118,0.23106647142916917,0.8678335121378302
1761475670487729700,9.607729736328125,1.47850194273293,0.06507876750156283,0.8041435686461627
1761475670497706800,9.617706787109375,1.3713959052324294,0.07920797674953937,0.6682439828597009
1761475670507683800,9.627683837890626,1.3039368184655904,0.3163626820512116,0.18677242554202675
1761475670517660700,9.63766064453125,1.0954694245964287,0.6072447397567331,-0.17390315322726965
1761475670527637800,9.6476376953125,0.7895423579722642,0.8608180804178118,-0.33431039014142006
1761475670537614600,9.657614501953125,0.5498731856316328,1.0316638919010759,-0.3342439373090863
1761475670547591700,9.667591796875,0.4004880953282118,1.2741063283473253,-0.32570125948917117
1761475670557568800,9.67756884765625,0.3509878591001034,1.478031987133622,-0.3290327054668218
1761475670567545600,9.687545654296875,0.3114408616095781,1.498051277333498,-0.16991570929260924
1761475670577522700,9.697522705078125,0.33975101029276844,1.459645997224003,0.047282669776491815
1761475670587499500,9.70749951171875,0.5106652108371258,1.3919222681716084,0.19032533225063233
1761475670597477600,9.7174775390625,0.8041992443561553,1.3103949085637927,0.3249119722750038
1761475670607454700,9.727454833984375,1.1162030005455017,1.1174242129035294,0.3988344463696703
1761475670617431600,9.737431640625,1.3610855236202477,0.860952958843857,0.44505471107903866
1761475670627408600,9.74740869140625,1.4402385553121566,0.6404169415183365,0.3905151289768517
1761475670637385700,9.7573857421875,1.3493027313679455,0.4507708602361381,0.2588674832801334
1761475670647362800,9.76736279296875,1.16145084002614,0.28550869410410523,0.06863956525567919
1761475670657339600,9.777339599609375,0.9559037175178527,0.1967439305886626,-0.09234722511209546
1761475670667316700,9.787316650390625,0.7843500500261783,0.12904095206335187,-0.1830024054840207
1761475670677293800,9.7972939453125,0.6294856515288353,0.03366027753949165,-0.18615137103423476
1761475670687270700,9.807270751953125,0.46579438797533507,-0.061170800277590746,-0.10395604903697966
1761475670697247700,9.817247802734375,0.36837212462127206,-0.11674772607088088,-0.057728770064935084
1761475670707224600,9.827224609375,0.3563444176971912,-0.13956307673007248,-0.024785554753616452
1761475670717201700,9.83720166015625,0.3147258746296167,-0.2552536949634552,0.027782361949421464
1761475670727178500,9.847178466796874,0.29145722724497314,-0.32873657206445933,0.043478181193303315
1761475670737155600,9.857155517578125,0.20391630643606184,-0.44996042063608765,0.021279902986530215
1761475670747132700,9.867132568359375,0.14191373150944708,-0.5549538498967885,-0.07293501569358632
1761475670757110500,9.877110595703124,0.10607143375575542,-0.6236113526679575,-0.21213757028188554
1761475670767087600,9.887087646484375,0.09540741640031337,-0.7607594772107898,-0.26063692237176
1761475670777064400,9.897064453125,0.05032207400500774,-0.8821855703562498,-0.29686242902306836
1761475670787041800,9.907041748046876,-0.09469839134812355,-0.9134368870578706,-0.28355233587194234
1761475670797019000,9.917018798828124,-0.2784311569333076,-0.8638004572294652,-0.21305066653881222
1761475670806995700,9.92699560546875,-0.434555784624815,-0.7454938112787902,-0.06765161823083181
1761475670816972800,9.936972900390625,-0.6093792675673961,-0.6731852386541665,0.07701032057479024
1761475670826949600,9.94694970703125,-0.7596569227963685,-0.6365108739905059,0.11875820737676694
1761475670836926700,9.9569267578125,-0.7985527629017829,-0.6185588915839791,0.12375165914935059
1761475670846903600,9.966903564453125,-0.7715262242883444,-0.6854767110809683,0.14628327923002651
1761475670856880600,9.976880615234375,-0.7333709734171628,-0.775355719448626,0.141892560857255
1761475670866857700,9.986857666015625,-0.7386158883333206,-0.7971377815373242,0.03449782434217632
1761475670876834600,9.99683447265625,-0.8798422221004962,-0.7325789462566376,-0.11195762398382648
1761475670886811600,10.006811767578125,-1.078171083793044,-0.6294438582137226,-0.23386242229063062
1761475670896788500,10.01678857421875,-1.275773969298601,-0.5700668094851076,-0.23539836315363644
1761475670906765800,10.026765869140625,-1.435690975010395,-0.7263846216611564,0.040087671105330805
1761475670916743700,10.03674365234375,-1.3762626344859599,-0.9494482577681541,0.3165201376352459
1761475670926720500,10.046720458984375,-1.109223224660754,-0.9587726970829069,0.23186712028756737
1761475670936697600,10.056697509765625,-0.8772966292709111,-0.9631013739369809,0.03289698328310624
1761475670946674700,10.0666748046875,-0.7052735907018184,-0.8842417722336947,-0.21480700868684796
1761475670956651800,10.07665185546875,-0.6008820728570222,-0.8239828261040151,-0.4999637110155076
1761475670966628900,10.08662890625,-0.6160504158943891,-0.5987867080129683,-0.802907450979948
1761475670976605700,10.096605712890625,-0.9045371028959751,-0.15689005910605192,-1.0919662387810647
1761475670986582800,10.106582763671875,-1.3770406331211327,0.3387188907660544,-1.1073400412626564
1761475670996559600,10.1165595703125,-1.8147931679606437,0.7316695763267577,-0.9800481248237192
1761475671006536700,10.12653662109375,-2.0400152972757817,1.1629814105942844,-0.8663014802649617
1761475671016513500,10.136513427734375,-1.911274935594201,1.4886071571618318,-0.7691294653449207
1761475671026490600,10.14649072265625,-1.493140708938241,1.7997411447793243,-0.6868981221862137
1761475671036467700,10.1564677734375,-0.9815729963034391,1.8757367353536187,-0.5160953461270779
1761475671046444500,10.166444580078124,-0.5656348183870316,1.6074742134742437,-0.12272718407297506
1761475671056421600,10.176421630859375,-0.07081541145741939,1.424010474088788,0.0006445997801609337
1761475671066398700,10.186398681640625,0.4590010745733976,1.2229888661809265,-0.07324990859534591
1761475671076376600,10.19637646484375,0.8310977726757526,1.007329807242006,-0.18745291861947624
1761475671086353700,10.206353759765625,1.0121680410534142,0.7467280292488634,-0.18396657434105873
1761475671096330800,10.216330810546875,1.14160749091506,0.6233584008201957,-0.23393629124443976
1761475671106307800,10.226307861328126,1.260089493432641,0.6428153809621929,-0.5592149414073676
1761475671116284700,10.23628466796875,1.3711948297023773,0.6485135926038026,-0.7888589057527482
1761475671126261800,10.24626171875,1.4651900412172079,0.5817448261886835,-0.9243831554207951
1761475671136238600,10.256238525390625,1.5547943242967128,0.5633658505417406,-1.0651636451166122
1761475671146215700,10.266215576171875,1.6405097832441329,0.5976647182457149,-1.186576221193373
1761475671156192800,10.27619287109375,1.6442197436779737,0.6342774158500134,-1.1995901626758276
1761475671166169600,10.286169677734375,1.546557826349139,0.6682200174622237,-0.9957774627447128
1761475671176146700,10.296146728515625,1.4279022208303211,0.6873720233082771,-0.7214854514427482
1761475671186123500,10.30612353515625,1.288866675105691,0.791005854653567,-0.5791302597761154
1761475671196100600,10.3161005859375,1.1629577374577522,0.8735970441006123,-0.5120663828719407
1761475671206077700,10.32607763671875,1.0240203914105892,0.859631500981748,-0.33379210188835856
1761475671216054800,10.3360546875,0.9057949940025806,0.77086761424914,-0.18303798825405537
1761475671226031900,10.346031982421875,0.8400701836824417,0.6967711352944373,-0.06735927965417504
1761475671236009500,10.356009521484374,0.7717436664313078,0.5965305996492505,-0.0013013283895328641
1761475671245986800,10.36598681640625,0.6716904700517654,0.41999812083169813,0.018660970926098523
1761475671255963600,10.375963623046875,0.4827297406852245,0.30253128670603036,0.04019011769965291
1761475671265940700,10.385940673828125,0.25979543004631994,0.24070801386907695,0.03878379456568509
1761475671275917800,10.395917724609374,0.15829729555547237,0.21087240918427705,0.03954977396950125
1761475671285894700,10.405894775390625,0.13731705136895178,0.06783931825608015,0.10601287196893244
1761475671295871700,10.415871826171875,0.20203063881993294,-0.10572335097044706,0.22474073900636285
1761475671305848600,10.4258486328125,0.3184866884678602,-0.20920286853685974,0.23365867987945674
1761475671315825700,10.43582568359375,0.4066805202275514,-0.33122999631538985,0.19711291003152728
1761475671325802500,10.445802490234374,0.3440191891312599,-0.48141368965059517,0.1879602470871061
1761475671335779600,10.455779541015625,0.31241233699023724,-0.6309267902478576,0.07927881349604576
1761475671345756700,10.465756591796875,0.2763105115175247,-0.7564087346553802,-0.03077723291646689
1761475671355733800,10.475733642578126,0.27626901046335695,-0.7446088451378047,-0.14524079357292502
1761475671365710800,10.4857109375,0.31823592857718463,-0.7618703610621392,-0.16660338814053682
1761475671375687700,10.495687744140625,0.38713001658320423,-0.8103427155472338,-0.1911709892945364
1761475671385664800,10.505664794921875,0.43493806194067,-0.8822622888542712,-0.1530311551881954
1761475671395643000,10.515642822265624,0.4231728053450584,-0.887158244202286,-0.09296663565207272
1761475671405619700,10.52561962890625,0.31669512887597084,-0.8672207870669663,-0.054122123875096434
1761475671415596800,10.5355966796875,0.15169687437713145,-0.8378088146217166,0.0031003406355157494
1761475671425573600,10.54557373046875,-0.08218085508048534,-0.8003028214395046,0.09717859079129994
1761475671435550700,10.55555078125,-0.296002469459176,-0.7917109341830014,0.1362633045323193
1761475671445527800,10.56552783203125,-0.4227583793252706,-0.8110458953805267,0.1975876879364252
1761475671455504600,10.575504638671875,-0.4628314465165138,-0.8729115460544824,0.2599154031641781
1761475671465481700,10.585481689453125,-0.532692333728075,-0.9642980363756418,0.36200682737305756
1761475671475458600,10.59545849609375,-0.6951701298385858,-1.0236673401892185,0.40567390046827495
1761475671485435600,10.605435546875,-0.866373668718338,-1.0514794762223958,0.2944610852360725
1761475671495412500,10.61541259765625,-0.9927695131003856,-1.0584494613654911,0.15168752202689648
1761475671505389600,10.6253896484375,-1.1464409024208784,-1.078362076320499,0.09742635500729084
1761475671515367000,10.635366943359376,-1.1592565448522567,-1.0364563868746162,0.14176957379840313
1761475671525343700,10.64534375,-1.1832990992188452,-1.0779692776106298,0.18613989979214965
1761475671535320800,10.65532080078125,-1.214597908324003,-1.1435121554926038,0.19464279359094797
1761475671545297700,10.665297607421875,-1.1466788028299808,-1.1809781089253724,0.13651545266248286
1761475671555275800,10.67527587890625,-0.9545821135252713,-1.2244555777326225,-0.0620055706012994
1761475671565252900,10.6852529296875,-0.7698638440340757,-1.2213478209756314,-0.15065584089159964
1761475671575229700,10.695229736328125,-0.6446680230915546,-1.2376818467915058,-0.2995904109485447
1761475671585206800,10.705206787109375,-0.6358785674363374,-1.1772824692778288,-0.30955555931963025
1761475671595183600,10.71518359375,-0.7090390807151794,-0.934648601912707,-0.17223777729831635
1761475671605160700,10.72516064453125,-0.8806734122276305,-0.5978504500761628,-0.07923530314788221
1761475671615137500,10.735137451171875,-1.1244599567592144,-0.30203619666546583,0.12525690347999333
1761475671625114600,10.745114501953125,-1.3058125492095947,-0.011113660819083451,0.3721271297732368
1761475671635091700,10.755091796875,-1.3467086232215166,0.2688691094703972,0.5585672180883586
1761475671645068500,10.765068603515624,-1.3054998299986122,0.4747679680258035,0.7332061382442713
1761475671655045600,10.775045654296875,-1.2357312972456216,0.8063328953839838,0.5812883145928383
1761475671665022700,10.785022705078125,-1.3269114513397215,0.9302144188575446,0.5387786679044365
1761475671674999800,10.794999755859376,-1.431289525181055,0.946492330572009,0.5619000523054972
1761475671684976600,10.8049765625,-1.3785796792566776,1.0375051652751863,0.4057878457041457
1761475671694953700,10.81495361328125,-1.1874638176828622,1.0616279452711344,0.34087968552913517
1761475671704930800,10.824930908203125,-0.8556962073594331,0.9914666138082742,0.421713254186511
1761475671714908700,10.83490869140625,-0.4564917221009731,0.8865985644929111,0.563323691900447
1761475671724885800,10.8448857421875,-0.010926467683911322,0.7973145994089543,0.5539787943195551
1761475671734862600,10.854862548828125,0.3015466595828533,0.7886980161026119,0.3664419602762908
1761475671744839700,10.864839599609375,0.5659861160427332,0.8127136824622749,0.23486367175504563
1761475671754816800,10.874816650390626,0.7129869415581226,0.8993697832606732,0.295155789501965
1761475671764793600,10.884793701171875,0.7107575750708579,0.9429824227549135,0.4939553374461829
1761475671774770700,10.894770751953125,0.7185235328972339,1.039621280646324,0.6011007571090012
1761475671784747500,10.90474755859375,0.7770207300513983,1.2062262396894394,0.6396108858324587
1761475671794724600,10.914724609375,0.867529853016138,1.2569102788746356,0.5087492942132056
1761475671804701400,10.924701416015624,1.124156589898467,1.23601420584023,0.2964041821278631
1761475671814678800,10.9346787109375,1.2347107220262288,1.362630999496579,0.09109057611450552
1761475671824656000,10.94465576171875,1.1485744073182345,1.296611590144038,0.18753584766257553
1761475671834632700,10.9546328125,1.1546949360251426,1.0736204347513616,0.42029191614650185
1761475671844609800,10.96460986328125,1.1000251882046461,1.1623264538168907,0.19801625207941978
1761475671854586600,10.974586669921875,0.8721464069008826,1.1651201761886476,0.12292535525988786
1761475671864563700,10.984563720703125,0.8042296394944191,1.1921496374115348,0.1138219748172909
1761475671874540500,10.99454052734375,0.8720762642741203,1.401186355601251,0.05072787832692265
1761475671884518700,11.0045185546875,1.0476076032251118,1.430659410583973,0.27495639349482953
