time,seconds_elapsed,z,y,x
1761475643704478000,0.03547802734375,0.4095481846183538,-0.3253152923788875,0.25483371598571536
1761475643714456000,0.0454560546875,0.4326806384027004,-0.2674056127890944,0.34677064326386897
1761475643724433000,0.055432861328125,0.37965164352655406,-0.2168202116727829,0.333230814743787
1761475643734410000,0.065409912109375,0.2742529944658279,-0.15763824712485075,0.2762948390243575
1761475643744386800,0.07538671875,0.20130700072050092,-0.11888941427469253,0.2270026560563594
1761475643754364000,0.085364013671875,0.18032266488075255,-0.12762056387141346,0.1622828763266094
1761475643764341000,0.095341064453125,0.17767887237370014,-0.14263985382691025,0.1524028854883276
1761475643774318000,0.105318115234375,0.2035223386824131,-0.1353263159431517,0.14431249974686652
1761475643784296000,0.1152958984375,0.25331658942103386,-0.13645078992843626,0.10359483277546241
1761475643794273000,0.12527294921875,0.24093232414424418,-0.15967515977993607,0.05263869865061715
1761475643804250000,0.13525,0.20525076991021632,-0.2067271260730922,0.006714476012066007
1761475643814227200,0.145227294921875,0.24023966570496558,-0.22320494427382945,-0.048387690142635255
1761475643824204000,0.1552041015625,0.3432178096204996,-0.2437077802069485,-0.06407074123648926
1761475643834181000,0.16518115234375,0.42544250384271143,-0.30457477523237464,-0.04346966909328475
1761475643844158000,0.175157958984375,0.5272545265883207,-0.3694565588571131,-0.0011417539136484266
1761475643854136000,0.185135986328125,0.6207499718874693,-0.41006007966324687,-0.01736903141941875
1761475643864113200,0.195113037109375,0.5892647002995014,-0.4816711715430021,-0.013347173758503049
1761475643874090000,0.205090087890625,0.4867909987747669,-0.5021256382897495,-0.10594199868980794
1761475643884067000,0.215067138671875,0.36206630247533317,-0.4509418328888714,-0.1740122030923143
1761475643894044000,0.2250439453125,0.22772855917811394,-0.3824224234141409,-0.1936475537422113
1761475643904021000,0.23502099609375,0.1651572444528341,-0.3539501429717988,-0.15512538752108812
1761475643913998000,0.244998046875,0.14952771364450454,-0.3474094891566783,-0.1250099886473734
1761475643923976000,0.254975830078125,0.19793138680756092,-0.3410632619351148,-0.10050034649199806
1761475643933953000,0.264953125,0.2796481315076351,-0.3388138025078922,-0.09713412146191112
1761475643943929900,0.274929931640625,0.2685597512602806,-0.3885304579656571,-0.1683213710395619
1761475643953907000,0.284906982421875,0.17216566191017627,-0.4345460669483989,-0.26138268097145484
1761475643963884000,0.294884033203125,0.07785656214058399,-0.398489834183082,-0.3303917188603431
1761475643973860900,0.30486083984375,0.0885135652333498,-0.34872429808229205,-0.4019478656824678
1761475643983838200,0.314838134765625,0.06317571035921574,-0.38614115167632695,-0.4337243387693539
1761475643993815800,0.32481591796875,0.028643326160311698,-0.4672816308584064,-0.42249731723628936
1761475644003793000,0.33479296875,0.048105566999316215,-0.5274216267835349,-0.4445033973392099
1761475644013770000,0.34477001953125,0.10901099433898925,-0.5655439982984215,-0.5415823636809364
1761475644023747000,0.3547470703125,0.17489830174446105,-0.6169282216422259,-0.5667817233998328
1761475644033724200,0.36472412109375,0.12140578100979327,-0.693542674767226,-0.5443582216024399
1761475644043701000,0.374700927734375,0.03939677536487579,-0.7309118898272514,-0.5582129978232085
1761475644053679000,0.38467919921875,-0.10468787044286727,-0.7556400153052061,-0.5482643621955067
1761475644063656200,0.39465625,-0.22745032675862312,-0.7471420168772339,-0.5258949652055278
1761475644073632800,0.4046328125,-0.2845908486068249,-0.7740914716664701,-0.4725196045771241
1761475644083609600,0.414609619140625,-0.26817338229119775,-0.8083804755635559,-0.4152470538470894
1761475644093586700,0.424586669921875,-0.2841799297183752,-0.8596081931713968,-0.4044966003172099
1761475644103563500,0.4345634765625,-0.4305588239431381,-0.8959571252729743,-0.42464660422466693
1761475644113540600,0.44454052734375,-0.585710807210207,-0.8524014035977423,-0.46860202927459027
1761475644123517700,0.454517578125,-0.6609031185775995,-0.8024401987943798,-0.5080795417254791
1761475644133495600,0.46449560546875,-0.6311351723015308,-0.7936248049803077,-0.5303298423804342
1761475644143472600,0.47447265625,-0.4761871871739626,-0.789454606623575,-0.503875623762235
1761475644153449500,0.484449462890625,-0.32167408633232114,-0.814327328203991,-0.46484885075353083
1761475644163426600,0.494426513671875,-0.17743863387703895,-0.8780250166106969,-0.43997331616152074
1761475644173403600,0.504403564453125,-0.028679566517472267,-0.9046535688824952,-0.4439114227954298
1761475644183380500,0.51438037109375,0.05622808317840099,-0.9227694366138428,-0.38685916375257073
1761475644193358600,0.524358642578125,0.08030337077081202,-0.956273939069733,-0.3265020179454237
1761475644203335400,0.53433544921875,0.17825287286937236,-0.9740547296278178,-0.32677630484215914
1761475644213312500,0.5443125,0.31717443682551383,-1.0425894097369164,-0.3314054990127682
1761475644223289900,0.554289794921875,0.41058454192876814,-1.1507665836002676,-0.2144726438996382
1761475644233266700,0.5642666015625,0.5370236409306526,-1.216985387982428,-0.18703226378830148
1761475644243243800,0.574243896484375,0.6853016467750072,-1.3063881571404634,-0.21224219970013944
1761475644253220600,0.584220703125,0.8391630057096481,-1.3601795146912337,-0.28400355023816226
1761475644263198700,0.59419873046875,0.9801958627313375,-1.4340623508952557,-0.34326216021887956
1761475644273175800,0.60417578125,1.0304705904632807,-1.5396148753434418,-0.3303931070998311
1761475644283152600,0.614152587890625,1.0325374598652124,-1.6009265453964472,-0.3233474994372576
1761475644293129700,0.624129638671875,1.023047162464261,-1.592610552471876,-0.378057725398615
1761475644303106600,0.6341064453125,0.9957675258725881,-1.5487740410938857,-0.40159569124393163
1761475644313083600,0.644083740234375,0.9245645764023065,-1.5215782833933829,-0.391506770362705
1761475644323060700,0.654060791015625,0.8479302495330572,-1.5388878762431442,-0.34713578678183254
1761475644333038600,0.66403857421875,0.7901759797006845,-1.5521693826206027,-0.32914091508165
1761475644343015700,0.674015625,0.8247481113880872,-1.5559636603370308,-0.37677079086061566
1761475644352992500,0.683992431640625,0.9092880968153476,-1.5911515858352183,-0.45425621813386674
1761475644362969600,0.693969482421875,0.9319085094243288,-1.6338751675352454,-0.522206120624952
1761475644372946700,0.70394677734375,0.8728139308989048,-1.659875870232284,-0.594373019756563
1761475644382923500,0.713923583984375,0.726527975654602,-1.692959955319017,-0.6589723697107285
1761475644392900600,0.723900634765625,0.5452876114070415,-1.6744284194588661,-0.6733578187420964
1761475644402878500,0.73387841796875,0.38277357493937014,-1.6902262925714253,-0.6036402124587447
1761475644412855600,0.74385546875,0.27712475050985813,-1.6591963635355234,-0.5580290926236658
1761475644422832600,0.75383251953125,0.19941139623224735,-1.6545184348523616,-0.6056345280811191
1761475644432809500,0.7638095703125,0.04109598049819469,-1.6516783891208469,-0.6099535603240132
1761475644442786800,0.773786865234375,-0.21652911977171896,-1.637485613117367,-0.5566442872017622
1761475644452763600,0.783763671875,-0.5308166029840707,-1.5848621303021906,-0.5174238913170993
1761475644462740700,0.79374072265625,-0.8130594271600246,-1.4560563021689652,-0.43279367032311855
1761475644472718600,0.803718505859375,-1.0079781881481409,-1.3400731307297944,-0.26989479925632476
1761475644482695700,0.81369580078125,-1.1347989799439906,-1.2993977137312291,-0.14203375942623242
1761475644492672800,0.8236728515625,-1.266020052525401,-1.3754901888087392,-0.02216444900240749
1761475644502649600,0.833649658203125,-1.4307003271162508,-1.4549834122404455,-0.023025431479606777
1761475644512626700,0.843626708984375,-1.6251146457135677,-1.4557593650490044,-0.08146613093987107
1761475644522603800,0.853603759765625,-1.695071979036927,-1.4382808453731237,-0.16441132145635784
1761475644532580600,0.86358056640625,-1.5733160694152115,-1.3957747058160601,-0.18539445171970872
1761475644542558700,0.873558837890625,-1.305937052372098,-1.3639280535697935,-0.27049550509583203
1761475644552535600,0.88353564453125,-1.0290496177494526,-1.3755568243041634,-0.3328288098141551
1761475644562512600,0.8935126953125,-0.8079086202681064,-1.4283455806836485,-0.41677375195771454
1761475644572489700,0.90348974609375,-0.719866179677844,-1.5037728698506951,-0.49202462511193007
1761475644582466600,0.913466552734375,-0.7717202855557203,-1.4831915618538856,-0.6640124827697873
1761475644592443600,0.923443603515625,-0.8898539130270481,-1.3875222796469926,-0.8318577972628176
1761475644602420500,0.93342041015625,-1.1021446645766495,-1.2089827718559651,-0.9260860138159245
1761475644612398600,0.943398681640625,-1.3109300383538007,-0.9824965408891438,-0.9122664550390094
1761475644622375700,0.953375732421875,-1.5430810901492833,-0.7091393262192607,-0.8219630837794393
1761475644632352500,0.9633525390625,-1.7703730114758014,-0.41528782424889504,-0.7296681733764707
1761475644642329600,0.97332958984375,-1.9284791683733462,-0.0735386989414692,-0.6137499569322914
1761475644652306400,0.983306396484375,-1.9994962398827074,0.22348054634481668,-0.5697380159221589
1761475644662283800,0.99328369140625,-1.9559189639627932,0.486635077560693,-0.5182887645181268
1761475644672260600,1.003260498046875,-1.7950129472136496,0.7174846913687885,-0.42740273453239347
1761475644682238500,1.013238525390625,-1.5646756668418644,0.8807575833797454,-0.2650690230676904
1761475644692215800,1.0232158203125,-1.3002537460386752,1.019099301621318,-0.04569291636701673
1761475644702192600,1.033192626953125,-0.9813339268505573,1.1454910543501375,0.15908311217091978
1761475644712169700,1.043169677734375,-0.6059136372834444,1.2807429898828266,0.3093253307603299
1761475644722146800,1.053146728515625,-0.17911854978799818,1.33577338770926,0.4775078413184732
1761475644732123600,1.06312353515625,0.28441724560558795,1.3609944843359292,0.6614730274200439
1761475644742100700,1.073100830078125,0.7483201207458973,1.3173692776210606,0.8473433895558118
1761475644752078600,1.08307861328125,1.0924603059083222,1.2672422877967358,1.0395552296727895
1761475644762055700,1.0930556640625,1.3049269985467196,1.1095844591885804,1.2647313278891146
1761475644772032800,1.10303271484375,1.3396551975786686,1.006822734502703,1.4405352001711724
1761475644782009600,1.113009521484375,1.3255594522088765,1.0019731025144458,1.5864789178490637
1761475644791986700,1.122986572265625,1.3040426169276236,1.057668978512287,1.6700437746338546
1761475644801963500,1.132963623046875,1.2782441588044167,1.0640972579941153,1.7885118947565555
1761475644811940600,1.142940673828125,1.2534820579916237,1.0582787809737026,1.8644050478696823
1761475644821918700,1.152918701171875,1.260014674630761,1.0761949614144861,1.8267627149567007
1761475644831895600,1.1628955078125,1.282902213743329,1.0704654778517781,1.7802331651024519
1761475644841872600,1.17287255859375,1.2713918086916207,0.9893648192234337,1.7556725782111287
1761475644851849500,1.182849365234375,1.1995984921127556,0.9157426797822117,1.7135460856214164
1761475644861826600,1.19282666015625,1.1801467726677655,0.8738632938213646,1.7087794557414948
1761475644871803600,1.2028037109375,1.1417945379197596,0.8388139000110327,1.765543107101321
1761475644881780700,1.21278076171875,1.0847574764460324,0.8075675517454743,1.8416089864328502
1761475644891758600,1.222758544921875,0.9940712433487177,0.7545695365294813,1.889655808982253
1761475644901735400,1.2327353515625,0.9481588024795055,0.7013925114847719,1.8908748293831943
1761475644911712800,1.242712646484375,1.039856258445978,0.5983328267656266,1.8933112627498805
1761475644921689900,1.25268994140625,1.2006693362146614,0.4619159391067922,1.843488370438665
1761475644931666700,1.262666748046875,1.3795067309737206,0.2985042231470346,1.6961029295198617
1761475644941643800,1.272643798828125,1.4393728783935307,0.12617635641247033,1.5626191727034746
1761475644951620600,1.28262060546875,1.3843039021223782,-0.026578064193576573,1.4578206814929842
1761475644961597700,1.29259765625,1.2429454664081334,-0.11445698478519915,1.292799630640447
1761475644971575800,1.302575927734375,1.0360358233749867,-0.1947051182374358,1.1540978469148278
1761475644981552600,1.312552734375,0.862197844338417,-0.273566473506391,1.034141314865276
1761475644991529700,1.32252978515625,0.7867834146529435,-0.34638175354413686,0.8899109769765287
1761475645001506600,1.332506591796875,0.7113403433948755,-0.4312417647060007,0.8485296036656945
1761475645011483600,1.342483642578125,0.47581893838346,-0.5526943805322051,0.9458248796392231
1761475645021460500,1.35246044921875,0.22102643119096754,-0.6239922417443245,1.0093130900137126
1761475645031437600,1.3624375,0.08920739271640778,-0.6313606516204774,0.9218984989982097
1761475645041415700,1.372415771484375,0.004604278925061225,-0.7028286087024956,0.7588739557251334
1761475645051392500,1.382392578125,-0.1730441983103752,-0.8798415645133704,0.58352082288526
1761475645061369600,1.39236962890625,-0.2222878294289112,-0.9998602020137012,0.3154549195565283
1761475645071346700,1.4023466796875,-0.26243454637825486,-1.0945798553455621,0.010991276548430323
1761475645081323500,1.412323486328125,-0.3422252914518118,-1.1617442700147629,-0.2715334333088249
1761475645091300600,1.422300537109375,-0.4825584757715463,-1.2214268775612116,-0.46868346048034726
1761475645101277700,1.432277587890625,-0.658960752338171,-1.2942166578315197,-0.5535233787022531
1761475645111255600,1.442255615234375,-0.7500789471119642,-1.3047896359026432,-0.5932578981215134
1761475645121232600,1.452232666015625,-0.8266308563947677,-1.2314965822853148,-0.6608467122152447
1761475645131209700,1.462209716796875,-0.9096534229964017,-1.1848603571861982,-0.7407614489946514
1761475645141186800,1.472186767578125,-1.0309610043287276,-1.175066254533082,-0.7422232651755213
1761475645151163600,1.48216357421875,-1.1032008956313133,-1.155946543521434,-0.7297115010615438
1761475645161140700,1.492140625,-1.1094868440330028,-1.0624464220471679,-0.7539641179822385
1761475645171117800,1.502117919921875,-1.167178570023179,-0.9891834713071584,-0.8142841466493904
1761475645181095700,1.512095703125,-1.3650637796014546,-1.018567386701703,-0.6865881794542074
1761475645191072800,1.52207275390625,-1.4633575650930404,-1.1568671654976903,-0.3991811409154907
1761475645201049600,1.532049560546875,-1.366866445109248,-1.2441104185342788,-0.08918375611249357
1761475645211026700,1.542026611328125,-1.115355443805456,-1.2408347578644752,0.051418856265768406
1761475645221003800,1.552003662109375,-0.7773340337842702,-1.2438397848993539,-0.004382635531015694
1761475645230980600,1.561980712890625,-0.47933483754992484,-1.175638063071668,-0.23496311354152857
1761475645240957700,1.571957763671875,-0.34326457137167454,-1.0981447812855243,-0.5027891436997801
1761475645250935800,1.581935791015625,-0.38958383947610853,-0.9318458194516599,-0.7298556587725877
1761475645260912600,1.59191259765625,-0.5835521678715944,-0.6728383249126374,-0.9022923927091061
1761475645270889700,1.6018896484375,-0.9485060084819793,-0.2674618730209768,-1.0103682250898331
1761475645280866600,1.611866455078125,-1.3358219030261038,0.12075009358003735,-1.047854709853977
1761475645290843600,1.62184375,-1.70351481321156,0.48130292275249953,-1.031623413760215
1761475645300820500,1.631820556640625,-2.0237971529245375,0.8561911512695253,-1.0575484208725392
1761475645310797600,1.641797607421875,-2.211650797832012,1.234313247141242,-0.9662367493532598
1761475645320775000,1.65177490234375,-2.1103180830359456,1.5948688527926802,-0.8545333741251379
1761475645330752500,1.66175244140625,-1.7338561754614115,1.7960346914768217,-0.8022606044437736
1761475645340729600,1.6717294921875,-1.3272066348940132,1.7067928119689224,-0.7204111732747406
1761475645350706700,1.681706787109375,-0.9976035091280937,1.4710574719458818,-0.6932350701227784
1761475645360683800,1.691683837890625,-0.663099167317152,1.3272699093885718,-0.8594565097410232
1761475645370660900,1.701660888671875,-0.25629765105843544,1.2894148105077445,-1.1297060407191515
1761475645380637700,1.7116376953125,0.2370744796723127,1.234199557633698,-1.3544503233894705
1761475645390614800,1.72161474609375,0.7773036386460065,1.1007760065719485,-1.4779482543729245
1761475645400592600,1.731592529296875,1.3425713772863148,0.9763638833530247,-1.5184718418106435
1761475645410569700,1.74156982421875,1.8642250151276587,0.8796611664451658,-1.5150265236623583
1761475645420546800,1.751546875,2.3192180231034754,0.8164756653442978,-1.5017042468830941
1761475645430523600,1.761523681640625,2.6622815189450977,0.7674673042863607,-1.409606247291714
1761475645440500700,1.771500732421875,2.80571500736773,0.685390640232712,-1.2153289260122924
1761475645450477600,1.7814775390625,2.80109027017653,0.6512533928312361,-0.9941484002381563
1761475645460454700,1.79145458984375,2.7418291029125452,0.6832637112066149,-0.8712686011530458
1761475645470431500,1.801431396484375,2.5730957535386083,0.6970471757568418,-0.8744947966579347
1761475645480409600,1.81140966796875,2.3071014688521623,0.6141472126215696,-0.8937336040046066
1761475645490386700,1.82138671875,1.9834049367815254,0.3931380248263478,-0.9127443016838281
1761475645500363500,1.831363525390625,1.6976766085773705,0.17484145699068904,-0.8443377049338072
1761475645510340600,1.841340576171875,1.5162258164495228,0.01843888914063573,-0.7181728928286581
1761475645520317700,1.851317626953125,1.4147422950059174,-0.029656010334193704,-0.5939323998495936
1761475645530294800,1.861294677734375,1.3888175801545382,-0.0418332087315619,-0.4224848961461335
1761475645540271900,1.87127197265625,1.3579483946383,-0.055542000610381365,-0.19902261611036956
1761475645550249500,1.88124951171875,1.3216490007668733,-0.0825235310383141,0.007427884978428482
1761475645560226600,1.8912265625,1.2116191847741604,-0.18582243134081364,0.19807064914777875
1761475645570204000,1.901203857421875,1.0637293014645577,-0.2679670460641384,0.2770084306538105
1761475645580180700,1.9111806640625,0.883746243801713,-0.3105414285518229,0.3425516738619655
1761475645590157800,1.92115771484375,0.6736807670861482,-0.44299905719086524,0.42100342541672287
1761475645600134700,1.931134765625,0.46773032447397705,-0.5706063231892884,0.48289727927185594
1761475645610111700,1.94111181640625,0.2803670934319496,-0.6613571459554135,0.47922779697887596
1761475645620088600,1.951088623046875,0.16721359246075151,-0.7192595920868218,0.4743503271356225
1761475645630066700,1.961066650390625,0.010448913300037383,-0.7756874356210232,0.4034487717647105
1761475645640043800,1.971043701171875,-0.07187514964342116,-0.7944688545890152,0.304654270209372
1761475645650020600,1.9810205078125,-0.1360924780100584,-0.7550162573836744,0.281992648807168
1761475645659997700,1.990997802734375,-0.31404607567191123,-0.8101337489716708,0.41891807051002977
1761475645669974500,2.000974609375,-0.733199123981595,-0.8910004527136683,0.6328617768984287
1761475645679951600,2.01095166015625,-1.164263559359312,-0.865131559702754,0.7537783130865544
1761475645689928700,2.0209287109375,-1.429355342248082,-0.7700808477856218,0.8268016098517924
1761475645699906600,2.030906494140625,-1.5834107624500988,-0.7589435138300061,0.9139637604761868
1761475645709883600,2.040883544921875,-1.6395383078634738,-0.8468056294173002,0.8561443895183503
1761475645719860700,2.05086083984375,-1.7145581852734089,-0.9867837166890502,0.6813682528488337
1761475645729837600,2.060837646484375,-1.9225836805939673,-1.145583701069653,0.49260143861919636
1761475645739814700,2.070814697265625,-2.1737550746798515,-1.2385817182406782,0.3108511520881206
1761475645749791700,2.080791748046875,-2.319287581208348,-1.3454564312033355,0.2502399584546685
1761475645759768800,2.090768798828125,-2.2678800500541922,-1.515324045304209,0.2976137040480971
1761475645769746700,2.10074658203125,-1.9773954672336578,-1.6738658171400427,0.3422765101823956
1761475645779723500,2.1107236328125,-1.6441998699337244,-1.660475735821575,0.27584852002896365
1761475645789700900,2.120700927734375,-1.4242618185013531,-1.5846951031722127,0.2183548008289188
1761475645799677700,2.130677734375,-1.2248194426089525,-1.3466587927304208,0.021396935228630898
1761475645809654800,2.14065478515625,-1.2426695720762013,-1.0236028966508806,-0.23089571797214448
1761475645819631600,2.150631591796875,-1.4976076252192259,-0.6546307603098451,-0.40029286501705647
1761475645829608700,2.160608642578125,-1.9143366612523793,-0.26218188679143783,-0.3791359490893781
1761475645839585800,2.170585693359375,-2.2685873215407133,0.15289090646728873,-0.22767492929473518
1761475645849563600,2.180563720703125,-2.317823938396573,0.6570233545348048,-0.15883640740085392
1761475645859540700,2.190540771484375,-2.13020994746387,1.1405436610758304,0.017319365325104443
1761475645869517600,2.200517578125,-1.7976245910167694,1.4183824050739406,0.2777015092181973
1761475645879494700,2.21049462890625,-1.3434949218720198,1.5440217320002614,0.6506286850616335
1761475645889471700,2.2204716796875,-0.7843833677738904,1.456472774015367,0.9352395535431802
1761475645899448600,2.230448486328125,-0.29644202992022034,1.225549802710116,0.981302654929459
1761475645909425700,2.24042578125,0.06754091983139515,1.0132890079073607,0.7916206255510448
1761475645919402500,2.250402587890625,0.47144262299537654,0.9979419473022222,0.6101640978021546
1761475645929380600,2.260380615234375,0.8819242890715598,1.0510179961904882,0.6012640579119324
1761475645939357700,2.270357666015625,1.2555080108612775,1.0209987055018543,0.7645338081177323
1761475645949334500,2.28033447265625,1.620121075209975,0.9189961286202073,1.0326136669065802
1761475645959311600,2.2903115234375,1.9251199210733174,0.8100558614298701,1.2821046336248516
1761475645969288700,2.300288818359375,2.141006651288271,0.7482359495937824,1.396218942452222
1761475645979265800,2.310265869140625,2.2268664871424435,0.73071870534271,1.3316603994324803
1761475645989243000,2.320242919921875,2.2071979100763794,0.8693512232244014,1.181369300200045
1761475645999219700,2.3302197265625,1.970906689736247,1.1086053850233555,0.9994939990498125
1761475646009197800,2.34019775390625,1.5835048704743384,1.335202602083981,0.8770433851622045
1761475646019174700,2.350174560546875,1.1930021625876426,1.4497352824538945,0.7973042972106487
1761475646029151700,2.36015185546875,0.8864157552719115,1.544559053747356,0.7406149531960486
1761475646039128800,2.37012890625,0.7847568772614002,1.650588109666109,0.6998113797731698
1761475646049105700,2.380105712890625,0.8739163391828536,1.6650746079191565,0.7267037706129252
1761475646059082800,2.390082763671875,1.1347919656813144,1.5163354143038392,0.9178557264134287
1761475646069059600,2.4000595703125,1.4979630145281553,1.2219792507469653,1.128093637086451
1761475646079038000,2.410037841796875,1.8606120853275059,0.9094707599058747,1.292690471177548
1761475646089015000,2.42001513671875,2.1076351275622844,0.6272483939960598,1.3210956046678126
1761475646098992000,2.4299921875,2.1199171015083786,0.27263065396100283,1.314541068457812
1761475646108969000,2.439968994140625,2.0227935288399457,-0.0014683189868927,1.1895558945912867
1761475646118946000,2.449946044921875,1.8052748135089873,-0.19180442835986614,0.996147318970412
1761475646128923000,2.4599228515625,1.5961679526925086,-0.27709435537159444,0.7572025153815746
1761475646138900000,2.46989990234375,1.3513842138171195,-0.27947160589694975,0.6068944284817204
1761475646148876800,2.479876708984375,1.0944891813874245,-0.34158787033110855,0.5490501057457179
1761475646158855000,2.48985498046875,0.8311889580905437,-0.400245226483047,0.514814439471066
1761475646168832000,2.49983203125,0.5751999345898627,-0.4747770281150937,0.4888345603663474
1761475646178808800,2.509808837890625,0.3241425222724676,-0.5402141075350344,0.4591461090672761
1761475646188786000,2.519785888671875,0.0680441931784153,-0.6074370474584401,0.40793621937707064
1761475646198763000,2.529762939453125,-0.18403496340215206,-0.6728752959221601,0.31174762600380923
1761475646208740000,2.539739990234375,-0.3592500760108232,-0.7488974822424351,0.26605969633916393
1761475646218717200,2.54971728515625,-0.44365912853479383,-0.8528418408416211,0.20884375290088356
1761475646228694000,2.559694091796875,-0.42641690183281894,-0.9126640029892324,0.18212445360571144
1761475646238672100,2.569672119140625,-0.41073827118575573,-0.9765912623681128,0.2291616972537711
1761475646248649200,2.579649169921875,-0.4041115465223789,-0.9993902464143931,0.2528794766454026
1761475646258626000,2.5896259765625,-0.46577042257785795,-1.0125441808894275,0.2469866557471454
1761475646268603100,2.59960302734375,-0.5882300965547561,-1.0351898740701377,0.2686961275236681
1761475646278580000,2.609580078125,-0.7548585826039313,-1.0541545406505466,0.27965331913940605
1761475646288557000,2.61955712890625,-0.9268331058561802,-1.0162412818416953,0.20402024173457176
1761475646298534000,2.629533935546875,-0.9983347460120916,-0.8580828102350234,0.07690708852917887
1761475646308512000,2.639511962890625,-0.9865683203727006,-0.6618785394810139,-0.0626833602650091
1761475646318489000,2.649489013671875,-1.0411381149500607,-0.5221534040570259,-0.06423720667746384
1761475646328466000,2.6594658203125,-1.1951415127038956,-0.3894716112732887,-0.019249913262575864
1761475646338443000,2.669443115234375,-1.3969722450375557,-0.3405190720558166,0.03859379298549611
1761475646348419800,2.679419921875,-1.57098791872859,-0.4275033818952739,0.18536504296213388
1761475646358397000,2.68939697265625,-1.5440870523214338,-0.5984475391864776,0.22973944234279914
1761475646368374000,2.6993740234375,-1.3161124094277619,-0.6936822293683886,0.10431614192049019
1761475646378350800,2.709350830078125,-1.0641121633023023,-0.7116279281646013,-0.08771730942227877
1761475646388329000,2.719328857421875,-1.0288637397885323,-0.7305348732084035,-0.2188863686886616
1761475646398306000,2.72930615234375,-0.9475234271854162,-0.7340747377723456,-0.5207113154899329
1761475646408283000,2.739282958984375,-0.9258645530849695,-0.5636462749183178,-0.8996174013461917
1761475646418260200,2.74926025390625,-1.035316861450672,-0.09581409750506281,-1.2697545628786087
1761475646428237000,2.759237060546875,-1.30459031393826,0.44394861300066113,-1.3921949476331472
1761475646438214100,2.769214111328125,-1.6080086126118898,0.8391727964513004,-1.283634181279689
1761475646448191000,2.77919091796875,-1.7486363959640263,1.2286515681177377,-1.3065857255391775
1761475646458168000,2.78916796875,-1.7650661372393368,1.4992546617738902,-1.2488709109343588
1761475646468146200,2.799146240234375,-1.5385715037703513,1.7152883992440997,-1.2008666123524308
1761475646478123000,2.809123046875,-1.0791139176011084,1.8324103654548525,-1.1842222054131328
1761475646488100000,2.81910009765625,-0.4980231714069843,1.762107141303271,-1.1065256561398507
1761475646498077000,2.829076904296875,0.01265372986793518,1.5673723585799335,-1.0632533545158802
1761475646508054000,2.839053955078125,0.4348556443542242,1.4082478184200822,-1.047323087195307
1761475646518031000,2.849031005859375,0.7392477564960718,1.178183948162198,-0.9641934069573879
1761475646528008000,2.859008056640625,1.0266378804326057,0.9540852699190377,-0.9191481043115257
1761475646537986000,2.868986083984375,1.3718933333605527,0.8536316760450601,-0.9342153250619769
1761475646547963000,2.878962890625,1.702994588729739,0.8415873102471232,-1.0188294717039912
1761475646557940000,2.88893994140625,1.9760072277456522,0.8564546245113015,-1.1133951035179197
1761475646567917000,2.8989169921875,2.079782074996829,0.9118184920758008,-1.164708234386891
1761475646577894000,2.908893798828125,1.9554256274878978,0.9452002449348569,-1.1426977703697978
1761475646587871000,2.91887109375,1.7428081282019614,0.9646849898666143,-1.157451395126432
1761475646597848000,2.92884814453125,1.6119184795320034,0.9609497488610446,-1.1803509900029747
1761475646607825200,2.9388251953125,1.6046066952139137,0.9040180474579333,-1.2171126676239072
1761475646617802000,2.948802001953125,1.67078392547667,0.7580109091550111,-1.188196442806348
1761475646627779800,2.95877978515625,1.7592179957330225,0.5426483489446342,-1.1251479390233754
1761475646637757200,2.968757080078125,1.6847487379431723,0.30440102610066533,-0.9988487599488347
1761475646647734000,2.978734130859375,1.440140940156579,0.13628200923278927,-0.8342392855718731
1761475646657711000,2.988711181640625,1.186380698621273,0.10765139642357825,-0.6565460193466395
1761475646667688200,2.998688232421875,0.9634808747738599,0.1742749091491103,-0.5882967320501804
1761475646677665000,3.0086650390625,0.7816787849903106,0.17286986465677617,-0.5005213448982686
1761475646687642000,3.01864208984375,0.6475818647116423,0.09942381243482232,-0.38271022737957533
1761475646697620000,3.028619873046875,0.46242754189074037,-0.003505377772450447,-0.28003932278230786
1761475646707597000,3.03859716796875,0.2596346865266561,-0.1286550214856863,-0.1524507614843547
1761475646717574100,3.04857421875,0.09694237088263034,-0.20258622687608002,-0.033942236286029215
1761475646727551000,3.058551025390625,0.017393033349514007,-0.3046076545886695,0.024599457596987485
1761475646737528000,3.068528076171875,-0.04212590806782245,-0.45067456025481223,0.05198511184640228
1761475646747505000,3.0785048828125,-0.03076864775121212,-0.6962858359955251,0.019830635759979485
1761475646757482000,3.08848193359375,-0.04533902489542961,-0.9215138105295598,-0.025399375803023577
1761475646767458800,3.098458740234375,-0.040486324167251585,-1.1126007382698357,-0.05703925343081355
1761475646777437000,3.10843701171875,-0.09607494039833545,-1.2243003871709108,-0.143599419574067
1761475646787414000,3.1184140625,-0.20294775366485118,-1.2834268221393226,-0.26579225930832323
1761475646797390800,3.128390869140625,-0.35798224803209305,-1.38559233449772,-0.32242234741635617
1761475646807368000,3.138367919921875,-0.5044751240253448,-1.4677331498287618,-0.3822339881699532
1761475646817345000,3.148344970703125,-0.6591016221135855,-1.5547779576838017,-0.35545134131498635
1761475646827322000,3.158322021484375,-0.7887193511515855,-1.625868532820791,-0.340517829946801
1761475646837299200,3.16829931640625,-0.9076157796889543,-1.6682491463020444,-0.28205840751975775
1761475646847276000,3.178276123046875,-1.0776648878365755,-1.658505166400969,-0.25027576042041183
1761475646857254100,3.188254150390625,-1.2337848393529653,-1.620915732719004,-0.15741211021877824
1761475646867231200,3.198231201171875,-1.3870020551651716,-1.5170241272203624,-0.054902972054481504
1761475646877208000,3.2082080078125,-1.582297248250246,-1.389276429837942,0.03640826107338071
1761475646887185200,3.21818505859375,-1.8073428519546983,-1.2441148024484514,0.11006956348121165
1761475646897162000,3.228161865234375,-2.0156898343145846,-1.116352199757844,0.15126432817876337
1761475646907139000,3.23813916015625,-2.1677181326031683,-1.0528577788382767,0.2152210328478366
1761475646917116000,3.248115966796875,-2.1348235787391663,-1.161345479955524,0.3448378851030022
1761475646927093000,3.258093017578125,-1.9171043724000454,-1.2993313704967497,0.4567352850658819
1761475646937071000,3.268071044921875,-1.642130077922344,-1.2288583427362143,0.4604818877156824
1761475646947048000,3.2780478515625,-1.5460907933592796,-1.1352940699845553,0.5127999578434974
1761475646957025000,3.28802490234375,-1.6085411120533941,-1.0720033549435437,0.5917270352924242
1761475646967001900,3.298001953125,-1.7717168273001909,-0.9013540889456868,0.6142417590372264
1761475646976979000,3.30797900390625,-1.9569307713538406,-0.5091928001970052,0.4552952788580209
1761475646986956000,3.3179560546875,-2.05991768309772,-0.11518471453785896,0.2748670347109437
1761475646996932900,3.327932861328125,-2.136897462403774,0.23554946206212043,0.16047042007716372
1761475647006910200,3.33791015625,-2.164254255884886,0.5583589821651578,0.12236157476413063
1761475647016887800,3.3478876953125,-2.0959294921994207,0.792215376573801,0.23141561366040259
1761475647026865000,3.357864990234375,-1.7594272545695304,1.0865440676018594,0.30211276903301476
1761475647036842000,3.367842041015625,-1.2566963438630103,1.183594575034082,0.43718660805244
1761475647046819000,3.377819091796875,-0.5313561166882514,1.100071949955821,0.6643111734554171
1761475647056796200,3.387796142578125,0.3456219481527805,1.0439379748016595,0.8425961950287222
1761475647066773000,3.39777294921875,1.2009212651491163,1.1067106573179364,0.9390743824657052
1761475647076750000,3.40775,1.8559686434358358,1.0514452816918491,1.179929988111928
1761475647086727200,3.41772705078125,2.275957558047771,0.9385799500122666,1.472362417064607
1761475647096705300,3.427705322265625,2.570333887609839,0.8836375227302312,1.6635782318815588
1761475647106682000,3.43768212890625,2.652240017402172,0.8446072425901889,1.7681459830760955
1761475647116659200,3.4476591796875,2.4921324575543404,0.8265729887276887,1.7953243512503803
1761475647126636000,3.457635986328125,2.222316568753123,0.9764867790803312,1.621885746794939
1761475647136613000,3.467613037109375,1.9602450104683637,1.342671622790396,1.3422303087636827
1761475647146590200,3.477590087890625,1.6973948690265417,1.7862310903429983,1.0282947077289224
1761475647156567000,3.487567138671875,1.500764627945423,2.055609464509785,0.8163681133165955
1761475647166544100,3.497544189453125,1.3283067050904034,2.1347657110720872,0.7864436613045632
1761475647176522200,3.507522216796875,1.2009358781963586,2.1406915939897297,0.7909634037513286
1761475647186499000,3.5174990234375,1.0765303308486938,2.082187674833834,0.7702788545757532
1761475647196476200,3.52747607421875,1.0057798013210295,1.9943284818559883,0.6662616499360651
1761475647206453000,3.537452880859375,1.025619058778882,1.8805252848044036,0.5115365137789398
1761475647216430000,3.54743017578125,1.1010673907339572,1.7044067936152218,0.418782972888276
1761475647226407200,3.5574072265625,1.1637287218302488,1.4104475204214453,0.4398113305328414
1761475647236384300,3.56738427734375,1.2554711859822272,1.0499410146087407,0.5413943668281659
1761475647246361300,3.577361328125,1.317796416991949,0.7242986091673373,0.5627680307790637
1761475647256339200,3.587339111328125,1.2643646865338087,0.49122722765654325,0.48672772428020833
1761475647266316300,3.59731640625,1.078687801143527,0.31812998398467895,0.3395178225914016
1761475647276293000,3.607293212890625,0.8109978184551,0.22075915855690836,0.1644630516435951
1761475647286270200,3.617270263671875,0.5188713136464357,0.1479598798058927,-0.00836509276330471
1761475647296247300,3.627247314453125,0.3224789729744196,0.06582666325941681,-0.21462686634697017
1761475647306224000,3.63722412109375,0.1802723959982395,0.009390782549232243,-0.3958477221764624
1761475647316201200,3.647201171875,0.0328606515944004,-0.07247647653743625,-0.5069751972127705
1761475647326178000,3.657177978515625,-0.10384791248738764,-0.22134455722942947,-0.4979185419887304
1761475647336156200,3.66715625,-0.17693302244246004,-0.337348771456629,-0.4513596199095249
1761475647346133200,3.67713330078125,-0.15680267308354376,-0.41608942295536394,-0.42769181713946164
1761475647356110000,3.687110107421875,-0.10063654922544955,-0.5167065368279814,-0.4246761225800961
1761475647366087200,3.697087158203125,-0.06754208887517452,-0.6564008387222886,-0.4290587215784937
1761475647376064000,3.70706396484375,-0.042433366581797596,-0.7862029844164848,-0.29598909852094946
1761475647386041000,3.717041015625,-0.08041735253930091,-0.8876834371201694,-0.16926548348926007
1761475647396018000,3.727017822265625,-0.10228256286680698,-0.8943778201922774,-0.13643771125115453
1761475647405995000,3.7369951171875,-0.08020692465901375,-0.8580652745783328,-0.1796141512852162
1761475647415972400,3.746972412109375,-0.025490999609231946,-0.9108629449166357,-0.2286965274274349
1761475647425950000,3.756949951171875,0.01100070196390152,-1.0200368747323751,-0.19717143528573214
1761475647435927000,3.766927001953125,0.05778408044874668,-1.0774107669450341,-0.13889233786165714
1761475647445904100,3.776904052734375,0.08796703726649284,-1.0595404714725911,-0.03606945757307112
1761475647455881200,3.786881103515625,-0.02736322322189808,-0.9879419468134641,0.0726146428991109
1761475647465858300,3.7968583984375,-0.26090076093971726,-0.9568713935062289,0.1457727450251579
1761475647475835100,3.806835205078125,-0.5521007985532284,-0.864798528356105,0.11068725698813796
1761475647485812200,3.816812255859375,-0.8455009765595197,-0.6927446562573313,0.015205240981653332
1761475647495790300,3.826790283203125,-1.066438560423255,-0.4712031151510775,-0.13785071985423564
1761475647505767200,3.83676708984375,-1.3062661381959915,-0.33313159215301275,-0.21194274182952938
1761475647515744300,3.846744140625,-1.5587994682848452,-0.40565526883304115,-0.11395780309140681
1761475647525721000,3.85672119140625,-1.797446311840415,-0.7467563785605132,0.12544007802717386
1761475647535698200,3.8666982421875,-1.7278145572096109,-1.0137235999323426,0.24420835014022885
1761475647545675000,3.876675048828125,-1.469255390959978,-1.009041579595953,0.1210042144715786
1761475647555652000,3.886652099609375,-1.265223933711648,-1.030576388925314,-0.007221037294715642
1761475647565629200,3.896629150390625,-1.0825263563930987,-1.0318730046071112,-0.20504848880376667
1761475647575606000,3.90660595703125,-0.9036474605798721,-0.7971179077930748,-0.6952618997752666
1761475647585583000,3.9165830078125,-1.0139631077766418,-0.39810470732301473,-1.2527566663265228
1761475647595561000,3.92656103515625,-1.4691560222387312,-0.01930719640776515,-1.5309360404558479
1761475647605538000,3.9365380859375,-2.0203303535968065,0.3065431526958942,-1.4944208118766544
1761475647615515100,3.94651513671875,-2.2281705554783344,0.8375313128545879,-1.4907599512815475
1761475647625492000,3.956491943359375,-2.0811381657809016,1.4577460088215768,-1.3888259095914661
1761475647635469300,3.96646923828125,-1.742756690275669,1.8138770760290324,-1.0077953058619051
1761475647645446100,3.976446044921875,-1.2332242828607558,1.9770969226785002,-0.5147720981666818
1761475647655423200,3.98642333984375,-0.7045277407705783,1.9031185171455143,0.008163213515654206
1761475647665400000,3.996400146484375,-0.3280734319806099,1.788019288934022,0.3192674635820091
1761475647675378200,4.006378173828125,-0.046488194930553436,1.66738536907956,0.46670123715456574
1761475647685355300,4.016355224609375,0.22388532775342462,1.4854527847841381,0.5799769032007083
1761475647695332000,4.02633203125,0.5565373196959496,1.3588809993132949,0.5471091277457774
1761475647705309200,4.03630908203125,0.954414940264821,1.2587842560529707,0.32456319536995143
1761475647715286300,4.046286376953125,1.2031722589462994,1.1346014115452765,0.02646780875213444
1761475647725263000,4.05626318359375,1.2670435503542423,1.046291698320955,-0.29288280306868253
1761475647735240200,4.066240234375,1.2661883948296309,1.0231116060025989,-0.6409514137212187
1761475647745217000,4.076217041015625,1.2920599181890486,1.0613457673288882,-0.9238472219131887
1761475647755194000,4.086194091796875,1.3302350428044796,1.0028241663858295,-1.015528603527695
1761475647765172200,4.096172119140625,1.4212275653719901,0.89137951515913,-0.9704682494431733
1761475647775149000,4.106149169921875,1.5568372283011673,0.8133553413666784,-0.8977489040605723
1761475647785126100,4.116126220703125,1.6563585097610949,0.6871686096906662,-0.7416269067175686
1761475647795103000,4.12610302734375,1.7365671879857778,0.5462545567430556,-0.5527686148121953
1761475647805080000,4.136080078125,1.731872892689705,0.41749534423053264,-0.3509498651772737
1761475647815057200,4.14605712890625,1.6383090583294628,0.34945860370621085,-0.14193703931979834
1761475647825034200,4.1560341796875,1.4886539189130068,0.3595575345247984,0.01834627895373851
1761475647835011300,4.16601123046875,1.376842480200529,0.4182506926424801,0.0994986312367022
1761475647844989200,4.1759892578125,1.271669456589222,0.4529441126219928,0.13286540572233496
1761475647854966300,4.18596630859375,1.0940694946706295,0.3575074701271951,0.18099976042471824
1761475647864943000,4.195943115234375,0.8982388795346021,0.1946801299266517,0.23658391967639325
1761475647874920200,4.205920166015625,0.7700298482507467,0.009671206925809382,0.21667261989563702
1761475647884897300,4.215897216796875,0.711328068435192,-0.18654080874323845,0.2444881899949163
1761475647894874000,4.2258740234375,0.6775339353829621,-0.41419104198813433,0.22562033485248684
1761475647904851200,4.235851318359375,0.635946371975541,-0.6290634805940091,0.17307744299285113
1761475647914828000,4.245828125,0.5562994192868471,-0.8232457440011203,0.13784757804907857
1761475647924806100,4.25580615234375,0.45283086150586604,-0.9879843246504664,0.12992518755197524
1761475647934783200,4.265783203125,0.381087813809514,-1.084667898466438,0.07994462046101689
1761475647944760000,4.275760009765625,0.3037263417094946,-1.1129381535306573,-0.044750995874404904
1761475647954737200,4.285737060546875,0.2153676747769117,-1.1523337598517536,-0.2198864673756063
1761475647964714000,4.2957138671875,0.17598901959061622,-1.1780923243559895,-0.4870124595057219
1761475647974691000,4.305691162109375,0.05418342560827732,-1.2315280003368854,-0.7628662402316927
1761475647984668200,4.315668212890625,-0.24241700974404812,-1.371565562710911,-0.919890885502845
1761475647994645000,4.32564501953125,-0.594047258400917,-1.534310339194536,-0.9590262334525584
1761475648004622300,4.335622314453125,-0.8954746755182742,-1.5791048819497226,-0.9153811529934406
1761475648014600000,4.345599853515625,-1.1555161892801522,-1.4905097759127617,-0.8401900106698275
1761475648024577000,4.355576904296875,-1.4004209241867065,-1.3492315658278762,-0.7048619411610066
1761475648034554400,4.365554443359375,-1.5093191058009863,-1.2240328222759067,-0.6167506731182336
1761475648044531200,4.37553125,-1.5247534062981605,-1.1519129040911793,-0.4710912157418206
1761475648054508300,4.38550830078125,-1.5284610286444424,-1.116678947494179,-0.27298534915018824
1761475648064485000,4.395485107421875,-1.4787059408724308,-1.0149990266956388,-0.12286124051511287
1761475648074462200,4.405462158203125,-1.4730471844583748,-0.9577236264213919,0.03319941856209189
1761475648084439000,4.41543896484375,-1.564473422268033,-1.012900593111664,0.25833975134529175
1761475648094417200,4.425417236328125,-1.6018348924130201,-1.1269805612780153,0.46090690819472074
1761475648104394200,4.435394287109375,-1.4391647886008023,-1.1556588126212357,0.38264344575367865
1761475648114371000,4.44537109375,-1.2434206827044487,-1.087265075352788,0.13595635747499762
1761475648124348200,4.45534814453125,-1.2866606894940138,-1.049550846247375,-0.0454625051446259
1761475648134325000,4.465324951171875,-1.552391939330101,-0.9434165763884782,-0.1912168377302587
1761475648144302000,4.475302001953125,-1.8295014922708273,-0.6111829559884965,-0.3902488061908632
1761475648154279200,4.485279052734375,-2.040475316002965,-0.16575959426015616,-0.5251794008146972
1761475648164256000,4.495256103515625,-2.1102426797121763,0.21979425904750824,-0.48578196786269545
1761475648174234000,4.505234130859375,-1.9788783992677925,0.5329270192667842,-0.36946426723953335
1761475648184211200,4.515211181640625,-1.6085568941444157,0.7324753397516905,-0.2807435072625987
1761475648194188000,4.52518798828125,-1.1506126351475714,0.8093854148223996,-0.17923859597109257
1761475648204165000,4.5351650390625,-0.6614560762852429,0.7871532708786427,-0.07011442358121275
1761475648214142200,4.54514208984375,-0.2994423807799816,0.6990057624787092,0.13545920334151013
1761475648224119300,4.555119384765625,-0.07866320234835147,0.6069181381508708,0.4950550788490101
1761475648234096000,4.56509619140625,0.0713508335083723,0.6156964878901839,0.8352330458495766
1761475648244073200,4.5750732421875,0.34508827966749667,0.7458060920983552,0.9727476656172424
1761475648254050300,4.58505029296875,0.7945417736947537,0.9240046044319867,1.0192378333091736
1761475648264028200,4.595028076171875,1.3757874181896448,1.044989237420261,1.0378746561747043
1761475648274005200,4.605005126953125,1.9472195246785877,1.0562477135375141,1.2004529169850051
1761475648283982000,4.614982177734375,2.474874448761344,0.9612368952393531,1.4136689666859805
1761475648293959200,4.624959228515625,2.929699114432931,0.8478332188993692,1.6204595133841038
1761475648303936300,4.634936279296875,3.1351357623040674,0.7499190803751349,1.784939296966791
1761475648313913000,4.6449130859375,2.9487586196899414,0.7120975915029645,1.9829415570534765
1761475648323890200,4.65489013671875,2.6136756012082096,1.0297656570643186,2.018638308856636
1761475648333867000,4.664866943359375,2.525685767588019,1.6099074319705367,1.677943295712024
1761475648343845000,4.67484521484375,2.7626737380206583,2.1947078463375567,0.9449684820055961
1761475648353822200,4.684822265625,2.920513352936506,2.385801203818619,0.543521989974007
1761475648363799000,4.694799072265625,2.783664503601193,2.1097250855788587,0.6596114713318646
1761475648373776100,4.704776123046875,2.3374124359637496,1.658641360001266,1.033417238374427
1761475648383753000,4.7147529296875,1.814764526388049,1.5374787400975822,1.2707263305202126
1761475648393730000,4.72472998046875,1.4584002349466085,1.8067834645062684,1.2630746467232703
1761475648403707100,4.73470703125,1.245803193926811,2.142839711934328,1.200675035303086
1761475648413684200,4.744684326171875,1.2420055552095175,2.2892960553094746,1.2591095424845813
1761475648423661300,4.754661376953125,1.4628577988773583,2.0385759121224285,1.5124971513152121
1761475648433639200,4.76463916015625,1.775468873310089,1.614990726584196,1.7863266596719622
1761475648443616300,4.7746162109375,2.0909949584066867,1.3348586109519005,1.76299473779276
1761475648453593300,4.78459326171875,2.354667522147298,1.1871125200271606,1.4213167049601674
1761475648463570200,4.794570068359375,2.3854636424273252,1.0024679002940655,1.0889770669024437
1761475648473547300,4.80454736328125,2.2426649447768927,0.8025735428504646,0.7666895979121326
1761475648483524000,4.814524169921875,1.968328948202729,0.5813493971303105,0.606704349269718
1761475648493501200,4.824501220703125,1.5597615913152694,0.3126801941461861,0.6208220142103731
1761475648503478000,4.83447802734375,0.8892799125313758,0.10598244029805064,0.7178283902399242
1761475648513456000,4.8444560546875,0.20872107636928558,0.13806202451735733,0.7631961297731846
1761475648523433200,4.85443310546875,-0.3016027736842632,0.2475545187629759,0.6368593951672316
1761475648533410000,4.86441015625,-0.7031780797272921,0.20802418014630675,0.46169173842947925
1761475648543387100,4.87438720703125,-0.9092179541885852,0.20013737241923807,0.26068631447143853
1761475648553364000,4.884364013671875,-1.0373965903341769,0.17348215133622288,0.3428127724835649
1761475648563341000,4.894341064453125,-1.240335576170683,0.07895736298933624,0.4743154019527137
1761475648573318100,4.904318115234375,-1.494776201185584,-0.11758680724352598,0.2737581966862082
1761475648583295200,4.914295166015625,-1.5900345645040272,-0.3262310189843178,0.2261250695042312
1761475648593272300,4.924272216796875,-1.764126226040721,-0.5338816165778786,0.29495007432941345
1761475648603250000,4.93425,-2.0147125137150286,-0.44977359282709656,0.3495488392729312
1761475648613227000,4.94422705078125,-2.062183874464035,-0.361155105914548,0.592071428283304
1761475648623204400,4.954204345703125,-2.068117940688133,-0.3445524922903627,1.0923239661775528
1761475648633181200,4.96418115234375,-2.2130787848085163,-0.6608724311783909,1.1961106499969958
1761475648643158300,4.974158203125,-2.4525994885891675,-1.0571616865772753,0.9431156937457621
1761475648653135000,4.984135009765625,-2.540453128609061,-1.07109617697075,0.4227190336955711
1761475648663112200,4.9941123046875,-2.720538477602601,-1.1831034305162726,-0.26008769099116325
1761475648673089000,5.004089111328125,-2.946830281975865,-1.3955613553263246,-0.6361106956917792
1761475648683066000,5.014066162109375,-3.0942104621976614,-1.5262430603340267,-0.8338475097753107
1761475648693044200,5.024044189453125,-3.1281431269377467,-1.42773197882995,-0.9280711232185364
1761475648703021000,5.03402099609375,-3.1599142297297713,-1.2150190563455223,-1.0204115532636642
1761475648712998100,5.043998046875,-3.1768963441908356,-1.0166853723473845,-1.0151838817432521
1761475648722975200,5.053975341796875,-2.978755698546767,-0.7884593119759112,-0.665231649301201
1761475648732952000,5.0639521484375,-2.5897218941688536,-0.6086809831049292,-0.1794083630474284
1761475648742929200,5.07392919921875,-2.1176731219738723,-0.42682058726288374,0.135684773992002
1761475648752906000,5.083906005859375,-1.7184335654020308,-0.3022838878162205,0.14497255282448604
1761475648762883000,5.093883056640625,-1.4642746799379587,-0.4187197714589536,-0.004522537192050367
1761475648772861200,5.103861083984375,-1.3240519702553748,-0.49777672236524517,-0.41260311520956455
1761475648782838000,5.113838134765625,-1.347751994794607,-0.4546249783810228,-0.8423480654865503
1761475648792815000,5.123815185546875,-1.3144950373589992,-0.20403839844577012,-1.2755436676740646
1761475648802792200,5.133792236328125,-1.3449223243266344,0.07676664801202714,-1.4256699317336081
1761475648812769300,5.143769287109375,-1.3655951099991797,0.2697108940567821,-1.2636413406953215
1761475648822746000,5.15374609375,-1.2688093909829854,0.4739272794179618,-1.0143099484529345
1761475648832723200,5.16372314453125,-0.9748784671008587,0.6855155817866325,-0.7694714837156236
1761475648842700300,5.1737001953125,-0.4989262577265501,0.8507113316189497,-0.6232067173898219
1761475648852677000,5.183677001953125,-0.028143559944629668,0.8952467119812965,-0.5129289179854095
1761475648862655200,5.1936552734375,0.4254740680247545,0.8542572605974972,-0.4809799744084477
1761475648872632000,5.203632080078125,0.7329150463432074,0.7747213670678437,-0.4687870304526761
1761475648882609200,5.213609130859375,0.9285632906496524,0.6814464326515793,-0.4787546995744109
1761475648892586200,5.223586181640625,1.1058324131786823,0.5757234835399314,-0.5032191326148807
1761475648902563000,5.23356298828125,1.1837895130842924,0.48526981708947564,-0.5555046156473458
1761475648912540200,5.2435400390625,1.1279115585178137,0.38060792133808136,-0.6364297715783119
1761475648922517000,5.25351708984375,0.9920318464756012,0.30072073015272616,-0.821068838353455
1761475648932494000,5.263494140625,0.8115624666005372,0.36705841167420145,-1.06353334050104
1761475648942471000,5.273470947265625,0.6986106256812811,0.5527795745976269,-1.183266365993023
1761475648952449000,5.283448974609375,0.6275327638953924,0.6441922953385859,-1.0437858529798685
1761475648962426000,5.293426025390625,0.6427794328659773,0.7346376323521137,-0.7494729440428316
1761475648972403000,5.30340283203125,0.7270271573483944,0.8400948066670447,-0.4443751678496599
1761475648982380000,5.313380126953125,0.7946089937120676,0.9478244559586048,-0.1756827483867295
1761475648992357400,5.323357421875,0.9707511580377817,1.0300264999575912,0.04155472058374435
1761475649002334200,5.333334228515625,1.1237000783026219,0.9900799817554652,0.2530081445263699
1761475649012311300,5.343311279296875,1.3385218096345661,0.8922223957240581,0.3181002829661593
1761475649022288100,5.3532880859375,1.5340081413775681,0.6808156604673713,0.29004025485282764
1761475649032265200,5.36326513671875,1.696400012770295,0.3808852769747376,0.2104755370874889
1761475649042243300,5.373243408203125,1.6777467502266168,0.03722074650004506,0.05335128563307225
1761475649052220200,5.38322021484375,1.4887188008427619,-0.22059527323208747,-0.08228029686696826
1761475649062197200,5.393197265625,1.272230597603321,-0.3579470305882394,-0.18461345740985124
1761475649072174000,5.403174072265625,0.9749176300674677,-0.445856784709543,-0.2408203882023692
1761475649082151000,5.41315087890625,0.6412427248179913,-0.5430178398441523,-0.2739901788111776
1761475649092127700,5.423127685546875,0.44030397288799283,-0.6274288651295006,-0.25974220202174036
1761475649102104800,5.433104736328125,0.3745703947395086,-0.6771027774240821,-0.237259298187308
1761475649112082000,5.44308203125,0.40004795034527774,-0.7413935363531112,-0.21455106116440145
1761475649122058800,5.453058837890625,0.43179099608659743,-0.8143467635568231,-0.14161178942080585
1761475649132036900,5.463036865234375,0.40955987505614755,-0.9605789427872746,0.03144614515397697
1761475649142013700,5.473013671875,0.26387656188011166,-1.0937724844854324,0.14415603054352102
1761475649151990800,5.48299072265625,0.07416355284154415,-1.1171484647020697,0.11707918651495128
1761475649161967900,5.4929677734375,-0.16579904948771,-1.1028607769567518,0.00535568181425333
1761475649171945000,5.502945068359375,-0.3997977749764919,-1.1427909285459668,-0.08414554274957627
1761475649181922000,5.512922119140625,-0.6409685840517282,-1.1912536384198813,-0.1797945128208026
1761475649191899000,5.52289892578125,-0.8053577667415142,-1.2402927599422633,-0.235157686265558
1761475649201876000,5.5328759765625,-0.8272796756923199,-1.282199033910036,-0.24911541140414772
1761475649211852800,5.542852783203125,-0.8176911786139011,-1.3202420565783977,-0.22171253202529623
1761475649221831000,5.552830810546875,-0.8263608072817326,-1.3586869380459188,-0.10259159228336065
1761475649231808000,5.56280810546875,-0.8533645495414733,-1.3466653686016796,0.029971012833807615
1761475649241784800,5.572784912109375,-0.9524334110587834,-1.2492273231565951,0.1475935124452226
1761475649251762000,5.582761962890625,-1.0779793606132269,-1.10682975365296,0.27520565554816273
1761475649261738800,5.59273876953125,-1.2043027242809534,-1.0367753166306763,0.4084145774785429
1761475649271715800,5.6027158203125,-1.326740770947933,-1.106295354515314,0.6135558225996792
1761475649281693000,5.61269287109375,-1.3521703957587479,-1.1660093070480972,0.7102871080148965
1761475649291669800,5.622669677734375,-1.3306675890028477,-1.038195850953087,0.5880648229904473
1761475649301646800,5.632646728515625,-1.3555577001094816,-0.8368550210282206,0.4081060960512608
1761475649311625000,5.642625,-1.4946037672281265,-0.7356897717535495,0.2767052099235356
1761475649321601800,5.652601806640625,-1.7089157954722642,-0.6692236415468156,0.1557754489276558
1761475649331579000,5.662578857421875,-1.9427742357075213,-0.44046486253812905,0.04119304766450077
1761475649341555700,5.6725556640625,-2.179005250293016,-0.19413520939499138,0.014738025328703224
1761475649351533000,5.682532958984375,-2.3103981723099944,0.04033756334632635,0.15356164533570407
1761475649361510000,5.692510009765625,-2.253213226798177,0.2652431740581989,0.2960250831497833
1761475649371487000,5.702487060546875,-2.0416922905772923,0.4705610178552568,0.4738689733594656
1761475649381464000,5.712464111328125,-1.7290893994510173,0.6448055318661033,0.6668997286438941
1761475649391441000,5.72244091796875,-1.2748130153119563,0.812454447004199,0.8022073398865759
1761475649401419000,5.7324189453125,-0.8025392021894454,0.8816226757764816,0.96605452465415
1761475649411395800,5.742395751953125,-0.3297475026726723,0.8262102928951383,1.160423542805016
1761475649421373000,5.752373046875,0.14314122747778893,0.7695015865929424,1.3145575812011956
1761475649431350000,5.76235009765625,0.6544447362184524,0.7493465411841869,1.3808011546984313
1761475649441326800,5.772326904296875,1.1149316654354333,0.7456110079176723,1.3264675069645047
1761475649451304000,5.782303955078125,1.4722200859844683,0.7443038708418608,1.2481202386975287
1761475649461280800,5.79228076171875,1.6783756957799196,0.6774015411749482,1.209258885383606
1761475649471257900,5.8022578125,1.7869716795772312,0.6206111479386687,1.2141827516518533
1761475649481234700,5.812234619140625,1.848871963173151,0.6388958694308996,1.2206719675406812
1761475649491212800,5.822212890625,1.848101563322544,0.7170854629181325,1.201561535814032
1761475649501190000,5.83218994140625,1.6676199084877967,0.8641679753676056,1.148915256645158
1761475649511166700,5.842166748046875,1.3939227943390606,1.0972998548939823,0.9964243823461234
1761475649521143800,5.852143798828125,1.1239993535101414,1.3039632680810986,0.8488781248424202
1761475649531121000,5.862120849609375,0.8803022408276796,1.4526140527606008,0.7035479359529913
1761475649541098000,5.872097900390625,0.7524871772974729,1.5396324110001325,0.6487384143356233
1761475649551075000,5.882074951171875,0.7501970205336809,1.5869178937882185,0.6884003434427082
1761475649561052000,5.892052001953125,0.7621727050095796,1.60307495560199,0.8087455825489014
1761475649571029000,5.902029052734375,0.7537351315319538,1.5191976718671618,0.9706021049559116
1761475649581007000,5.912007080078125,0.7797603841483592,1.4483284843958912,1.0269258305285125
1761475649590984000,5.92198388671875,0.8402513854682445,1.298002752241492,1.0607290967352687
1761475649600961000,5.9319609375,0.9195236596256494,1.0722133444324136,1.0263023648679255
1761475649610937900,5.941937744140625,1.0366571701437235,0.7752683334261179,1.011919107793644
1761475649620915000,5.9519150390625,1.1353121901631356,0.5159912281654775,0.9906774361919611
1761475649630891800,5.961891845703125,1.2219652222216129,0.296935074134171,0.9111384008571505
1761475649640868900,5.971868896484375,1.228238895663619,0.09127908442392944,0.8452887220483273
1761475649650846000,5.981845947265625,1.1493962450951336,-0.07934402421936393,0.7601349155716598
1761475649660822800,5.99182275390625,1.0352075558573006,-0.18631269907578824,0.6998186132315546
1761475649670801000,6.00180078125,0.921300021648407,-0.23964827568307517,0.6768370391599834
1761475649680777700,6.01177783203125,0.8004407686054706,-0.26262743860185145,0.6254490164238959
1761475649690754800,6.0217548828125,0.5821668509930372,-0.3413289271339774,0.4705259465418756
1761475649700732000,6.03173193359375,0.329984818559885,-0.4047732253015041,0.33613990712352093
1761475649710708700,6.041708740234375,0.19168167876303194,-0.4318947487220168,0.26080369377341117
1761475649720686000,6.05168603515625,0.16682313183844089,-0.48843160558864473,0.3154495127290487
1761475649730663000,6.061662841796875,0.1039420205116272,-0.5774618881724775,0.4803837620809674
1761475649740640000,6.071639892578125,-0.04964695122241974,-0.6739250972360372,0.5537720197010785
1761475649750616800,6.081616943359375,-0.16641572008132935,-0.669030749323219,0.472802732367441
1761475649760595000,6.091594970703125,-0.2518476859122515,-0.6085832948841154,0.3304532763218507
1761475649770572000,6.101572021484375,-0.37859424342811104,-0.6408339978866279,0.23133509577009825
1761475649780548900,6.111548828125,-0.4931394910186529,-0.7495359262764454,0.2168453095814213
1761475649790526000,6.12152587890625,-0.5643155524820089,-0.8515485861606895,0.19327808110900221
1761475649800502800,6.131502685546875,-0.6703653589278459,-0.9138609576888382,0.1705977184737101
1761475649810479900,6.14147998046875,-0.7114677691668272,-0.9213932528898119,0.1448369985450059
1761475649820457000,6.15145703125,-0.7499018369793892,-0.899470905547589,0.1262606736950576
1761475649830433800,6.161433837890625,-0.8081769158154726,-0.8557115510590374,0.08476195761486888
1761475649840411000,6.171410888671875,-0.9493424593061208,-0.7713945607326924,0.020780885689519343
1761475649850389000,6.181388916015625,-1.0859323654443025,-0.6192552032850682,-0.025124467851780352
1761475649860365800,6.19136572265625,-1.213010931393504,-0.503034862089157,-0.0803423876069486
1761475649870343000,6.201343017578125,-1.3187392508000135,-0.5716780440740287,0.03472352285683155
1761475649880319700,6.21131982421875,-1.2517612255483865,-0.7059215332165361,0.15473766684513537
1761475649890296800,6.221296875,-1.0205033232003449,-0.7014215914487838,0.12206804431080817
1761475649900274000,6.23127392578125,-0.8195815224051475,-0.5475935502618551,-0.07877227047970518
1761475649910251000,6.2412509765625,-0.6742495068848132,-0.49372109029889105,-0.34151546268202365
1761475649920228000,6.25122802734375,-0.6837304519355296,-0.46520942769423124,-0.5780260979264974
1761475649930205000,6.261204833984375,-0.8665782513797282,-0.3246392197482288,-0.8469222415342926
1761475649940183000,6.27118310546875,-1.1606424462527036,0.044448505796492094,-1.096965654503554
1761475649950160000,6.281159912109375,-1.637788249325752,0.44829657907709475,-1.106394430975616
1761475649960137000,6.291136962890625,-2.165673475033045,0.7742232082873582,-0.9104501993972808
1761475649970114000,6.301114013671875,-2.359291674816608,1.17330289812237,-0.8508938485790044
1761475649980091000,6.3110908203125,-2.226102517032623,1.630017323063314,-0.9223529647674411
1761475649990068000,6.32106787109375,-1.8355781818360088,1.9048091005809604,-0.8403650019105523
1761475650000044800,6.331044921875,-1.2543629324793815,2.0268425119698046,-0.6469582529205828
1761475650010022000,6.34102197265625,-0.6731009213715792,1.9046147470526396,-0.4552319678308442
1761475650019998700,6.350998779296875,-0.1147644432991743,1.6421489287532864,-0.295716893983446
1761475650029975800,6.360975830078125,0.44198038166761394,1.3850706487111746,-0.26615831614173946
1761475650039954000,6.370953857421875,0.7638479447454214,1.1370862140983342,-0.16192502106595782
1761475650049930800,6.3809306640625,1.0028086765557527,0.9122712042793631,-0.15368885191194712
1761475650059907800,6.390907958984375,1.2215636556833982,0.7642385514982044,-0.3151686134284362
1761475650069884700,6.400884765625,1.3467156374841929,0.6588795037955045,-0.5962709257997572
1761475650079862500,6.410862548828125,1.348805887761712,0.5553751440487802,-0.90592439253591
1761475650089839400,6.42083935546875,1.3546891005814075,0.47753787113055585,-1.2636243895605206
1761475650099816400,6.43081640625,1.378621764832735,0.48221974533647294,-1.562536462856084
1761475650109793500,6.44079345703125,1.3739642944157122,0.4855380761042237,-1.6466387875184416
1761475650119770600,6.4507705078125,1.323361649903655,0.46855333129465576,-1.5393616312347351
1761475650129748500,6.46074853515625,1.2480857519060373,0.44804012009799477,-1.248456484914571
1761475650139725600,6.4707255859375,1.243925125095248,0.5853806984730064,-0.9274024301767348
1761475650149702700,6.48070263671875,1.3273667938917875,0.7988459006294608,-0.5924015735531225
1761475650159679700,6.4906796875,1.3718933333605527,0.9800479786932468,-0.28437212782222776
1761475650169656600,6.500656494140625,1.3553957875460385,1.0370156281925738,0.018515826834365725
1761475650179633700,6.510633544921875,1.329344815966487,0.9834367443487048,0.20775131802167743
1761475650189610500,6.520610595703125,1.297220077431202,0.8869713433280587,0.27477639728542413
1761475650199587600,6.530587646484375,1.235698564019799,0.7254913260832428,0.23165906702745703
1761475650209564400,6.540564453125,1.0599597197979689,0.49187955408543343,0.04291563367340714
1761475650219541500,6.55054150390625,0.8598667710423469,0.2834049998231232,-0.2113082433182746
1761475650229519600,6.56051953125,0.6835673703283072,0.09480930437669158,-0.45550077483486384
1761475650239496400,6.570496337890625,0.5403618454426526,-0.07465192088037728,-0.5553212219044565
1761475650249473500,6.5804736328125,0.4653437215983867,-0.23209172282367943,-0.513129408993572
1761475650259450600,6.59045068359375,0.47533553878068924,-0.35137539711296556,-0.38114392791092394
1761475650269427500,6.600427490234375,0.5423170711636542,-0.46941579334288835,-0.23938326807133853
1761475650279404500,6.610404541015625,0.6289455533027648,-0.6130697926484048,-0.09949622008390724
1761475650289381600,6.620381591796875,0.6631465135902166,-0.7939210114479065,0.005364741903543472
1761475650299358700,6.630358642578125,0.5861380927115678,-0.9814223357863724,0.042596740449965
1761475650309335600,6.64033544921875,0.46836277715861796,-1.1174233361206949,-0.021803251007199285
1761475650319313400,6.6503134765625,0.3306283771604299,-1.221337299581617,-0.0917830153580755
1761475650329290800,6.660290771484375,0.22846038058400153,-1.2657076255753636,-0.1782430821277201
1761475650339267600,6.670267578125,0.09658113635480403,-1.2420153459511696,-0.28425072993226347
1761475650349244700,6.68024462890625,-0.03225742500424385,-1.2068513858504593,-0.3266397459156811
1761475650359221500,6.690221435546875,-0.16608838782310484,-1.217198884602636,-0.22819003921002148
1761475650369198600,6.700198486328125,-0.3422141855359077,-1.2533562396548688,-0.09947890362292527
1761475650379175700,6.71017578125,-0.5251122538626194,-1.2703589585125445,0.03620597996693104
1761475650389152500,6.720152587890625,-0.6541454610109328,-1.2187852770112455,0.05319993099626153
1761475650399129600,6.730129638671875,-0.6824924345731734,-1.1852208610616624,0.027662900288216767
1761475650409107500,6.740107421875,-0.686861151176691,-1.2309333954446018,0.06370652930028736
1761475650419084500,6.75008447265625,-0.7541466349422932,-1.277506784440577,0.11914382742717862
1761475650429061600,6.7600615234375,-0.8835416611403226,-1.2123831548839807,0.148487812670134
1761475650439038500,6.77003857421875,-1.155899051117897,-1.1200472548834979,0.1518612346259877
1761475650449015600,6.780015625,-1.4331225858271122,-1.0227319590352475,0.07461224645711481
1761475650458992400,6.789992431640625,-1.5870856515705585,-0.9718408529706298,0.06517411763481795
1761475650468969500,6.799969482421875,-1.5386983450204132,-1.0889125502988695,0.18129216750003396
1761475650478946600,6.809946533203125,-1.276747782766819,-1.0959868725992739,0.2585181035868823
1761475650488923600,6.819923583984375,-0.9939192676573991,-0.9489097669772804,0.25999113528151063
1761475650498900700,6.829900634765625,-0.8252794417858124,-0.8427858723819255,0.2392496317543089
1761475650508878600,6.839878662109375,-0.8372562953054904,-0.82342796870023,0.25857699416726826
1761475650518855700,6.849855712890625,-0.9723001410454511,-0.8159709306925534,0.29686394512671976
1761475650528832800,6.859832763671875,-1.1699398514300585,-0.47273792350292204,0.11948120615538209
1761475650538809600,6.8698095703125,-1.5633751056373117,-0.029989918463677167,0.02242057918794453
1761475650548786700,6.87978662109375,-1.994575734615326,0.3337012087345123,0.06325125981345772
1761475650558763500,6.889763427734375,-2.169389865207672,0.7110743859350681,0.06566301539661362
1761475650568740600,6.89974072265625,-2.0492367146074772,1.0556965093955397,0.06820548468735069
1761475650578717400,6.909717529296875,-1.723461622697115,1.3205652971833943,0.2710186887197196
1761475650588694500,6.919694580078125,-1.215187690910697,1.428777542360127,0.6075637060454115
1761475650598672600,6.929672607421875,-0.6713046856045722,1.3632635983116923,0.8863936895705758
1761475650608649500,6.9396494140625,-0.13831716832220553,1.214085282626748,1.085569377350807
1761475650618626600,6.94962646484375,0.47433366826176643,1.0366973560236394,1.1032747645851224
1761475650628603400,6.959603271484375,0.9698802204221486,0.8431514908239245,1.1648379982464014
1761475650638580500,6.96958056640625,1.2693974200040101,0.5674944747790693,1.4186128528289497
1761475650648557600,6.9795576171875,1.5065700993537903,0.40216786510869856,1.5873144918903708
1761475650658534400,6.989534423828125,1.6826076342612504,0.31922756996303797,1.5888400940224527
1761475650668511700,6.99951171875,1.7037345934420822,0.2089763663046062,1.6195216480121015
1761475650678488600,7.009488525390625,1.6948077751427888,0.20995164107754824,1.540570714763552
1761475650688465700,7.019465576171875,1.59633337238729,0.4017892410546541,1.3729247222349046
1761475650698443800,7.02944384765625,1.3633476233333348,0.726739718709141,1.048012823025137
1761475650708420600,7.039420654296875,1.0041033925414085,0.9742002755783498,0.7211224633492529
1761475650718397700,7.049397705078125,0.5025871183216571,1.1153230028405785,0.551231468372792
1761475650728374500,7.05937451171875,-0.00008475567400455475,1.2430224771670997,0.4906828916467726
1761475650738351600,7.0693515625,-0.36889819432199,1.4429118661746383,0.4565529142362997
1761475650748328400,7.079328369140625,-0.4642915821969509,1.6461907514899967,0.5028283797316253
1761475650758305500,7.089305419921875,-0.3824088332802057,1.7351413929663597,0.6430681866794824
1761475650768282600,7.09928271484375,-0.09248013077676295,1.6925146957695483,0.8291656355693936
1761475650778259500,7.109259521484375,0.3767933314859867,1.5156652599573135,0.9467615029022097
1761475650788236500,7.119236572265625,1.0134376225978134,1.2383027551688253,0.956931745391339
1761475650798214700,7.129214599609375,1.4512293204039335,0.8791494175307453,0.9808454126812517
1761475650808191500,7.13919140625,1.6003367628097533,0.4911575234211981,1.1054153568103908
1761475650818168600,7.14916845703125,1.6022218459039925,0.21530644610896704,1.0817836482670158
1761475650828145400,7.1591455078125,1.488494928959012,0.1096093986235559,0.8291975650776178
1761475650838122500,7.16912255859375,1.2173206112861632,-0.006489946541190147,0.4952261245669797
1761475650848099600,7.179099609375,0.9031184682697058,-0.07534414092823863,0.15468674037549643
1761475650858076700,7.18907666015625,0.7083855852425098,-0.12609364656507968,-0.1801608984477818
1761475650868053800,7.1990537109375,0.6036907005369663,-0.200805188678205,-0.33942820807918905
1761475650878030600,7.209030517578125,0.5094529124379158,-0.2828136098012328,-0.3038048868384212
1761475650888008700,7.2190087890625,0.421996747303009,-0.36710707312151786,-0.061902694748714564
1761475650897985500,7.228985595703125,0.31013211709856986,-0.4213385756552219,0.2434478506291285
1761475650907962600,7.238962646484375,0.26781682393848893,-0.3923055195249617,0.4642106989804655
1761475650917939700,7.248939697265625,0.2357037758409977,-0.3946602659575641,0.6048068450853228
1761475650927916500,7.25891650390625,0.15535598140656948,-0.49052170973569154,0.704943481964618
1761475650937893600,7.2688935546875,0.03475333347320556,-0.563714956240356,0.651273485771194
1761475650947870500,7.278870361328125,-0.11171733068823814,-0.6599288667179644,0.506071161045134
1761475650957847600,7.28884765625,-0.3609112872213125,-0.7726889844574034,0.30812625716887415
1761475650967824400,7.298824462890625,-0.5804296519368887,-0.8410602176330984,0.12346249434389173
1761475650977801500,7.308801513671875,-0.6725725135833025,-0.8654748201824725,-0.02007248169183731
1761475650987779600,7.318779541015625,-0.7257996613800525,-0.8613768833443521,-0.14735347487796097
1761475650997756400,7.32875634765625,-0.8176397406876087,-0.8271030039511621,-0.14115546048805117
1761475651007733500,7.3387333984375,-0.8786270010918378,-0.7423045137181877,-0.10862590401154011
1761475651017710300,7.34871044921875,-0.9174421771764755,-0.6133225983656942,-0.11412212680764496
1761475651027687400,7.3586875,-0.9645032035589217,-0.43309594120532274,-0.1333119073808193
1761475651037664800,7.368664794921875,-1.0496224501788616,-0.35498218943327664,-0.09409684525839984
1761475651047641600,7.3786416015625,-1.1722732628136872,-0.3929562385186553,0.10355411717258393
1761475651057618700,7.38861865234375,-1.2439473369270562,-0.605046060668677,0.35318186201304197
1761475651067595500,7.398595458984375,-1.1009013865172863,-0.707109573957324,0.39696861596517263
1761475651077572600,7.408572509765625,-0.8627829507499932,-0.5854695458002388,0.1444094938479364
1761475651087550000,7.418550048828125,-0.7246405544728041,-0.4519039559192955,-0.22573124788105486
1761475651097526800,7.42852685546875,-0.6415221262812614,-0.43832960407510396,-0.5061833161827176
1761475651107503900,7.43850390625,-0.6509083787858486,-0.4238835839629173,-0.6077684713698923
1761475651117481000,7.44848095703125,-0.7673363713830709,-0.21369915704280137,-0.67501778784357
1761475651127457800,7.458457763671875,-0.9560714753001928,0.2494358024649322,-0.7025332059524952
1761475651137435000,7.468434814453125,-1.3246060970067977,0.6218672854796051,-0.51637818165645
1761475651147411700,7.47841162109375,-1.633508380049467,0.9517503972306847,-0.368552668819949
1761475651157388800,7.488388916015625,-1.6911247027158736,1.2692613725341855,-0.32620920901130884
1761475651167366000,7.498365966796875,-1.5512620585173367,1.534413215047121,-0.307185615317896
1761475651177343700,7.50834375,-1.2840560599535702,1.6042514520354567,-0.23002017724663018
1761475651187320800,7.51832080078125,-0.9595365210622548,1.4863799826316535,-0.11869674124680459
1761475651197298000,7.5282978515625,-0.6187982532978058,1.3086993566922842,-0.11596629336960614
1761475651207275000,7.53827490234375,-0.2131675343841314,1.1342375466689467,-0.30605142365619536
1761475651217251800,7.548251953125,0.14588906488120554,0.9197394943334162,-0.4880061467181891
1761475651227229000,7.55822900390625,0.4368056093782186,0.7497530761584639,-0.5505760732039809
1761475651237206000,7.5682060546875,0.575587472602725,0.5716184228412806,-0.592046513037756
1761475651247182800,7.578182861328125,0.6988982104510069,0.44779345186054703,-0.6745486359618604
1761475651257160000,7.588159912109375,0.8757920699268579,0.4418652308553457,-0.8575844322588294
1761475651267136800,7.59813671875,1.023242977297306,0.4202973960392177,-1.0502109175913035
1761475651277115000,7.608114990234375,1.1013777718573807,0.4377800073683262,-1.209751052814722
1761475651287092000,7.618092041015625,1.1799708315789699,0.4585061306633055,-1.295957217888534
1761475651297068800,7.62806884765625,1.2279974881231783,0.5059579099290072,-1.2277059578306972
1761475651307046000,7.6380458984375,1.2335311568528413,0.5502506406418979,-0.9593711013674735
1761475651317022700,7.648022705078125,1.1605886702388524,0.6142752229154109,-0.6158966866374015
1761475651326999800,7.657999755859375,1.0866185941427946,0.8562124863184988,-0.4664669534746557
1761475651336977000,7.667976806640625,1.0058540356010197,1.0646985848881303,-0.5070610488653182
1761475651346954000,7.6779541015625,0.9255494957864284,1.0976814015574752,-0.49290370950140056
1761475651356931000,7.68793115234375,0.86243457570374,1.0367202985078097,-0.46633748187609014
1761475651366908000,7.697907958984375,0.8558534437477588,0.8659292859517037,-0.44045456033982333
1761475651376886000,7.707885986328125,0.8684083894163369,0.6294890125297009,-0.4065789595492184
1761475651386863000,7.717863037109375,0.8913333379298448,0.39207229529097676,-0.39066630095057187
1761475651396840000,7.72783984375,0.9084194972872733,0.23039222542941568,-0.4137210863888263
1761475651406817000,7.737817138671875,0.8905880725204944,0.14349997778758405,-0.5136411579079926
1761475651416793900,7.7477939453125,0.8340133678615093,0.04072670879438519,-0.5654875919360667
1761475651426771000,7.75777099609375,0.810274180355668,-0.11066957520097494,-0.5464442340962589
1761475651436747800,7.767747802734375,0.7990332398951053,-0.235006587357074,-0.5041979875843972
1761475651446724900,7.777724853515625,0.7808727293044329,-0.34991263108402487,-0.4836190176751464
1761475651456702000,7.787701904296875,0.7229121232450008,-0.4552095733359456,-0.47133324433676893
1761475651466678800,7.7976787109375,0.60273266915977,-0.5745455623343586,-0.46357364318594335
1761475651476657000,7.807656982421875,0.5130418768405914,-0.6290061974488198,-0.43547231494784355
1761475651486633700,7.8176337890625,0.4016623998045921,-0.68770227817595,-0.37672012011930345
1761475651496610800,7.82761083984375,0.3358049030154943,-0.7446805951997637,-0.2872340565919876
1761475651506588000,7.837587890625,0.31205051794052124,-0.8265154133215546,-0.25841004010252655
1761475651516564700,7.847564697265625,0.26900164980888364,-0.8938149256125092,-0.31053229539729654
1761475651526541800,7.857541748046875,0.14217150566279887,-0.9234873025596141,-0.3871161341883242
1761475651536519000,7.867518798828125,-0.06144961721897125,-0.977951298674941,-0.3731694419004023
1761475651546496000,7.87749609375,-0.24942133554816245,-1.0636438151381908,-0.28795893680043516
1761475651556472800,7.887472900390625,-0.42731414293348785,-1.0988611128613353,-0.19204554363936185
1761475651566450000,7.897449951171875,-0.485227987241745,-1.104551433457434,-0.1259593526609242
1761475651576428000,7.907427978515625,-0.5201987628579139,-1.1464236590251327,-0.004565262088924646
1761475651586404900,7.91740478515625,-0.5040466694802046,-1.1795942533515393,0.09796535725481807
1761475651596382000,7.9273818359375,-0.5458563512057065,-1.1955321194566786,0.14757080742307008
1761475651606359000,7.937359130859375,-0.7392892575502396,-1.221973259397596,0.20349106676131487
1761475651616336000,7.9473359375,-1.015771618503332,-1.1536398740142584,0.15957754462435841
1761475651626313000,7.95731298828125,-1.3066840713471173,-1.1009778127543628,0.1483014597851783
1761475651636289800,7.967289794921875,-1.500841200312972,-1.1710985199458896,0.32845468638315795
1761475651646267000,7.977266845703125,-1.503314312428236,-1.3970361040540038,0.5297939088728278
1761475651656243700,7.98724365234375,-1.3813731093674897,-1.577864964891225,0.5543533267203719
1761475651666220800,7.997220703125,-1.2572107231259346,-1.6099287670195102,0.3586035217355937
1761475651676199000,8.007198974609375,-1.2234919933974742,-1.5472120524741708,0.09468976965025067
1761475651686175700,8.01717578125,-1.263285659125447,-1.503853241610527,-0.23233576071262357
1761475651696152800,8.02715283203125,-1.450163152477145,-1.4290088668979704,-0.511948309450224
1761475651706129700,8.037129638671875,-1.7766098600387572,-1.1823732165455818,-0.6853339416094124
1761475651716107000,8.04710693359375,-2.2084686606645585,-0.8116546749286353,-0.6238994488943368
1761475651726084000,8.057083984375,-2.6494670455574987,-0.3251706962764263,-0.46645365560166535
1761475651736061000,8.06706103515625,-2.8289205263882873,0.19066797167584298,-0.3845608236823231
1761475651746038000,8.0770380859375,-2.7834388781517743,0.6403798243783414,-0.2251684263665229
1761475651756014800,8.087014892578125,-2.4522370850175617,0.9873793444946408,-0.02038052472770214
1761475651765992000,8.096991943359376,-1.9483184258311985,1.1387198066495359,0.277448064180091
1761475651775970000,8.106969970703124,-1.3956173232972622,1.095764754281193,0.57869515629448
1761475651785947000,8.11694677734375,-0.8222294065654278,1.028918830976635,0.7580112744811922
1761475651795924000,8.126924072265625,-0.22561375898122787,0.9112063515268266,0.7185737287145108
1761475651805900800,8.13690087890625,0.34668343990445133,0.8452018474824726,0.5912595273785293
1761475651815878000,8.1468779296875,0.7796627689927816,0.7569504403166473,0.5246487280040979
1761475651825854700,8.156854736328125,1.1347095480948686,0.7099348605111241,0.5247057919535786
1761475651835831800,8.166831787109375,1.3492407720476387,0.7409956230767071,0.5235035765569657
1761475651845809000,8.176808837890626,1.4172750283539295,0.7502708164222538,0.6053740505140275
1761475651855785700,8.18678564453125,1.5477508355259895,0.8612105868667363,0.6494971237484365
1761475651865763000,8.19676318359375,1.5651795247107743,1.1078842311419546,0.6726070734400301
1761475651875741000,8.206740966796875,1.466732009962201,1.4091969358384608,0.5627845435224473
1761475651885717800,8.2167177734375,1.3207406537503004,1.5912980085685848,0.4178388969711959
1761475651895694800,8.22669482421875,1.0903449211895466,1.7015924668468534,0.28576149982139465
1761475651905672000,8.236671875,0.8795476230680942,1.7650234671413898,0.13299429279901087
1761475651915649000,8.24664892578125,0.7541717693835497,1.8086016198441386,0.018666706547141074
1761475651925625900,8.2566259765625,0.6752776808887719,1.8425442214563488,0.021140110923349855
1761475651935603000,8.26660302734375,0.6854612212508916,1.8068840022712944,-0.017727014544233678
1761475651945580000,8.276580078125,0.8304664890348911,1.7463365945890545,0.043166722357645626
1761475651955556900,8.286556884765625,1.1147709219157695,1.60404467741698,0.13787227409891784
1761475651965534000,8.296533935546876,1.5024118106305597,1.372000885388255,0.30777064866423604
1761475651975511800,8.30651171875,1.802427607384324,1.070915998098254,0.40524537285789847
1761475651985489000,8.316489013671875,1.9881004011213779,0.7685387329101562,0.43580549242496486
1761475651995466000,8.326466064453125,2.0025030204832555,0.5405933161109685,0.4103649078287184
1761475652005442800,8.33644287109375,1.9307967976659535,0.34186405692398547,0.3745256788149476
1761475652015420000,8.346419921875,1.7436287969350814,0.21953794619888065,0.24342852487415073
1761475652025396700,8.356396728515625,1.5192308434844015,0.17040625102221965,0.04430705149918794
1761475652035373800,8.366373779296875,1.2375544210195542,0.13348098033741115,-0.1241697658304125
1761475652045351000,8.376350830078126,0.9929682505428791,0.0620629268117249,-0.20780359619818625
1761475652055328000,8.386327880859374,0.8601268832832575,-0.04155833731293678,-0.22363756353743372
1761475652065305000,8.39630517578125,0.819653418597579,-0.19447978504896163,-0.14429521981850266
1761475652075282000,8.406281982421875,0.842264478856325,-0.32453649002611634,-0.019640373884886504
1761475652085260000,8.416260009765624,0.8712883287668227,-0.40624373624548316,0.12232457635514438
1761475652095236900,8.42623681640625,0.8265618828117847,-0.48740167801901696,0.27669154672436413
1761475652105214000,8.4362138671875,0.7153466564267873,-0.5758211352281272,0.4490400178555399
1761475652115191000,8.44619091796875,0.5430833793610335,-0.6210976162813604,0.4962100575704127
1761475652125167900,8.45616796875,0.3113619511544704,-0.5902743157334626,0.4027670000456273
1761475652135145000,8.46614501953125,0.03429156118035316,-0.5217063909418881,0.2452483607124537
1761475652145121800,8.476121826171875,-0.2928349453389644,-0.5002436239354312,0.17782273782379923
1761475652155099000,8.486098876953125,-0.6215221253037453,-0.5419141894511879,0.2446630351051688
1761475652165075700,8.49607568359375,-0.9052432053387165,-0.5609747176215052,0.3138490187298506
1761475652175052800,8.506052734375,-1.0800029753953218,-0.5072760067902505,0.3067137600224465
1761475652185031000,8.516031005859375,-1.1210615464925766,-0.4318798434138298,0.23089630249403414
1761475652195007700,8.5260078125,-1.0945464645326137,-0.3746845226384699,0.19801877283006905
1761475652204984800,8.53598486328125,-1.0957388891875743,-0.35915552959516645,0.13338033297453075
1761475652214962000,8.5459619140625,-1.135672840169072,-0.3366919149830937,0.03086783380936831
1761475652224938800,8.555938720703125,-1.2232839036047458,-0.3160029088281095,-0.0447435432203114
1761475652234916000,8.565916015625,-1.302386081892252,-0.424734647834301,0.08076996536925435
1761475652244893000,8.575892822265626,-1.216864099690318,-0.6807773012183607,0.3789158035326749
1761475652254870000,8.5858701171875,-0.9010293870359659,-0.7322314479932188,0.43298689134027807
1761475652264846800,8.595846923828125,-0.5741232452690601,-0.5858958083882928,0.1960613916845992
1761475652274824000,8.605823974609375,-0.40861587220430373,-0.450823174945265,-0.04942629420906305
1761475652284802000,8.615802001953124,-0.45164369754791256,-0.42172742884233594,-0.303203158085607
1761475652294779000,8.62577880859375,-0.6165618725478649,-0.3398230526156723,-0.4419942275298759
1761475652304756000,8.635755859375,-0.8763555490285158,-0.06306859672293066,-0.5091306947462261
1761475652314732800,8.64573291015625,-1.2042220602601765,0.3224595376215875,-0.5016139624405652
1761475652324710000,8.6557099609375,-1.5924194138139485,0.6508066719770431,-0.41777481875903905
1761475652334687000,8.66568701171875,-1.816219401371479,0.9295867884784936,-0.41784521711412814
1761475652344663800,8.675663818359375,-1.8571289193868636,1.2099553432151675,-0.414217601201497
1761475652354641000,8.685640869140625,-1.7033908945709466,1.4643166193835437,-0.515445905775018
1761475652364617700,8.69561767578125,-1.5166840816110372,1.4851529250547288,-0.41596473712977017
1761475652374594800,8.7055947265625,-1.2446294739723205,1.3620938238799571,-0.32607904329299925
1761475652384572000,8.715572021484375,-0.8680325418412684,1.261384647809714,-0.29726963985078037
1761475652394549800,8.7255498046875,-0.4430342746347189,1.1392873774044214,-0.36469358223900195
1761475652404526800,8.73552685546875,0.01525660584270954,0.9331041489496826,-0.44302930619865655
1761475652414504000,8.74550390625,0.39272564463317394,0.7477282923325895,-0.49344651114121074
1761475652424481000,8.75548095703125,0.7533212900340557,0.6300049992278218,-0.6709204355273395
1761475652434457900,8.765457763671876,0.9753022454708814,0.46708486617729067,-0.7654233043033629
1761475652444435000,8.77543505859375,1.1966659457921982,0.3785070035360753,-0.9193130125496536
1761475652454412000,8.785412109375,1.3984955090820788,0.330340061738342,-1.1094388401728124
1761475652464388900,8.795388916015625,1.5354606782734392,0.3151858933568001,-1.25634270811975
1761475652474366000,8.805365966796876,1.6077882478594778,0.3525676756374538,-1.2876333339184522
1761475652484342800,8.8153427734375,1.5670996791183947,0.46036900192573665,-1.1825002769913524
1761475652494321000,8.82532080078125,1.27508598703444,0.5924151271544397,-0.9786205031733959
1761475652504298000,8.835298095703125,1.038780153647065,0.8203259110316634,-0.7899861562170087
1761475652514274800,8.84527490234375,0.8730342956513166,1.0345324330747128,-0.5653935569770634
1761475652524252000,8.855251953125,0.7869780604422092,1.191327653504163,-0.324959537743777
1761475652534228700,8.865228759765625,0.7514946591287851,1.2588202041491865,-0.1066593531789258
1761475652544205800,8.875205810546875,0.7511445305168628,1.1792293655619024,0.061907370923832056
1761475652554183000,8.885182861328126,0.7379308286786079,0.9457932423919438,0.13694324962049723
1761475652564159700,8.89515966796875,0.7000391971796751,0.6645436670370399,0.06973967198468745
1761475652574137000,8.90513720703125,0.5688333221673965,0.42728973914459345,-0.1241441199325025
1761475652584114000,8.915114013671875,0.39880584132969377,0.2753545259669423,-0.3321503990959376
1761475652594091000,8.925091064453126,0.2814911290258169,0.09514701189845799,-0.548657818492502
1761475652604069000,8.935069091796874,0.22866320967972278,-0.12088935592025518,-0.6975446769502014
1761475652614046000,8.9450458984375,0.24999241343438625,-0.3519366842575371,-0.7242061085782945
1761475652624023000,8.95502294921875,0.2951677722007036,-0.5452994479753077,-0.7643884082976729
1761475652634000000,8.964999755859376,0.31928163823783395,-0.7031324870198965,-0.7664043512299656
1761475652643977000,8.97497705078125,0.32793314672708507,-0.7880826606832444,-0.7003775622885674
1761475652653953800,8.984953857421875,0.2965799770861864,-0.8922064675025642,-0.622364202151075
1761475652663931000,8.994930908203125,0.27027415396273136,-0.9805758019596338,-0.5152043155714869
1761475652673908000,9.004907958984376,0.2545703888744116,-1.0758663139820097,-0.4554947469528764
1761475652683884800,9.014884765625,0.21274024888277052,-1.119522208096087,-0.44849458586722607
1761475652693862000,9.02486181640625,0.1587403631478548,-1.1774316684901713,-0.4569657693535089
1761475652703839700,9.03483984375,0.054343000084161756,-1.2434133761808275,-0.49657954846993085
1761475652713816800,9.04481689453125,-0.11580138513147831,-1.2867822700470686,-0.5360391599379479
1761475652723794000,9.0547939453125,-0.30908114674091336,-1.2319696066245436,-0.5590626734551042
1761475652733770800,9.064770751953125,-0.4484504544645548,-1.1485679775774478,-0.5333926640171557
1761475652743747800,9.074747802734375,-0.5201379725813865,-1.0415145470470188,-0.422748807779327
1761475652753725000,9.084724853515626,-0.5404325725913047,-0.9813706055991351,-0.19248934188410638
1761475652763702000,9.094701904296874,-0.5758201123148202,-0.9738242818728089,0.04031125986129045
1761475652773678800,9.104678955078125,-0.6123609137266874,-0.9429616722278297,0.22716230359748005
1761475652783656000,9.114656005859375,-0.653865475025773,-0.9344546867758035,0.34281375886425375
1761475652793633000,9.124633056640626,-0.7686293338030576,-0.9814584300130605,0.40625257713906465
1761475652803611000,9.13461083984375,-0.8691519012600183,-0.999263697425276,0.3742364135447889
1761475652813588000,9.144587890625,-1.0375409672409295,-0.9611936406195163,0.28257687843590973
1761475652823565000,9.15456494140625,-1.2632950114756822,-0.952184404733777,0.18848828954920172
1761475652833542000,9.1645419921875,-1.4064981982737779,-0.9197861099541187,0.12251008898988365
1761475652843519000,9.17451904296875,-1.4908423688679933,-0.9414547747962176,0.16773725100867448
1761475652853495800,9.184495849609375,-1.4374059622347355,-1.0247523589469492,0.2420058716598898
1761475652863473000,9.194472900390625,-1.2526081977665424,-1.055127185074985,0.17315050822906194
1761475652873449700,9.20444970703125,-1.050089483168721,-0.9267506882697343,-0.04912395026162267
1761475652883426800,9.2144267578125,-0.9051566960990428,-0.8122856663085519,-0.31228900287151334
1761475652893404000,9.22440380859375,-0.8581494457304477,-0.7467234992042183,-0.43756329587772486
1761475652903381000,9.234381103515625,-0.8911755170196294,-0.6434164155952632,-0.49413230144828557
1761475652913358800,9.24435888671875,-1.0050392120867968,-0.37689708412140605,-0.47200544450990856
1761475652923335700,9.254335693359375,-1.1088573139578104,-0.09156608467176557,-0.293141161743924
1761475652933312800,9.264312744140625,-1.102026591154933,0.17765417632386088,-0.0676006871946156
1761475652943290000,9.2742900390625,-0.9165899442613125,0.45905879611000416,0.05948525834344327
1761475652953267000,9.284266845703126,-0.6834703396946191,0.7053834808170795,0.23990393094457685
1761475652963244000,9.294244140625,-0.5375403582811356,0.8223096321947873,0.37745128393806515
1761475652973220900,9.304220947265625,-0.5416776042163371,0.7995071410171687,0.5432191345699131
1761475652983198000,9.314197998046875,-0.5189595764517784,0.7672029542617499,0.6382685313127935
1761475652993174800,9.3241748046875,-0.433343486225605,0.7081918162360787,0.6169392544928938
1761475653003152000,9.33415185546875,-0.2853121486186981,0.6660967416979372,0.514935727763176
1761475653013129000,9.34412890625,-0.015126257461309432,0.5722117125593126,0.34635274664536114
1761475653023106800,9.35410693359375,0.25771336307525633,0.5112507556401192,0.1767600039631128
1761475653033084000,9.364083984375,0.5347071806818247,0.4712491462498903,0.07517989027723669
1761475653043060700,9.374060791015625,0.7453951732099056,0.41933147361651063,0.1445630039092153
1761475653053037800,9.384037841796875,0.8426467561721801,0.38801717468127606,0.3418346846990287
1761475653063015000,9.394014892578125,0.8724363297581672,0.4699111756443977,0.5393013035390526
1761475653072991700,9.40399169921875,0.8359872982829809,0.6710429659284651,0.6581215981002897
1761475653082968800,9.41396875,0.7352905433028936,0.9112713795870542,0.6802081230282783
1761475653092946200,9.4239462890625,0.5881961942851544,1.1589354962043463,0.5823378967110068
1761475653102923000,9.433923095703125,0.42333354886472224,1.328958446997404,0.39008280197419226
1761475653112900000,9.443900146484374,0.30005554424226283,1.4670352306924759,0.19912468824535606
1761475653122877200,9.453877197265625,0.2850695720344782,1.5558856266647576,0.06723916040584445
1761475653132855000,9.46385498046875,0.36559915277659893,1.5379130398616194,-0.00029459903240203856
1761475653142832000,9.47383203125,0.5777127941936254,1.4729242887310683,0.045656566412001845
1761475653152809000,9.48380908203125,0.8669225347727537,1.3545840327717362,0.15725801563560962
1761475653162786000,9.4937861328125,1.1258978806078432,1.2050003511562943,0.2680325855810195
1761475653172763100,9.50376318359375,1.3227923255831002,1.0919152392461895,0.41268757862262423
1761475653182740000,9.513739990234376,1.4969371786117553,0.9446364735722541,0.5402512246750295
1761475653192717000,9.523717041015624,1.6465455562770366,0.7709177370011806,0.6275191737614572
1761475653202694000,9.53369384765625,1.8103794431716203,0.6049900926977395,0.6062688073966652
1761475653212671000,9.5436708984375,1.8996382738143205,0.4400580353029072,0.4203060177370906
1761475653222647800,9.553647705078125,1.8457102842718363,0.252176771736145,0.2060579215746373
1761475653232626000,9.5636259765625,1.6698019287019967,0.021632424484938382,0.11316840627938508
1761475653242603000,9.57360302734375,1.4451017774343489,-0.12267156316190957,0.07194741116203367
1761475653252579800,9.583579833984375,1.2151719088196753,-0.13609437770619986,0.11483356301262974
1761475653262557000,9.593556884765626,1.013688382488489,-0.0710619335643947,0.20127280618995427
1761475653272534000,9.603533935546874,0.8659574891328811,-0.022460838133096694,0.26576727099753916
1761475653282511000,9.613510986328125,0.7410960147112607,-0.032060148866474625,0.3054286886479705
1761475653292488200,9.62348828125,0.6179226395070553,-0.13027005546689033,0.32944019028916954
1761475653302465000,9.633465087890626,0.49243806475102897,-0.24632673053368925,0.3033757016409188
1761475653312442000,9.643442138671874,0.36524259442389007,-0.34920419055372476,0.28205606943219896
1761475653322419000,9.6534189453125,0.18452420822381974,-0.446136478433758,0.23454444973804056
1761475653332396000,9.66339599609375,0.010956278300285338,-0.5258006745181978,0.14268559266477823
1761475653342374100,9.6733740234375,-0.1334434248059988,-0.5570305100403726,0.026229762212559578
1761475653352351000,9.68335107421875,-0.21210019741356373,-0.5281422692082822,-0.11377630904465913
1761475653362328000,9.693328125,-0.2818541171193123,-0.4954037826888263,-0.2120177067618817
1761475653372305000,9.703304931640625,-0.37988720584809776,-0.5408033055998385,-0.23377156566940246
1761475653382282000,9.713281982421876,-0.492447417101264,-0.6136427702307701,-0.22297866123728452
1761475653392259000,9.723259033203124,-0.5430781186640262,-0.6812205149412155,-0.2082791778206825
1761475653402236000,9.73323583984375,-0.6021855566710234,-0.7453923967309296,-0.1829638270393014
1761475653412213000,9.743212890625,-0.6324357335060834,-0.8050279502652585,-0.20947920126020908
1761475653422189800,9.75318994140625,-0.6777630679637193,-0.8490707978703081,-0.2452319940995425
1761475653432167200,9.763167236328124,-0.7630816365480423,-0.8623029121480882,-0.32175445809215303
1761475653442144000,9.77314404296875,-0.9050111501485109,-0.8707914851605891,-0.4216146891828626
1761475653452121900,9.783121826171875,-1.105937627118826,-0.8122536637350917,-0.5126175870139151
1761475653462099200,9.79309912109375,-1.3417694132536648,-0.6960716087229549,-0.5561469321388751
1761475653472076000,9.803075927734374,-1.5588368776857853,-0.5432819706730544,-0.5222456123851239
1761475653482053000,9.81305322265625,-1.8071452835559845,-0.595058919661492,-0.20852065842635928
1761475653492030000,9.823030029296875,-1.8176725227892399,-0.8387161387249827,0.23585304811857638
1761475653502007000,9.833007080078126,-1.4942513005286455,-0.9326631271839141,0.35350860974937676
1761475653511984000,9.842984130859374,-1.0901567051410674,-0.8225354037746787,0.04296352793574333
1761475653521961000,9.8529609375,-0.9390689025729894,-0.79859543299973,-0.31374365865923465
1761475653531938000,9.86293798828125,-1.0067372481763361,-0.8973806552700698,-0.5844732282392681
1761475653541915000,9.872914794921876,-1.2081202367424964,-0.6991932478748262,-0.9171068077422678
1761475653551892000,9.88289208984375,-1.5239549493968485,-0.09930749257877468,-1.1867507009774445
1761475653561870000,9.8928701171875,-1.977908092930913,0.41922114510983227,-1.1395996582239865
1761475653571847000,9.902846923828125,-2.4258465062201022,0.7478444660581648,-0.8546389533914626
1761475653581824000,9.912823974609376,-2.5079268235355614,1.1923099425397812,-0.7371719731353222
1761475653591800800,9.92280078125,-2.305918396547437,1.6194899376995862,-0.6587419950209558
1761475653601778000,9.93277783203125,-1.847034810873866,1.8732868579834698,-0.5072308159416541
1761475653611755000,9.942755126953125,-1.2244868496537207,1.8634741967603563,-0.12447616489846258
1761475653621732000,9.952732177734376,-0.5791974797934294,1.7172846876278518,0.1671291290476918
1761475653631709200,9.962709228515624,0.00061608607172966,1.4753930169321596,0.20310509965103118
1761475653641686000,9.97268603515625,0.37154958561360835,1.1561015879526733,0.19518420699127018
1761475653651663000,9.9826630859375,0.5323726002544165,0.8038548148326575,0.19592267733365296
1761475653661640000,9.992639892578126,0.5874801549702883,0.5844581768006086,0.04044102372080088
1761475653671617000,10.002616943359374,0.6570423514962196,0.5233008205264806,-0.21131017954703418
1761475653681595100,10.01259521484375,0.791736068624258,0.5336728691980243,-0.5247723543837666
1761475653691572000,10.022572021484375,0.9515881924062967,0.5249072328098118,-0.7344939860977232
1761475653701549000,10.032549072265626,1.0720189909040927,0.5248331446602941,-0.8213798039987683
1761475653711526000,10.04252587890625,1.101000755238533,0.46383170960023995,-0.8029295166812837
1761475653721503000,10.0525029296875,1.2251035202473401,0.44283042262569067,-0.6938505716726183
1761475653731480000,10.06247998046875,1.3841665394783018,0.5791742450483143,-0.33339506539478897
1761475653741457000,10.072456787109376,1.6123358281612394,0.7801919074334204,-0.09676679512001574
1761475653751434000,10.08243408203125,1.7820564350068568,0.8979350742824375,0.09012545740939676
1761475653761411000,10.0924111328125,1.8185808698058128,0.917674232366681,0.21871154184471814
1761475653771388200,10.10238818359375,1.7754747185289859,0.8839929120391606,0.24402897498533127
1761475653781365000,10.112364990234376,1.7290274401307104,0.8142904302597045,0.22360855663865803
1761475653791342800,10.1223427734375,1.60951901717484,0.6542807778283953,0.14049356251321732
1761475653801320200,10.1323203125,1.4046996244192123,0.5082828457452356,0.028194924805685875
1761475653811297000,10.142297119140625,1.1545780316472052,0.42455154635235665,-0.13053798568807543
1761475653821274000,10.152274169921874,1.0309382079750298,0.3482784540109336,-0.2616092014700174
1761475653831251000,10.1622509765625,0.9733546185344457,0.30359029423967004,-0.27230251798518
1761475653841228000,10.17222802734375,0.9649854341179132,0.17069310513958333,-0.17543102038167416
1761475653851205000,10.182205078125,0.9293430428504943,0.022037352024018762,-0.02940766159631312
1761475653861182000,10.192181884765626,0.8830752126723528,-0.11566752961874008,0.09965849797353148
1761475653871159000,10.202158935546874,0.8878945956528186,-0.21146949829459188,0.13797303105965256
1761475653881135900,10.212135986328125,0.8431962067484855,-0.32802667022943494,0.11296813446693121
1761475653891113000,10.222113037109375,0.7953601043403148,-0.5229305259093642,0.10130071222260593
1761475653901091000,10.232091064453124,0.6434779365241527,-0.668308134137094,0.0013894085317850112
1761475653911068000,10.24206787109375,0.5235860672086476,-0.8173514252655207,-0.1575651818886399
1761475653921045000,10.252044921875,0.3641092064797878,-0.9296120690502225,-0.28728257190883155
1761475653931021800,10.262021728515625,0.2675660640478134,-1.0391923877097666,-0.34782537648119033
1761475653940999000,10.2719990234375,0.21762100666165352,-1.06671343184188,-0.3361919295717031
1761475653950976300,10.281976318359375,0.1981359694689512,-1.0330369338199497,-0.3379466642845422
1761475653960953000,10.291953125,0.12248363937437534,-1.0159541354633868,-0.2808945513721555
1761475653970930200,10.30193017578125,-0.05506956079304218,-1.0036920352615415,-0.20104192004352806
1761475653980907000,10.311906982421876,-0.2752507733315229,-0.9849791514851153,-0.11580229844693093
1761475653990884000,10.321884033203125,-0.5101788886249065,-0.9919995516411959,-0.033918672747351226
1761475654000861000,10.33186083984375,-0.7181120294868946,-0.9896811916962266,0.1132339457962662
1761475654010839000,10.341839111328126,-0.8275234213203191,-0.9556399520151316,0.18290398661084473
1761475654020816100,10.351816162109374,-1.017241691055894,-0.9058907094620168,0.28893245800770817
1761475654030793000,10.36179296875,-1.154489184319973,-0.824119019704312,0.34615554357282813
1761475654040770000,10.37177001953125,-1.3688403755307197,-0.827017371494323,0.43545923627056177
1761475654050747000,10.381746826171875,-1.5462456916600464,-0.8595899999275803,0.5147521878898144
1761475654060724000,10.391723876953124,-1.7455781774371861,-0.9919570276737213,0.6221330968089401
1761475654070701000,10.401701171875,-1.7636375657409429,-1.059562975565344,0.5685664148595184
1761475654080678000,10.411677978515625,-1.671245113247633,-0.9161009917005896,0.2585101394761354
1761475654090654700,10.42165478515625,-1.6888304542988537,-0.741145991332829,0.07153225448988378
1761475654100631600,10.431631591796876,-1.8210510593116283,-0.6223796189159154,0.02180624668188393
1761475654110608600,10.441608642578124,-1.9911282245099544,-0.4498405936487019,0.009979980614036321
1761475654120585500,10.45158544921875,-2.139197556039691,-0.1025318614527583,-0.010986088916659354
1761475654130563600,10.4615634765625,-2.241312361124158,0.29132088751420376,0.04413874572757631
1761475654140540700,10.471540771484374,-2.174015186920762,0.46299788912460205,0.16720592061094938
1761475654150517500,10.481517578125,-1.8800860166043043,0.5323964195214211,0.4278917236257344
1761475654160494600,10.49149462890625,-1.382597682726383,0.5889823762267827,0.6260571383848786
1761475654170471700,10.5014716796875,-0.8066817088216542,0.6643835080392658,0.6425409479349852
1761475654180448500,10.511448486328124,-0.4100432746589184,0.6283502177581191,0.6445655125651508
1761475654190425600,10.521425537109375,-0.27377602460384365,0.571653201893717,0.7193965894047171
1761475654200402400,10.53140234375,-0.27679975633919235,0.6283852890715003,0.6922497854124754
1761475654210379500,10.541379638671875,-0.33449265137314793,0.6443452208779752,0.620554741576314
1761475654220356400,10.5513564453125,-0.21633447398245334,0.6572311520665883,0.555670035342127
1761475654230333400,10.56133349609375,0.14148352339863776,0.6890981164485216,0.47388482851572333
1761475654240310800,10.571310791015625,0.5902116257607937,0.7091720594450831,0.3992896062586456
1761475654250288400,10.581288330078126,1.0083370845884083,0.6779124133065343,0.3337846492342651
1761475654260265500,10.591265380859374,1.3466922566086053,0.6214660112023354,0.2423372225061059
1761475654270242600,10.60124267578125,1.5402408982872962,0.5699246245354413,0.3274032776340842
1761475654280219600,10.6112197265625,1.556621539723873,0.5558560594335198,0.49985688964016733
1761475654290196700,10.62119677734375,1.439437760323286,0.5524788380853831,0.6873624517623335
1761475654300173600,10.631173583984374,1.2750772192060946,0.6309750133037567,0.8053280291903764
1761475654310150700,10.641150634765625,1.1187450862437487,0.8034177385896444,0.6644334846608341
1761475654320127500,10.65112744140625,0.9918284328579902,1.0377052178919315,0.30285518489815294
1761475654330104600,10.6611044921875,0.7082113977193832,1.117977901263535,0.05436042614299803
1761475654340081400,10.671081298828126,0.3213672123402357,1.1752110698312521,0.003054528732411563
1761475654350058500,10.68105859375,0.11980945172905921,1.2839368174880743,-0.04167772590890526
1761475654360036600,10.69103662109375,0.15158756878376006,1.3510994055263696,0.013805749447271228
1761475654370013400,10.701013427734376,0.27764672855734823,1.4066304463513195,0.1703168557057157
1761475654379990500,10.710990478515624,0.45376200487613677,1.3958438255295156,0.31817243488691743
1761475654389967400,10.72096728515625,0.5851958434253931,1.2826138983212412,0.4051485614199191
1761475654399944400,10.7309443359375,0.7281178751945495,1.1476374187290668,0.4905734764555469
1761475654409921500,10.740921630859376,0.9098165046036243,1.0141795270062983,0.6778619982935488
1761475654419898600,10.750898681640624,1.0910346570193767,0.8755617683023214,0.9338045523039996
1761475654429875700,10.760875732421875,1.2201742471516133,0.7187021043345332,1.0807681876141577
1761475654439852500,10.7708525390625,1.2502321162849663,0.4899646603748202,0.9544396363146602
1761475654449829600,10.78082958984375,1.1611281839430332,0.2455810267329216,0.6650120152011514
1761475654459806500,10.790806396484374,0.9569815758824348,0.036962095563858745,0.36352234650254245
1761475654469784600,10.80078466796875,0.7780050649136304,-0.12111688106581568,0.171659575551562
1761475654479761700,10.81076171875,0.6608288842976093,-0.1894381376199424,0.16491057621538638
1761475654489738500,10.820738525390626,0.6261427708417177,-0.2241078844629228,0.2932765881592408
1761475654499715600,10.830715576171874,0.6548112314432859,-0.22737974574044345,0.4439859493363648
1761475654509692700,10.840692626953125,0.6462824725508689,-0.18831790141835808,0.5987556187549605
1761475654519669500,10.85066943359375,0.5974912613749503,-0.18546265811771154,0.7438205443043261
1761475654529646600,10.860646484375,0.5434352615386248,-0.2656429870307445,0.8039791718646884
1761475654539623400,10.87062353515625,0.5021650935173034,-0.3742106215164065,0.7695765515252947
1761475654549600500,10.8806005859375,0.43309681798815725,-0.48713425925448534,0.6528204960174858
1761475654559577300,10.890577392578125,0.37324762170314785,-0.5878890280321241,0.4526649668870493
1761475654569554700,10.9005546875,0.21979835070073603,-0.7036052190981805,0.17489358903672544
1761475654579531800,10.91053173828125,0.06187748724222183,-0.7417416191384196,0.05311879205144941
1761475654589509400,10.92050927734375,-0.2987450461655855,-0.6814679138310253,-0.010977796012349427
1761475654599486500,10.930486572265625,-0.4210048136562109,-0.747117759218812,0.1718289407690987
1761475654609463600,10.940463623046876,-0.5660568431913853,-0.7212475510336458,0.03229863379746675
1761475654619440600,10.950440673828124,-0.6156324827432632,-0.621772592933476,-0.03125449503939599
1761475654629417700,10.960417724609375,-0.5584393539249897,-0.7254045245826244,-0.11086473244689404
1761475654639394600,10.97039453125,-0.3965443261384964,-0.6612151071362197,-0.2077897868685424
1761475654649371600,10.98037158203125,-0.2048293296277523,-0.40378786752596496,-0.09605207097940147
