time,seconds_elapsed,z,y,x
1761470454734350600,0.0743505859375,-0.21652673184871674,-0.16780701279640198,0.2254796028137207
1761470454744327000,0.084326904296875,-0.18236051499843597,-0.11248170584440231,0.18096566200256348
1761470454754302700,0.094302734375,-0.12058860063552856,-0.047710664570331573,0.13003848493099213
1761470454764279800,0.10427978515625,-0.07732129096984863,-0.021056419238448143,0.06607548147439957
1761470454774255900,0.114255859375,-0.04029207304120064,0.009842966683208942,0.01838718168437481
1761470454784232000,0.12423193359375,-0.019979342818260193,-0.013592051342129707,-0.0033229077234864235
1761470454794207700,0.134207763671875,-0.00851727370172739,-0.0686359703540802,0.010699964128434658
1761470454804184600,0.1441845703125,-0.0063132415525615215,-0.09272292256355286,0.05124765634536743
1761470454814161000,0.154160888671875,-0.0070154545828700066,-0.11360479146242142,0.09290246665477753
1761470454824136700,0.16413671875,0.004745330661535263,-0.12486303597688675,0.14347828924655914
1761470454834113800,0.17411376953125,0.017777016386389732,-0.07928620278835297,0.18736353516578674
1761470454844089900,0.18408984375,0.01957465149462223,-0.02258591167628765,0.20280693471431732
1761470454854066000,0.19406591796875,0.023136300966143608,0.03035987913608551,0.19753730297088623
1761470454864042800,0.204042724609375,0.02867993712425232,0.0876798927783966,0.18223237991333008
1761470454874018800,0.214018798828125,0.030246470123529434,0.08923383057117462,0.14670611917972565
1761470454883995000,0.223994873046875,0.023333435878157616,0.050994835793972015,0.10924209654331207
1761470454893970700,0.233970703125,0.0032277782447636127,0.02347801811993122,0.07199317961931229
1761470454903947800,0.24394775390625,-0.03922593966126442,-0.01107116974890232,0.02838445082306862
1761470454913923800,0.253923828125,-0.08633235841989517,-0.03848973661661148,-0.021384326741099358
1761470454923900000,0.26389990234375,-0.1291504055261612,-0.04240298271179199,-0.06748843938112259
1761470454933876700,0.273876708984375,-0.16562679409980774,-0.01378054078668356,-0.09539627283811569
1761470454943852800,0.283852783203125,-0.19230927526950836,0.050910837948322296,-0.09526418149471283
1761470454953828900,0.293828857421875,-0.20597290992736816,0.12077130377292633,-0.07819130271673203
1761470454963805700,0.3038056640625,-0.22204267978668213,0.14510779082775116,-0.06191565841436386
1761470454973781800,0.31378173828125,-0.24992603063583374,0.12924757599830627,-0.05669247359037399
1761470454983757800,0.3237578125,-0.2750990390777588,0.12298303097486496,-0.05343835428357124
1761470454993734000,0.33373388671875,-0.2884519100189209,0.11412099003791809,-0.0489143431186676
1761470455003710700,0.343710693359375,-0.29456040263175964,0.07843410223722458,-0.05996033549308777
1761470455013686800,0.353686767578125,-0.28983744978904724,0.024798162281513214,-0.08345983922481537
1761470455023662800,0.363662841796875,-0.28671994805336,-0.03662072494626045,-0.09756260365247726
1761470455033640000,0.373639892578125,-0.29533857107162476,-0.08474500477313995,-0.10176772624254227
1761470455043615700,0.38361572265625,-0.3231710195541382,-0.12373554706573486,-0.1030239388346672
1761470455053591800,0.393591796875,-0.36208003759384155,-0.1412651687860489,-0.09840084612369537
1761470455063568000,0.40356787109375,-0.38980886340141296,-0.14051441848278046,-0.08624697476625443
1761470455073544700,0.413544677734375,-0.40188267827033997,-0.1272987425327301,-0.057154182344675064
1761470455083520800,0.423520751953125,-0.38709867000579834,-0.13266794383525848,-0.016951637342572212
1761470455093496800,0.433496826171875,-0.35969263315200806,-0.1646418571472168,0.02392628602683544
1761470455103474000,0.443473876953125,-0.35033106803894043,-0.21364375948905945,0.04746250808238983
1761470455113449700,0.45344970703125,-0.34279492497444153,-0.21068188548088074,0.07516747713088989
1761470455123425800,0.46342578125,-0.3271022439002991,-0.17857880890369415,0.09050089120864868
1761470455133403000,0.47340283203125,-0.30057185888290405,-0.1758514940738678,0.08959507942199707
1761470455143378700,0.483378662109375,-0.27770304679870605,-0.20425330102443695,0.08891038596630096
1761470455153355000,0.49335498046875,-0.2742018699645996,-0.2230570763349533,0.08503811061382294
1761470455163330800,0.503330810546875,-0.28419432044029236,-0.23971833288669586,0.06943731009960175
1761470455173308000,0.513307861328125,-0.28230714797973633,-0.27077123522758484,0.046168021857738495
1761470455183283700,0.52328369140625,-0.2569695711135864,-0.25785383582115173,0.03716307505965233
1761470455193259800,0.533259765625,-0.1996493935585022,-0.22443562746047974,0.04553847014904022
1761470455203236900,0.54323681640625,-0.13606588542461395,-0.20092789828777313,0.06903953850269318
1761470455213212700,0.553212646484375,-0.09199477732181549,-0.1883748322725296,0.09484267979860306
1761470455223189000,0.56318896484375,-0.0808129608631134,-0.19176983833312988,0.10130856931209564
1761470455233164800,0.573164794921875,-0.09221389889717102,-0.22218352556228638,0.07831396162509918
1761470455243142000,0.583141845703125,-0.11399855464696884,-0.26684316992759705,0.044036947190761566
1761470455253117700,0.59311767578125,-0.11619378626346588,-0.29318371415138245,0.014038006775081158
1761470455263093800,0.60309375,-0.10278503596782684,-0.2893761992454529,0.013413761742413044
1761470455273070800,0.61307080078125,-0.08135005831718445,-0.2510813772678375,0.03750672936439514
1761470455283046700,0.623046630859375,-0.061051975935697556,-0.20206111669540405,0.07021327316761017
1761470455293023000,0.63302294921875,-0.04926818609237671,-0.16356270015239716,0.09914889931678772
1761470455302999800,0.642999755859375,-0.04568144306540489,-0.11356958001852036,0.11044230312108994
1761470455312976000,0.652975830078125,-0.038540177047252655,-0.06189733371138573,0.10167091339826584
1761470455322951700,0.66295166015625,-0.042384713888168335,-0.02749435231089592,0.05117311701178551
1761470455332927700,0.672927734375,-0.05043894425034523,-0.026980271562933922,-0.04507161304354668
1761470455342904800,0.68290478515625,-0.07098282873630524,-0.03431541472673416,-0.17219653725624084
1761470455352880600,0.692880615234375,-0.08213513344526291,-0.05035470798611641,-0.28618988394737244
1761470455362857000,0.70285693359375,-0.0707530528306961,-0.07315775752067566,-0.3543612062931061
1761470455372833800,0.712833740234375,-0.056559786200523376,-0.07387001812458038,-0.3790163993835449
1761470455382809900,0.722809814453125,-0.048548467457294464,-0.04872392490506172,-0.36321985721588135
1761470455392785700,0.73278564453125,-0.03794010356068611,0.0012158409226685762,-0.3136572539806366
1761470455402761700,0.74276171875,-0.02782515063881874,0.061436306685209274,-0.2577516436576843
1761470455412738800,0.75273876953125,-0.02111116796731949,0.1063234955072403,-0.19485974311828613
1761470455422714600,0.762714599609375,-0.023567136377096176,0.12643755972385406,-0.14324341714382172
1761470455432691000,0.77269091796875,-0.022630449384450912,0.12887315452098846,-0.08017265051603317
1761470455442667800,0.782667724609375,-0.00979907438158989,0.11440925300121307,-0.004864583257585764
1761470455452643800,0.792643798828125,0.019943589344620705,0.0619853250682354,0.07409369200468063
1761470455462620000,0.802619873046875,0.05071961507201195,-0.01020524650812149,0.13593176007270813
1761470455472597000,0.812596923828125,0.06869478523731232,-0.07177327573299408,0.17139962315559387
1761470455482572800,0.82257275390625,0.07806964218616486,-0.10089414566755295,0.17372722923755646
1761470455492548600,0.832548583984375,0.06663329154253006,-0.09512042999267578,0.12156926095485687
1761470455502525000,0.84252490234375,0.049030859023332596,-0.06393267959356308,0.022180089727044106
1761470455512501800,0.852501708984375,0.03775995597243309,-0.003899636212736368,-0.09483979642391205
1761470455522477800,0.862477783203125,0.040438029915094376,0.0840749591588974,-0.22809931635856628
1761470455532454000,0.872453857421875,0.06268717348575592,0.18179121613502502,-0.342841237783432
1761470455542431000,0.882430908203125,0.11067520827054977,0.2787555754184723,-0.43301108479499817
1761470455552406800,0.89240673828125,0.1711776852607727,0.3388800323009491,-0.5039772391319275
1761470455562382600,0.902382568359375,0.2352118045091629,0.33866167068481445,-0.5348752737045288
1761470455572359000,0.91235888671875,0.29679420590400696,0.29740196466445923,-0.5347082018852234
1761470455582335700,0.922335693359375,0.3389379382133484,0.2458205372095108,-0.4988667964935303
1761470455592311800,0.932311767578125,0.36421555280685425,0.19835487008094788,-0.4350842833518982
1761470455602287900,0.942287841796875,0.3738844096660614,0.13759377598762512,-0.3618321716785431
1761470455612265000,0.952264892578125,0.3541693687438965,0.05993519350886345,-0.3113948106765747
1761470455622240800,0.96224072265625,0.3096804618835449,-0.003711958881467581,-0.2700068950653076
1761470455632216600,0.972216552734375,0.259555846452713,-0.015095746144652367,-0.20525585114955902
1761470455642194000,0.98219384765625,0.2152363359928131,0.026125991716980934,-0.11052827537059784
1761470455652169700,0.992169677734375,0.18740631639957428,0.050128910690546036,-0.007165282499045134
1761470455662145800,1.002145751953125,0.15468911826610565,0.05118884891271591,0.09079403430223465
1761470455672121900,1.012121826171875,0.12797915935516357,0.04777826741337776,0.1871267855167389
1761470455682099000,1.022098876953125,0.12338493019342422,0.04336407780647278,0.2823827266693115
1761470455692074800,1.03207470703125,0.11811822652816772,0.0159369558095932,0.34970203042030334
1761470455702050600,1.042050537109375,0.08383481949567795,0.021875806152820587,0.39414432644844055
1761470455712028000,1.05202783203125,0.03232807666063309,0.06817413866519928,0.4168988764286041
1761470455722003700,1.062003662109375,-0.020025407895445824,0.10613296926021576,0.3973110616207123
1761470455731980000,1.07197998046875,-0.06297057867050171,0.1040160059928894,0.33100754022598267
1761470455741957000,1.08195703125,-0.10151956975460052,0.036285966634750366,0.20814792811870575
1761470455751933200,1.09193310546875,-0.1382044553756714,-0.05710604041814804,0.06478826701641083
1761470455761909200,1.1019091796875,-0.1623300313949585,-0.10557583719491959,-0.0771355852484703
1761470455771885000,1.111885009765625,-0.16843628883361816,-0.11329074203968048,-0.18688513338565826
1761470455781862100,1.121862060546875,-0.15533752739429474,-0.09486673027276993,-0.2577401399612427
1761470455791838200,1.131838134765625,-0.12004735320806503,-0.042890552431344986,-0.2871879041194916
1761470455801814000,1.14181396484375,-0.06522831320762634,0.01277404185384512,-0.273854523897171
1761470455811791000,1.151791015625,-0.009752889163792133,0.07667451351881027,-0.23239605128765106
1761470455821767200,1.16176708984375,0.035279035568237305,0.13620522618293762,-0.17382994294166565
1761470455831743200,1.1717431640625,0.05617915466427803,0.1976989209651947,-0.11019594967365265
1761470455841719000,1.181718994140625,0.05088851973414421,0.25340452790260315,-0.049924883991479874
1761470455851696000,1.191696044921875,0.039830200374126434,0.31907719373703003,0.02586985006928444
1761470455861672200,1.201672119140625,0.02241605892777443,0.4136071503162384,0.10714952647686005
1761470455871648000,1.21164794921875,0.0073895831592381,0.47671201825141907,0.18067465722560883
1761470455881625000,1.221625,0.013793686404824257,0.48493772745132446,0.24087274074554443
1761470455891601200,1.23160107421875,0.029452655464410782,0.46303442120552063,0.2931921184062958
1761470455901577200,1.2415771484375,0.042653944343328476,0.436221182346344,0.32438892126083374
1761470455911554000,1.251553955078125,0.035550206899642944,0.374607115983963,0.32727473974227905
1761470455921530400,1.2615302734375,0.013580990955233574,0.27965983748435974,0.29835495352745056
1761470455931506200,1.271506103515625,-0.017571991309523582,0.14513693749904633,0.24176828563213348
1761470455941482000,1.28148193359375,-0.0660412535071373,0.01808845065534115,0.17322410643100739
1761470455951459000,1.291458984375,-0.13037782907485962,-0.0399787463247776,0.10404466837644577
1761470455961435100,1.30143505859375,-0.21785441040992737,-0.02726828120648861,0.02998083084821701
1761470455971411200,1.3114111328125,-0.312842458486557,0.007342847064137459,-0.07087425887584686
1761470455981388000,1.321387939453125,-0.38282209634780884,0.027161557227373123,-0.19596612453460693
1761470455991364400,1.3313642578125,-0.42635825276374817,0.051686882972717285,-0.3485851287841797
1761470456001340200,1.341340087890625,-0.44446587562561035,0.07279908657073975,-0.4969732463359833
1761470456011316000,1.35131591796875,-0.4277254045009613,0.14077597856521606,-0.6004055738449097
1761470456021293000,1.36129296875,-0.3682415783405304,0.23051385581493378,-0.6523513197898865
1761470456031269000,1.37126904296875,-0.2865053415298462,0.2937673330307007,-0.6838290691375732
1761470456041245200,1.3812451171875,-0.17533808946609497,0.31860238313674927,-0.702829122543335
1761470456051222000,1.391221923828125,-0.06092460826039314,0.3358514606952667,-0.6983671188354492
1761470456061198300,1.4011982421875,0.04287662357091904,0.37570247054100037,-0.6649042367935181
1761470456071174100,1.411174072265625,0.12952415645122528,0.46211448311805725,-0.5781851410865784
1761470456081151200,1.421151123046875,0.18990492820739746,0.5301574468612671,-0.4679950177669525
1761470456091127000,1.431126953125,0.23408742249011993,0.5244091749191284,-0.34585312008857727
1761470456101103000,1.44110302734375,0.2705466151237488,0.46821433305740356,-0.2046014815568924
1761470456111079200,1.4510791015625,0.2896644175052643,0.37348833680152893,-0.051096100360155106
1761470456121056000,1.461055908203125,0.2919347584247589,0.27349144220352173,0.11294849961996078
1761470456131032300,1.4710322265625,0.279141366481781,0.1607089340686798,0.2648572325706482
1761470456141008100,1.481008056640625,0.2658117115497589,0.016631120815873146,0.40362709760665894
1761470456150985200,1.490985107421875,0.24140948057174683,-0.1407671421766281,0.504218339920044
1761470456160961000,1.5009609375,0.195073664188385,-0.27139973640441895,0.5734168291091919
1761470456170937000,1.51093701171875,0.11873961985111237,-0.35474544763565063,0.6038396954536438
1761470456180914200,1.5209140625,0.030708570033311844,-0.39594748616218567,0.5934557318687439
1761470456190890000,1.530889892578125,-0.05865086242556572,-0.3964405953884125,0.5601484775543213
1761470456200866300,1.5408662109375,-0.11982952803373337,-0.3744572699069977,0.5153107047080994
1761470456210842000,1.550842041015625,-0.1561063528060913,-0.3433636724948883,0.466002881526947
1761470456220819200,1.560819091796875,-0.15597878396511078,-0.30930158495903015,0.4292193055152893
1761470456230795300,1.570795166015625,-0.11419081687927246,-0.2804149091243744,0.40995392203330994
1761470456240771000,1.58077099609375,-0.052305612713098526,-0.2780359089374542,0.3940923810005188
1761470456250748200,1.590748046875,0.018359143286943436,-0.26947829127311707,0.3810788691043854
1761470456260724000,1.600723876953125,0.08266223222017288,-0.23799465596675873,0.3737090826034546
1761470456270700300,1.6107001953125,0.15338864922523499,-0.1965246945619583,0.3910359740257263
1761470456280676000,1.620676025390625,0.1974003165960312,-0.21586909890174866,0.3831325173377991
1761470456290653200,1.630653076171875,0.19119398295879364,-0.32339343428611755,0.3487589657306671
1761470456300629200,1.640629150390625,0.13315677642822266,-0.45943647623062134,0.2848023474216461
1761470456310605000,1.65060498046875,0.03317531198263168,-0.5811549425125122,0.2041570395231247
1761470456320582100,1.66058203125,-0.08647012710571289,-0.6526921987533569,0.11257786303758621
1761470456330558000,1.670557861328125,-0.20238132774829865,-0.6604934334754944,0.032088544219732285
1761470456340534300,1.6805341796875,-0.2773493230342865,-0.6168745756149292,-0.01523582637310028
1761470456350511000,1.690510986328125,-0.3199091851711273,-0.5321099758148193,-0.035327792167663574
1761470456360487200,1.700487060546875,-0.3304039239883423,-0.4130999743938446,-0.016971953213214874
1761470456370463200,1.710463134765625,-0.30644893646240234,-0.2666686177253723,0.04050648212432861
1761470456380439300,1.720439208984375,-0.26100635528564453,-0.10700760036706924,0.11241555958986282
1761470456390416100,1.730416015625,-0.21903978288173676,0.03428962454199791,0.18367239832878113
1761470456400392000,1.740391845703125,-0.1804734766483307,0.1734677404165268,0.2705122232437134
1761470456410368300,1.7503681640625,-0.13740110397338867,0.3648802936077118,0.3829076886177063
1761470456420345000,1.760344970703125,-0.09099551290273666,0.5629557967185974,0.49143415689468384
1761470456430321200,1.770321044921875,-0.04740859195590019,0.6656642556190491,0.5798870325088501
1761470456440297200,1.780297119140625,-0.017573466524481773,0.6731389164924622,0.623531699180603
1761470456450273300,1.790273193359375,-0.003986324183642864,0.591408371925354,0.636843740940094
1761470456460250000,1.80025,-0.01274013426154852,0.4070414900779724,0.5784371495246887
1761470456470226200,1.81022607421875,-0.040065307170152664,0.15665683150291443,0.45604610443115234
1761470456480202200,1.8202021484375,-0.07459132373332977,-0.08126119524240494,0.3001534342765808
1761470456490179000,1.830178955078125,-0.11197219043970108,-0.26408401131629944,0.131326362490654
1761470456500155100,1.840155029296875,-0.13049952685832977,-0.36920619010925293,-0.01930362731218338
1761470456510131200,1.850131103515625,-0.11713016033172607,-0.43606215715408325,-0.122545525431633
1761470456520108300,1.8601083984375,-0.08610513806343079,-0.4431983530521393,-0.17229363322257996
1761470456530084000,1.870083984375,-0.046171512454748154,-0.40526413917541504,-0.1785486787557602
1761470456540060200,1.88006005859375,0.019421344622969627,-0.3188757300376892,-0.14075228571891785
1761470456550036200,1.8900361328125,0.10200143605470657,-0.18318074941635132,-0.08365252614021301
1761470456560013000,1.900012939453125,0.1877664178609848,-0.03761822730302811,-0.04550141468644142
1761470456569989000,1.909989013671875,0.27317139506340027,0.09078074246644974,-0.056671202182769775
1761470456579965200,1.919965087890625,0.3564785420894623,0.19688133895397186,-0.12520632147789001
1761470456589942300,1.9299423828125,0.4464544355869293,0.2572546899318695,-0.23799629509449005
1761470456599918000,1.93991796875,0.5308563709259033,0.2871612012386322,-0.370236337184906
1761470456609894400,1.949894287109375,0.5953144431114197,0.3293972909450531,-0.4976256191730499
1761470456619870200,1.9598701171875,0.6158745288848877,0.34651049971580505,-0.6315714120864868
1761470456629847000,1.969846923828125,0.5991842150688171,0.3347870409488678,-0.7531087398529053
1761470456639823000,1.979822998046875,0.5661008358001709,0.325095534324646,-0.828956663608551
1761470456649799200,1.989799072265625,0.5322254300117493,0.308824747800827,-0.854227602481842
1761470456659776300,1.9997763671875,0.498292475938797,0.2831404209136963,-0.8225618004798889
1761470456669752000,2.009751953125,0.47104841470718384,0.2659672200679779,-0.7474244236946106
1761470456679728400,2.019728271484375,0.435060054063797,0.2637692987918854,-0.6421489119529724
1761470456689705200,2.029705322265625,0.4121752679347992,0.23512646555900574,-0.517916202545166
1761470456699681300,2.039681396484375,0.39533501863479614,0.18918240070343018,-0.3702217936515808
1761470456709657000,2.049656982421875,0.38566911220550537,0.11816588789224625,-0.20663879811763763
1761470456719633200,2.059633056640625,0.3636346459388733,0.004018543753772974,-0.06749527901411057
1761470456729610200,2.0696103515625,0.3133924901485443,-0.13276360929012299,0.027767233550548553
1761470456739585800,2.079585693359375,0.2614656388759613,-0.23681464791297913,0.11125785857439041
1761470456749562000,2.08956201171875,0.2022450566291809,-0.2983865737915039,0.1672734022140503
1761470456759539000,2.0995390625,0.13566391170024872,-0.33181190490722656,0.2022598832845688
1761470456769514800,2.1095146484375,0.0735185369849205,-0.3418550193309784,0.2289375215768814
1761470456779491000,2.119490966796875,0.019442252814769745,-0.32896319031715393,0.248449444770813
1761470456789468000,2.129468017578125,-0.012084566988050938,-0.30233967304229736,0.2703463137149811
1761470456799444000,2.13944384765625,-0.030703524127602577,-0.2583533227443695,0.29343804717063904
1761470456809419800,2.149419677734375,-0.046284306794404984,-0.20519687235355377,0.3110392093658447
1761470456819396000,2.15939599609375,-0.07705873250961304,-0.1546628624200821,0.3223131597042084
1761470456829373000,2.169373046875,-0.10986435413360596,-0.11506671458482742,0.33448752760887146
1761470456839349000,2.179348876953125,-0.1409439742565155,-0.08045361191034317,0.36353251338005066
1761470456849325000,2.189324951171875,-0.17453618347644806,-0.036107439547777176,0.41571059823036194
1761470456859302000,2.199302001953125,-0.20994530618190765,-0.0050350092351436615,0.47977614402770996
1761470456869278000,2.20927783203125,-0.24563118815422058,0.007646140642464161,0.5624227523803711
1761470456879253800,2.219253662109375,-0.25353145599365234,-0.0062917787581682205,0.6538722515106201
1761470456889230000,2.22922998046875,-0.2362058460712433,-0.05855453386902809,0.7378883957862854
1761470456899207000,2.23920703125,-0.2180204540491104,-0.12465259432792664,0.7886825799942017
1761470456909183000,2.249182861328125,-0.18679730594158173,-0.16892535984516144,0.8109334707260132
1761470456919159000,2.259158935546875,-0.16451169550418854,-0.23744742572307587,0.7854472994804382
1761470456929135900,2.269135986328125,-0.19533535838127136,-0.3683193624019623,0.6775930523872375
1761470456939112000,2.27911181640625,-0.3054269850254059,-0.5114378929138184,0.47600507736206055
1761470456949087700,2.289087646484375,-0.5010822415351868,-0.6439072489738464,0.1943768560886383
1761470456959065000,2.299065185546875,-0.7366737127304077,-0.7534521222114563,-0.14429014921188354
1761470456969041000,2.309041015625,-0.9207225441932678,-0.7943994998931885,-0.44308310747146606
1761470456979017000,2.319016845703125,-0.99878990650177,-0.6895285248756409,-0.6230382919311523
1761470456988993000,2.328992919921875,-0.9561049938201904,-0.4898160696029663,-0.663698136806488
1761470456998970000,2.33897021484375,-0.7800697684288025,-0.25023651123046875,-0.5404577255249023
1761470457008946000,2.34894580078125,-0.5230808258056641,0.007650486193597317,-0.31787964701652527
1761470457018921700,2.358921630859375,-0.27110666036605835,0.2367667704820633,-0.06472408771514893
1761470457028899000,2.368899169921875,-0.07226313650608063,0.3496360182762146,0.1483880579471588
1761470457038875000,2.378875,0.05566313490271568,0.42352062463760376,0.3030647039413452
1761470457048851000,2.388850830078125,0.1387808620929718,0.4843657314777374,0.39552709460258484
1761470457058827000,2.398826904296875,0.1827714890241623,0.5266119837760925,0.44303175806999207
1761470457068804000,2.40880419921875,0.1867225021123886,0.5318171381950378,0.42758509516716003
1761470457078780000,2.41877978515625,0.1383483111858368,0.47758162021636963,0.36412888765335083
1761470457088756000,2.428755859375,0.06660829484462738,0.4039349853992462,0.2728494107723236
1761470457098733000,2.438733154296875,-0.0014075107173994184,0.3311300277709961,0.1868268996477127
1761470457108708900,2.448708984375,-0.04031266272068024,0.2690644860267639,0.13075633347034454
1761470457118685000,2.458684814453125,-0.05650175362825394,0.2173493355512619,0.09221426397562027
1761470457128661800,2.468661865234375,-0.0764872282743454,0.14895950257778168,0.05041682347655296
1761470457138638000,2.47863818359375,-0.10136887431144714,0.09886623173952103,0.019420290365815163
1761470457148614000,2.48861376953125,-0.12372644245624542,0.10342291742563248,-0.00019899157632607967
1761470457158590000,2.49858984375,-0.1598876416683197,0.10634840279817581,-0.03617377206683159
1761470457168567000,2.508567138671875,-0.19292832911014557,0.09088097512722015,-0.09523681551218033
1761470457178542800,2.51854296875,-0.23155881464481354,0.06101841479539871,-0.19133485853672028
1761470457188519000,2.528518798828125,-0.2577455937862396,0.0328703336417675,-0.2997095286846161
1761470457198495700,2.538495849609375,-0.2687404453754425,0.020391561090946198,-0.40421807765960693
1761470457208472000,2.54847216796875,-0.2501625120639801,0.05471331626176834,-0.4653136730194092
1761470457218448000,2.55844775390625,-0.2006373256444931,0.1075000986456871,-0.48801231384277344
1761470457228424000,2.568423828125,-0.13787735998630524,0.1540343016386032,-0.48240190744400024
1761470457238401000,2.578401123046875,-0.06707003712654114,0.21307338774204254,-0.45468878746032715
1761470457248376800,2.588376953125,-0.017143240198493004,0.2765091359615326,-0.42874079942703247
1761470457258353000,2.598352783203125,0.020216647535562515,0.3033846914768219,-0.4184037446975708
1761470457268330000,2.608330078125,0.06370097398757935,0.3090197443962097,-0.39481955766677856
1761470457278306000,2.61830615234375,0.11955385655164719,0.3050444722175598,-0.33582812547683716
1761470457288281900,2.62828173828125,0.17657218873500824,0.2657087445259094,-0.2497565895318985
1761470457298259000,2.638259033203125,0.2082507610321045,0.18787920475006104,-0.16061951220035553
1761470457308235000,2.648235107421875,0.22021161019802094,0.10036759823560715,-0.0661546066403389
1761470457318210800,2.6582109375,0.23376816511154175,0.03370920568704605,0.030569005757570267
1761470457328187000,2.668186767578125,0.24016790091991425,-0.0488104447722435,0.10010988265275955
1761470457338164000,2.6781640625,0.23275232315063477,-0.12942354381084442,0.12921424210071564
1761470457348140000,2.68814013671875,0.20605508983135223,-0.19417043030261993,0.12604191899299622
1761470457358115800,2.69811572265625,0.1655675768852234,-0.2201213389635086,0.12038270384073257
1761470457368093000,2.708093017578125,0.12412756681442261,-0.21375317871570587,0.09993133693933487
1761470457378069000,2.718069091796875,0.09391213953495026,-0.19315895438194275,0.08504639565944672
1761470457388044800,2.728044921875,0.08932527154684067,-0.18359795212745667,0.06694131344556808
1761470457398020900,2.738020751953125,0.11255389451980591,-0.18945476412773132,0.042705487459897995
1761470457407998000,2.747998046875,0.1649376004934311,-0.21155676245689392,0.03961804881691933
1761470457417974000,2.75797412109375,0.23269186913967133,-0.19987373054027557,0.06395294517278671
1761470457427949800,2.76794970703125,0.3114798665046692,-0.1656699776649475,0.12670813500881195
1761470457437927000,2.777927001953125,0.40248993039131165,-0.10564099252223969,0.22177472710609436
1761470457447903000,2.787903076171875,0.4945485293865204,-0.02406606450676918,0.3356035053730011
1761470457457878800,2.797878662109375,0.5385194420814514,0.003305905032902956,0.41961798071861267
1761470457467856000,2.80785595703125,0.5211012363433838,-0.08111438155174255,0.42776113748550415
1761470457477832000,2.81783203125,0.4368760883808136,-0.2812613248825073,0.3506564795970917
1761470457487808000,2.82780810546875,0.3039156198501587,-0.5373735427856445,0.2276916652917862
1761470457497783800,2.83778369140625,0.1367652714252472,-0.7506580948829651,0.10005646198987961
1761470457507761000,2.847760986328125,-0.02405986189842224,-0.895169198513031,0.006175023969262838
1761470457517737000,2.857737060546875,-0.18674437701702118,-0.9289301037788391,-0.06377396732568741
1761470457527712800,2.867712646484375,-0.3268045485019684,-0.8263372182846069,-0.08514542132616043
1761470457537689900,2.87768994140625,-0.4127519726753235,-0.6151080131530762,-0.051715023815631866
1761470457547666000,2.887666015625,-0.4222090542316437,-0.35076776146888733,0.017515219748020172
1761470457557642000,2.89764208984375,-0.3589501976966858,-0.09556423872709274,0.1096736416220665
1761470457567617800,2.90761767578125,-0.2302628755569458,0.14655663073062897,0.22101028263568878
1761470457577595000,2.917594970703125,-0.07865550369024277,0.35633888840675354,0.32935595512390137
1761470457587571000,2.927571044921875,0.05030730366706848,0.529478907585144,0.40338483452796936
1761470457597546800,2.937546630859375,0.14769776165485382,0.654484212398529,0.4369180202484131
1761470457607523800,2.94752392578125,0.21294569969177246,0.7208263278007507,0.4319142997264862
1761470457617500000,2.9575,0.24700433015823364,0.7187379002571106,0.3909303843975067
1761470457627476000,2.96747607421875,0.23893485963344574,0.6535812616348267,0.32121163606643677
1761470457637452800,2.977452880859375,0.1766485720872879,0.5381318926811218,0.20139922201633453
1761470457647428900,2.987428955078125,0.07274633646011353,0.3832381069660187,0.048816192895174026
1761470457657405000,2.997405029296875,-0.02994782105088234,0.19089236855506897,-0.1069403737783432
1761470457667380700,3.007380615234375,-0.1048019528388977,-0.010311385616660118,-0.24347099661827087
1761470457677357800,3.01735791015625,-0.1412545144557953,-0.13711486756801605,-0.3389740586280823
1761470457687334000,3.027333984375,-0.1324884295463562,-0.23855392634868622,-0.40943923592567444
1761470457697310000,3.03731005859375,-0.10719186067581177,-0.2739846110343933,-0.4655776023864746
1761470457707286800,3.047286865234375,-0.05730230733752251,-0.2298349291086197,-0.4846254885196686
1761470457717263000,3.05726318359375,0.027179818600416183,-0.12122057378292084,-0.4660046696662903
1761470457727239000,3.067239013671875,0.12313571572303772,0.02463153935968876,-0.4158313572406769
1761470457737215700,3.0772158203125,0.19974499940872192,0.15117323398590088,-0.3503623306751251
1761470457747192600,3.087192626953125,0.25215664505958557,0.23759666085243225,-0.299816370010376
1761470457757169000,3.0971689453125,0.31041809916496277,0.288272887468338,-0.2643691599369049
1761470457767144700,3.107144775390625,0.3882036507129669,0.27338385581970215,-0.26002222299575806
1761470457777121800,3.117121826171875,0.45446494221687317,0.1981961727142334,-0.2967488169670105
1761470457787097600,3.12709765625,0.4904629588127136,0.10948823392391205,-0.36846813559532166
1761470457797073700,3.13707373046875,0.47611117362976074,0.05107391998171806,-0.4487419128417969
1761470457807050800,3.14705078125,0.4405297040939331,0.055517420172691345,-0.505048930644989
1761470457817026600,3.157026611328125,0.40168508887290955,0.09871868789196014,-0.5316709280014038
1761470457827003000,3.1670029296875,0.36661070585250854,0.154362753033638,-0.5331988334655762
1761470457836978700,3.176978759765625,0.3361334800720215,0.18802005052566528,-0.522519588470459
1761470457846955800,3.186955810546875,0.30278584361076355,0.17005303502082825,-0.5096443295478821
1761470457856931600,3.196931640625,0.274843692779541,0.12432470172643661,-0.47223249077796936
1761470457866907600,3.20690771484375,0.2537120282649994,0.07335770130157471,-0.41223517060279846
1761470457876884700,3.216884765625,0.23998716473579407,0.012658667750656605,-0.32768192887306213
1761470457886860500,3.226860595703125,0.22314386069774628,-0.05248057097196579,-0.21354557573795319
1761470457896836900,3.2368369140625,0.212668314576149,-0.11657220125198364,-0.09831565618515015
1761470457906813700,3.246813720703125,0.19789651036262512,-0.18014545738697052,0.010092384181916714
1761470457916789800,3.256789794921875,0.17724476754665375,-0.245357483625412,0.09110148251056671
1761470457926765600,3.266765625,0.14970944821834564,-0.3014330267906189,0.1409091353416443
1761470457936741600,3.27674169921875,0.10960942506790161,-0.3422102630138397,0.1729128658771515
1761470457946718700,3.28671875,0.04592263326048851,-0.35035207867622375,0.17483842372894287
1761470457956694500,3.296694580078125,-0.014508218504488468,-0.33142125606536865,0.16970011591911316
1761470457966670800,3.3066708984375,-0.06248175725340843,-0.27858269214630127,0.16492396593093872
1761470457976647700,3.316647705078125,-0.09135894477367401,-0.21291020512580872,0.173007994890213
1761470457986623700,3.326623779296875,-0.11937135457992554,-0.18528828024864197,0.166683167219162
1761470457996599600,3.336599609375,-0.1542089581489563,-0.1785568743944168,0.1406734138727188
1761470458006575600,3.34657568359375,-0.174100860953331,-0.1657663732767105,0.13635022938251495
1761470458016552700,3.356552734375,-0.18587283790111542,-0.15850020945072174,0.1613653004169464
1761470458026528500,3.366528564453125,-0.19657868146896362,-0.13927391171455383,0.20432201027870178
1761470458036504800,3.3765048828125,-0.1952524334192276,-0.11812335252761841,0.27614825963974
1761470458046481700,3.386481689453125,-0.18405933678150177,-0.08957159519195557,0.36403295397758484
1761470458056457700,3.396457763671875,-0.14418622851371765,-0.04416736215353012,0.4694291651248932
1761470458066433800,3.406433837890625,-0.0925399661064148,-0.010885296389460564,0.5639266967773438
1761470458076409600,3.41640966796875,-0.08490175008773804,-0.06020437553524971,0.5912941694259644
1761470458086386700,3.42638671875,-0.13835905492305756,-0.15634918212890625,0.5194646120071411
1761470458096362500,3.436362548828125,-0.23423045873641968,-0.27473947405815125,0.37546005845069885
1761470458106338800,3.4463388671875,-0.37063875794410706,-0.45426779985427856,0.14442476630210876
1761470458116315600,3.456315673828125,-0.5327871441841125,-0.656865119934082,-0.1499623954296112
1761470458126291700,3.466291748046875,-0.6755979657173157,-0.7800650000572205,-0.42733946442604065
1761470458136267800,3.476267822265625,-0.7559196949005127,-0.7412326335906982,-0.5850193500518799
1761470458146244900,3.486244873046875,-0.7697752714157104,-0.5515769124031067,-0.6216821074485779
1761470458156220700,3.496220703125,-0.7268080711364746,-0.32007336616516113,-0.5540343523025513
1761470458166196500,3.506196533203125,-0.6397419571876526,-0.06366505473852158,-0.42645263671875
1761470458176172800,3.5161728515625,-0.5379471778869629,0.16965554654598236,-0.28672030568122864
1761470458186149600,3.526149658203125,-0.4287640154361725,0.2965329885482788,-0.1795412003993988
1761470458196125700,3.536125732421875,-0.31003308296203613,0.3562389314174652,-0.09341724216938019
1761470458206101800,3.546101806640625,-0.18079081177711487,0.40294480323791504,-0.0022172543685883284
1761470458216078800,3.556078857421875,-0.07257937639951706,0.45471054315567017,0.09962042421102524
1761470458226054700,3.5660546875,-0.00801941566169262,0.4991926848888397,0.187446728348732
1761470458236030500,3.576030517578125,0.01761031337082386,0.5144339203834534,0.24679793417453766
1761470458246007800,3.5860078125,0.00987185351550579,0.5030238032341003,0.27921077609062195
1761470458255983600,3.595983642578125,-0.010312244296073914,0.4779900908470154,0.2804718017578125
1761470458265959700,3.605959716796875,-0.042313914746046066,0.4372538626194,0.24725013971328735
1761470458275935700,3.615935791015625,-0.08176837861537933,0.361193984746933,0.18997620046138763
1761470458285912800,3.625912841796875,-0.13047587871551514,0.27068427205085754,0.10934881865978241
1761470458295888600,3.635888671875,-0.17796935141086578,0.19329975545406342,0.03742669150233269
1761470458305864400,3.645864501953125,-0.21916590631008148,0.12469485402107239,-0.027133241295814514
1761470458315841800,3.655841796875,-0.2505512535572052,0.061362218111753464,-0.0693584606051445
1761470458325817600,3.665817626953125,-0.2757355868816376,0.040747977793216705,-0.09055126458406448
1761470458335793700,3.675793701171875,-0.3029261827468872,0.057124290615320206,-0.10257916897535324
1761470458345769700,3.685769775390625,-0.33708178997039795,0.0788741484284401,-0.1557922661304474
1761470458355746800,3.695746826171875,-0.36282098293304443,0.09786567836999893,-0.23359012603759766
1761470458365722600,3.70572265625,-0.3658660650253296,0.09659011662006378,-0.33307433128356934
1761470458375698700,3.71569873046875,-0.35156089067459106,0.06186383217573166,-0.4289393424987793
1761470458385675800,3.72567578125,-0.3309377133846283,0.028963422402739525,-0.5072328448295593
1761470458395651600,3.735651611328125,-0.3145906925201416,0.018790412694215775,-0.5427948832511902
1761470458405627600,3.745627685546875,-0.29361703991889954,0.030108101665973663,-0.5306439399719238
1761470458415603700,3.755603759765625,-0.2658080458641052,0.04159218817949295,-0.4866029620170593
1761470458425580800,3.765580810546875,-0.2237606942653656,0.03326493501663208,-0.42135903239250183
1761470458435556600,3.775556640625,-0.17348554730415344,0.025340965017676353,-0.3241134285926819
1761470458445532700,3.78553271484375,-0.11072177439928055,0.023614326491951942,-0.2075355499982834
1761470458455509800,3.795509765625,-0.0574156753718853,0.014862379059195518,-0.08180931210517883
1761470458465485600,3.805485595703125,-0.025105644017457962,0.003263956168666482,0.03173292055726051
1761470458475461600,3.815461669921875,-0.019273322075605392,-0.015017312951385975,0.13308538496494293
1761470458485438500,3.8254384765625,-0.02306128852069378,-0.05712256580591202,0.20670922100543976
1761470458495414800,3.835414794921875,-0.04665210470557213,-0.13681232929229736,0.25100427865982056
1761470458505390600,3.845390625,-0.09396838396787643,-0.22412221133708954,0.27883651852607727
1761470458515366700,3.85536669921875,-0.1637653112411499,-0.27362024784088135,0.2817036807537079
1761470458525343700,3.86534375,-0.24335774779319763,-0.3179909288883209,0.2659146785736084
1761470458535319600,3.875319580078125,-0.3031041920185089,-0.3627469539642334,0.22813774645328522
1761470458545295600,3.885295654296875,-0.34468987584114075,-0.4052698612213135,0.18210168182849884
1761470458555272700,3.895272705078125,-0.3693382441997528,-0.46036186814308167,0.13013994693756104
1761470458565248800,3.905248779296875,-0.3824259042739868,-0.5028209686279297,0.08134886622428894
1761470458575224600,3.915224609375,-0.36780327558517456,-0.5181074738502502,0.06790762394666672
1761470458585201700,3.92520166015625,-0.3161989748477936,-0.5335132479667664,0.10445662587881088
1761470458595177700,3.935177734375,-0.24423743784427643,-0.5058632493019104,0.19884037971496582
1761470458605153500,3.945153564453125,-0.14250756800174713,-0.4207061231136322,0.34473201632499695
1761470458615129600,3.955129638671875,-0.04403425380587578,-0.3435697853565216,0.47125425934791565
1761470458625106700,3.965106689453125,0.0312635712325573,-0.3173504173755646,0.5388417840003967
1761470458635082800,3.975082763671875,0.06772837042808533,-0.3843885660171509,0.5023593902587891
1761470458645058600,3.98505859375,0.04495527222752571,-0.5341863632202148,0.35028204321861267
1761470458655035000,3.995034912109375,-0.05098883435130119,-0.6965931057929993,0.10040881484746933
1761470458665011700,4.00501171875,-0.18018090724945068,-0.8187251091003418,-0.1628449261188507
1761470458674987500,4.014987548828125,-0.2558503746986389,-0.8312315940856934,-0.3546564280986786
1761470458684963600,4.024963623046875,-0.27643173933029175,-0.7467439770698547,-0.45236727595329285
1761470458694940700,4.034940673828125,-0.2426881343126297,-0.5781136751174927,-0.4617551863193512
1761470458704916700,4.044916748046875,-0.1317303478717804,-0.3071092367172241,-0.3772054612636566
1761470458714892500,4.054892578125,0.06958572566509247,0.004278468433767557,-0.1951933205127716
1761470458724869600,4.06486962890625,0.29386022686958313,0.3148256540298462,0.03381064906716347
1761470458734845700,4.074845703125,0.4547593891620636,0.5979452729225159,0.264100044965744
1761470458744821000,4.084821044921875,0.5190633535385132,0.7789497375488281,0.4322780966758728
1761470458754797300,4.09479736328125,0.5273154377937317,0.8966209888458252,0.5668643712997437
1761470458764774100,4.104774169921875,0.5171816945075989,0.9531654715538025,0.6668103337287903
1761470458774750200,4.114750244140625,0.48750320076942444,0.9294009804725647,0.735783040523529
1761470458784726000,4.12472607421875,0.4499603509902954,0.8319829702377319,0.7596290707588196
1761470458794703400,4.134703369140625,0.3984431028366089,0.6728082299232483,0.7559259533882141
1761470458804679200,4.14467919921875,0.35597285628318787,0.4915969967842102,0.7259438633918762
1761470458814655000,4.154655029296875,0.30813902616500854,0.2945883274078369,0.6630994081497192
1761470458824631300,4.16463134765625,0.24451221525669098,0.05356689542531967,0.5579224824905396
1761470458834608000,4.174608154296875,0.1673969328403473,-0.18769098818302155,0.3969775140285492
1761470458844584200,4.184584228515625,0.10400845110416412,-0.3578411340713501,0.20111733675003052
1761470458854560300,4.194560302734375,0.06233423948287964,-0.4586268663406372,0.011345013044774532
1761470458864537300,4.204537353515625,0.058707136660814285,-0.41810715198516846,-0.13060244917869568
1761470458874513200,4.21451318359375,0.08023320138454437,-0.24145860970020294,-0.19697055220603943
1761470458884489000,4.224489013671875,0.1389647126197815,-0.01040736585855484,-0.20070435106754303
1761470458894465300,4.23446533203125,0.22747381031513214,0.2128203958272934,-0.16055694222450256
1761470458904442000,4.244442138671875,0.3159077763557434,0.36522865295410156,-0.10760020464658737
1761470458914418200,4.254418212890625,0.39708465337753296,0.4716823995113373,-0.07899891585111618
1761470458924394200,4.264394287109375,0.4792341887950897,0.5222676396369934,-0.094760961830616
1761470458934371300,4.274371337890625,0.5463657975196838,0.5126421451568604,-0.15694096684455872
1761470458944347100,4.28434716796875,0.5855562090873718,0.49344387650489807,-0.24707086384296417
1761470458954323000,4.294322998046875,0.6110935211181641,0.5016269683837891,-0.3291958272457123
1761470458964300000,4.304300048828125,0.6215090155601501,0.5088722109794617,-0.41555657982826233
1761470458974276000,4.314276123046875,0.6232739090919495,0.4872329831123352,-0.4918079376220703
1761470458984252200,4.324252197265625,0.6051738858222961,0.45702582597732544,-0.5340880155563354
1761470458994229000,4.33422900390625,0.5739214420318604,0.443756103515625,-0.5373373627662659
1761470459004205300,4.344205322265625,0.5365177392959595,0.4232492446899414,-0.5025427937507629
1761470459014181000,4.35418115234375,0.4892772436141968,0.3565250635147095,-0.45759743452072144
1761470459024157000,4.364156982421875,0.4493587613105774,0.26617494225502014,-0.3954017460346222
1761470459034134300,4.37413427734375,0.41685566306114197,0.19570690393447876,-0.298850953578949
1761470459044110000,4.384110107421875,0.3729279637336731,0.11536186188459396,-0.17419299483299255
1761470459054086100,4.394086181640625,0.3203078806400299,0.022515544667840004,-0.039494842290878296
1761470459064063000,4.40406298828125,0.25666165351867676,-0.07250846922397614,0.08940543234348297
1761470459074039300,4.414039306640625,0.1741151213645935,-0.19247907400131226,0.1778961420059204
1761470459084015000,4.42401513671875,0.08570871502161026,-0.3354904055595398,0.2298123687505722
1761470459093992200,4.4339921875,0.012400144711136818,-0.4418879747390747,0.2676239311695099
1761470459103968300,4.44396826171875,-0.052979495376348495,-0.5344983339309692,0.28988251090049744
1761470459113944000,4.453944091796875,-0.1163259819149971,-0.6059650778770447,0.29487672448158264
1761470459123920100,4.463920166015625,-0.17861567437648773,-0.598639190196991,0.31295305490493774
1761470459133897000,4.47389697265625,-0.2241557389497757,-0.5279775261878967,0.3495621979236603
1761470459143873300,4.483873291015625,-0.23864813148975372,-0.41220447421073914,0.3957820236682892
1761470459153849000,4.49384912109375,-0.2410348504781723,-0.29716628789901733,0.4257124662399292
1761470459163826200,4.503826171875,-0.24368801712989807,-0.2253739833831787,0.42037659883499146
1761470459173802200,4.51380224609375,-0.25381946563720703,-0.1875123530626297,0.3879435658454895
1761470459183778000,4.523778076171875,-0.2600116729736328,-0.15757852792739868,0.36070457100868225
1761470459193754000,4.533754150390625,-0.24396610260009766,-0.10353605449199677,0.3626369833946228
1761470459203731000,4.54373095703125,-0.21740993857383728,-0.07573659718036652,0.3820713758468628
1761470459213707300,4.553707275390625,-0.215972900390625,-0.09006866067647934,0.38468074798583984
1761470459223683000,4.56368310546875,-0.25019270181655884,-0.14837896823883057,0.3398585021495819
1761470459233660200,4.57366015625,-0.3025054335594177,-0.2256157100200653,0.24640204012393951
1761470459243636200,4.58363623046875,-0.3969227373600006,-0.3783072829246521,0.0665840432047844
1761470459253612300,4.5936123046875,-0.5344222784042358,-0.568688154220581,-0.19445261359214783
1761470459263589000,4.603589111328125,-0.6808009743690491,-0.6837131977081299,-0.4839039742946625
1761470459273565000,4.61356494140625,-0.7900819182395935,-0.7288635969161987,-0.7333129644393921
1761470459283541200,4.623541259765625,-0.8548632860183716,-0.6278434991836548,-0.892488420009613
1761470459293517000,4.63351708984375,-0.8524326086044312,-0.40427613258361816,-0.9259396195411682
1761470459303494100,4.643494140625,-0.7539180517196655,-0.0823967307806015,-0.8096407651901245
1761470459313470200,4.65347021484375,-0.5787062644958496,0.2654208838939667,-0.5850251913070679
1761470459323446300,4.6634462890625,-0.38120144605636597,0.5279808044433594,-0.3349986970424652
1761470459333423000,4.673423095703125,-0.221618190407753,0.6557602882385254,-0.12239164859056473
1761470459343399200,4.683399169921875,-0.1134985089302063,0.7257551550865173,0.022506628185510635
1761470459353375200,4.693375244140625,-0.03312297910451889,0.7079719305038452,0.11117418110370636
1761470459363352000,4.70335205078125,0.053030721843242645,0.6626908183097839,0.15572912991046906
1761470459373328100,4.713328125,0.14009371399879456,0.6300103664398193,0.1918754130601883
1761470459383304200,4.72330419921875,0.20314989984035492,0.5848719477653503,0.19404779374599457
1761470459393280300,4.7332802734375,0.216033473610878,0.5017344355583191,0.17659664154052734
1761470459403257000,4.743257080078125,0.18186917901039124,0.41964277625083923,0.1376524716615677
1761470459413233400,4.7532333984375,0.13336129486560822,0.36259546875953674,0.07797528803348541
1761470459423209200,4.763209228515625,0.09711381793022156,0.299818217754364,-0.0009974378626793623
1761470459433186000,4.77318603515625,0.06767043471336365,0.2429829090833664,-0.08970280736684799
1761470459443162000,4.783162109375,0.03454550728201866,0.2047838568687439,-0.17885984480381012
1761470459453138200,4.79313818359375,-0.013998592272400856,0.21201008558273315,-0.2617158591747284
1761470459463114200,4.8031142578125,-0.05920710414648056,0.25073593854904175,-0.32066887617111206
1761470459473091000,4.813091064453125,-0.09706367552280426,0.2743712067604065,-0.36749231815338135
1761470459483067400,4.8230673828125,-0.10686095058917999,0.2697242796421051,-0.41803625226020813
1761470459493043200,4.833043212890625,-0.08444592356681824,0.28128692507743835,-0.46426311135292053
1761470459503020000,4.84302001953125,-0.04172198474407196,0.31541329622268677,-0.5099259614944458
1761470459512996000,4.85299609375,0.008446376770734787,0.3395545780658722,-0.5470791459083557
1761470459522972200,4.86297216796875,0.056090254336595535,0.3327575623989105,-0.573903501033783
1761470459532949200,4.87294921875,0.10564848780632019,0.32559525966644287,-0.5676631927490234
1761470459542925000,4.882925048828125,0.14710670709609985,0.30225956439971924,-0.5048503875732422
1761470459552901400,4.8929013671875,0.1731521636247635,0.2663319408893585,-0.4141164720058441
1761470459562877200,4.902877197265625,0.1925330013036728,0.21122485399246216,-0.2956579625606537
1761470459572854300,4.912854248046875,0.20925764739513397,0.18950651586055756,-0.14644956588745117
1761470459582830000,4.922830078125,0.2263321876525879,0.18733084201812744,0.00582660548388958
1761470459592806100,4.93280615234375,0.25170838832855225,0.1820431351661682,0.15021440386772156
1761470459602783200,4.942783203125,0.2881079614162445,0.16443096101284027,0.26847007870674133
1761470459612759000,4.952759033203125,0.3263416290283203,0.09925782680511475,0.34348252415657043
1761470459622735400,4.9627353515625,0.3766878843307495,0.01717052422463894,0.3857102394104004
1761470459632712200,4.972712158203125,0.4202593266963959,-0.04756905511021614,0.41101905703544617
1761470459642688300,4.982688232421875,0.43561792373657227,-0.07774233818054199,0.4100339114665985
1761470459652664000,4.9926640625,0.4170708656311035,-0.08461994677782059,0.3746730089187622
1761470459662640000,5.00264013671875,0.3651948571205139,-0.11705274879932404,0.2837318480014801
1761470459672617200,5.0126171875,0.29045775532722473,-0.1411178708076477,0.16091030836105347
1761470459682593000,5.022593017578125,0.21389715373516083,-0.15527045726776123,0.01723109930753708
1761470459692569300,5.0325693359375,0.16253437101840973,-0.1691146343946457,-0.1122877448797226
1761470459702546200,5.042546142578125,0.1326257735490799,-0.14907778799533844,-0.2057419866323471
1761470459712522200,5.052522216796875,0.1195797547698021,-0.09336046874523163,-0.24207310378551483
1761470459722498300,5.062498291015625,0.12008790671825409,-0.03279894217848778,-0.2367180585861206
1761470459732474000,5.07247412109375,0.15426957607269287,0.02820529043674469,-0.18762828409671783
1761470459742451200,5.082451171875,0.23091627657413483,0.07074883580207825,-0.10211024433374405
1761470459752427000,5.092427001953125,0.32987695932388306,0.1161235123872757,-0.0060979644767940044
1761470459762403300,5.1024033203125,0.41640177369117737,0.1728772073984146,0.0950232446193695
1761470459772380200,5.112380126953125,0.47098246216773987,0.22320161759853363,0.19244913756847382
1761470459782356200,5.122356201171875,0.4685315787792206,0.22102944552898407,0.24228128790855408
1761470459792332300,5.132332275390625,0.4127527177333832,0.17780819535255432,0.2401997596025467
1761470459802309400,5.142309326171875,0.3162229359149933,0.03610990196466446,0.16189636290073395
1761470459812285200,5.15228515625,0.18251679837703705,-0.18589679896831512,0.011478365398943424
1761470459822261000,5.162260986328125,0.04452985152602196,-0.4297870993614197,-0.1570242941379547
1761470459832237300,5.1722373046875,-0.09197179973125458,-0.6087720394134521,-0.3071589469909668
1761470459842214100,5.182214111328125,-0.2202998846769333,-0.7262187600135803,-0.38252073526382446
1761470459852190200,5.192190185546875,-0.3286617696285248,-0.7362618446350098,-0.36992186307907104
1761470459862166300,5.202166259765625,-0.3975965082645416,-0.6456713080406189,-0.2664151191711426
1761470459872143400,5.212143310546875,-0.3849744498729706,-0.44758695363998413,-0.06165531650185585
1761470459882119200,5.222119140625,-0.29125112295150757,-0.1926010549068451,0.20482134819030762
1761470459892095000,5.232094970703125,-0.14849211275577545,0.052974894642829895,0.47477293014526367
1761470459902071300,5.2420712890625,-0.04246947169303894,0.21142613887786865,0.6559529900550842
1761470459912048000,5.252048095703125,0.02408159151673317,0.3446212112903595,0.7476562857627869
1761470459922024200,5.262024169921875,0.07325145602226257,0.4087974429130554,0.7584866285324097
1761470459932000300,5.272000244140625,0.11064357310533524,0.37692660093307495,0.6909576654434204
1761470459941977300,5.281977294921875,0.11273223161697388,0.24717767536640167,0.5552048683166504
1761470459951953200,5.291953125,0.07595664262771606,0.07886721938848495,0.3822712004184723
1761470459961929000,5.301928955078125,0.013599407859146595,-0.0707029476761818,0.197152778506279
1761470459971906300,5.31190625,-0.04116130620241165,-0.15884985029697418,0.03026764839887619
1761470459981882000,5.321882080078125,-0.06710265576839447,-0.17075781524181366,-0.10654395073652267
1761470459991858200,5.331858154296875,-0.058112625032663345,-0.20562206208705902,-0.21863161027431488
1761470460001834200,5.341834228515625,-0.01526995562016964,-0.20611323416233063,-0.27624794840812683
1761470460011811300,5.351811279296875,0.053169555962085724,-0.15595632791519165,-0.2618604898452759
1761470460021787100,5.361787109375,0.11739853024482727,-0.05229228362441063,-0.18783515691757202
1761470460031763200,5.37176318359375,0.17789888381958008,0.08958575874567032,-0.05572239309549332
1761470460041740300,5.381740234375,0.22768472135066986,0.24090880155563354,0.08616257458925247
1761470460051716000,5.391716064453125,0.2607273757457733,0.34665629267692566,0.19818231463432312
1761470460061692200,5.401692138671875,0.296342134475708,0.40406808257102966,0.26289549469947815
1761470460071669000,5.4116689453125,0.3514980673789978,0.4379653334617615,0.27380406856536865
1761470460081645300,5.421645263671875,0.4182403087615967,0.4364750385284424,0.24662068486213684
1761470460091621000,5.43162109375,0.4784085750579834,0.39591482281684875,0.17851033806800842
1761470460101597200,5.44159716796875,0.5232993364334106,0.30174529552459717,0.053293079137802124
1761470460111574300,5.45157421875,0.5291231274604797,0.16280019283294678,-0.10918744653463364
1761470460121550000,5.461550048828125,0.5083668828010559,0.05237806960940361,-0.26993516087532043
1761470460131526100,5.471526123046875,0.45751646161079407,0.021980484947562218,-0.3961375653743744
1761470460141503000,5.4815029296875,0.3963598906993866,0.03313486650586128,-0.4827696681022644
1761470460151479300,5.491479248046875,0.33800336718559265,0.0502089262008667,-0.5138838887214661
1761470460161455000,5.501455078125,0.3073529601097107,0.07910037040710449,-0.470366507768631
1761470460171431200,5.51143115234375,0.2838148772716522,0.09339435398578644,-0.38592565059661865
1761470460181408300,5.521408203125,0.2649851143360138,0.07651647180318832,-0.2837902307510376
1761470460191384000,5.531384033203125,0.25120431184768677,0.018706433475017548,-0.19545771181583405
1761470460201360100,5.541360107421875,0.24239538609981537,-0.07733145356178284,-0.1452518105506897
1761470460211337200,5.551337158203125,0.22316789627075195,-0.17420527338981628,-0.13640134036540985
1761470460221313300,5.561313232421875,0.21542532742023468,-0.23088198900222778,-0.13230253756046295
1761470460231289000,5.5712890625,0.2087426483631134,-0.26088860630989075,-0.11694888025522232
1761470460241266200,5.58126611328125,0.17263583838939667,-0.31435731053352356,-0.11733724921941757
1761470460251242200,5.5912421875,0.1093684509396553,-0.4048275649547577,-0.12682928144931793
1761470460261218000,5.601218017578125,0.03615754097700119,-0.44676244258880615,-0.13138490915298462
1761470460271194000,5.611194091796875,-0.036023180931806564,-0.44373229146003723,-0.13381770253181458
1761470460281171200,5.621171142578125,-0.11098264157772064,-0.43842968344688416,-0.14828799664974213
1761470460291147300,5.631147216796875,-0.18152977526187897,-0.4153435528278351,-0.17129477858543396
1761470460301123000,5.641123046875,-0.24441362917423248,-0.37666067481040955,-0.18281380832195282
1761470460311100200,5.65110009765625,-0.2938714325428009,-0.3497147858142853,-0.1592397689819336
1761470460321076200,5.661076171875,-0.32916074991226196,-0.3327351212501526,-0.09978427737951279
1761470460331052000,5.671052001953125,-0.34731072187423706,-0.3173428475856781,-0.0006238730275072157
1761470460341029000,5.681029052734375,-0.3453032076358795,-0.2834359109401703,0.13390794396400452
1761470460351005200,5.691005126953125,-0.294460266828537,-0.21360409259796143,0.31153973937034607
1761470460360981200,5.700981201171875,-0.21280425786972046,-0.141612708568573,0.494960755109787
1761470460370957000,5.71095703125,-0.1542155146598816,-0.13349032402038574,0.6239395141601562
1761470460380934100,5.72093408203125,-0.12768249213695526,-0.1512947529554367,0.6869997978210449
1761470460390910200,5.73091015625,-0.14140576124191284,-0.16690488159656525,0.7001190781593323
1761470460400886000,5.740885986328125,-0.19116121530532837,-0.22454461455345154,0.6511238217353821
1761470460410863000,5.750863037109375,-0.2897900640964508,-0.2726335823535919,0.5388420224189758
1761470460420839200,5.760839111328125,-0.4310355484485626,-0.31446531414985657,0.3705921769142151
1761470460430815200,5.770815185546875,-0.573756754398346,-0.3124256134033203,0.2137756645679474
1761470460440791000,5.780791015625,-0.6523695588111877,-0.23864860832691193,0.11230036616325378
1761470460450768100,5.79076806640625,-0.657567024230957,-0.13830868899822235,0.11813908070325851
1761470460460744200,5.800744140625,-0.606426477432251,0.0365985743701458,0.21806806325912476
1761470460470720000,5.810719970703125,-0.4957553744316101,0.25632160902023315,0.4321609139442444
1761470460480697000,5.820697021484375,-0.341416597366333,0.46129897236824036,0.7107440829277039
1761470460490673200,5.830673095703125,-0.16978013515472412,0.5937255024909973,1.0138517618179321
1761470460500649200,5.840649169921875,-0.02316424995660782,0.6403138041496277,1.276619553565979
1761470460510626000,5.8506259765625,0.09175993502140045,0.6363829970359802,1.474982738494873
1761470460520602000,5.86060205078125,0.17451825737953186,0.5548657178878784,1.604805827140808
1761470460530578200,5.870578125,0.15998032689094543,0.38553714752197266,1.5866724252700806
1761470460540554000,5.880553955078125,0.10758768767118454,0.0842733159661293,1.427399754524231
1761470460550531000,5.890531005859375,0.0025305114686489105,-0.3073005676269531,1.161981225013733
1761470460560507100,5.900507080078125,-0.12826007604599,-0.6099313497543335,0.8617724180221558
1761470460570483200,5.910483154296875,-0.2356366068124771,-0.7531068921089172,0.5890234708786011
1761470460580460000,5.9204599609375,-0.30131906270980835,-0.8120011687278748,0.33104604482650757
1761470460590436000,5.93043603515625,-0.3562329113483429,-0.8596799969673157,0.04624014347791672
1761470460600412200,5.940412109375,-0.3778880536556244,-0.8603783845901489,-0.2460242360830307
1761470460610389200,5.95038916015625,-0.3429923951625824,-0.7882586717605591,-0.5029630661010742
1761470460620365000,5.960364990234375,-0.26120465993881226,-0.6617860794067383,-0.7176772356033325
1761470460630341000,5.970341064453125,-0.16155079007148743,-0.5235999822616577,-0.8816850781440735
1761470460640317200,5.980317138671875,-0.11352769285440445,-0.42096057534217834,-1.0478729009628296
1761470460650294000,5.9902939453125,-0.09228099137544632,-0.3499748110771179,-1.2035969495773315
1761470460660270300,6.000270263671875,-0.04922979325056076,-0.24099873006343842,-1.2968764305114746
1761470460670246100,6.01024609375,0.02461167424917221,-0.13157956302165985,-1.317762851715088
1761470460680223200,6.02022314453125,0.09069428592920303,-0.017790036275982857,-1.2841352224349976
1761470460690199000,6.030198974609375,0.13903838396072388,0.11546123027801514,-1.1753650903701782
1761470460700175000,6.040175048828125,0.17775683104991913,0.21455910801887512,-1.0104883909225464
1761470460710151200,6.050151123046875,0.1928521692752838,0.2739209830760956,-0.8040528893470764
1761470460720128000,6.0601279296875,0.20870259404182434,0.3308008015155792,-0.5801786780357361
1761470460730104300,6.070104248046875,0.23382259905338287,0.36507517099380493,-0.3494628965854645
1761470460740080600,6.08008056640625,0.2718406021595001,0.34957635402679443,-0.14045798778533936
1761470460750057700,6.0900576171875,0.2679920792579651,0.2169639617204666,-0.027570044621825218
1761470460760033500,6.100033447265625,0.23282313346862793,0.021529586985707283,0.0003186225367244333
1761470460770009900,6.110009765625,0.1894783228635788,-0.20587827265262604,-0.0025266988668590784
1761470460779986700,6.119986572265625,0.13913623988628387,-0.45581695437431335,-0.04865851625800133
1761470460789962800,6.129962646484375,0.08178826421499252,-0.6661691069602966,-0.1214059591293335
1761470460799938600,6.1399384765625,0.04844997450709343,-0.7595797777175903,-0.16908405721187592
1761470460809914600,6.14991455078125,0.03316982090473175,-0.7148681879043579,-0.19816018640995026
1761470460819891700,6.1598916015625,0.02592725306749344,-0.5854841470718384,-0.21427004039287567
1761470460829867500,6.169867431640625,0.015063686296343803,-0.4989314079284668,-0.25845322012901306
1761470460839843800,6.17984375,-0.0010785942431539297,-0.44823944568634033,-0.31197264790534973
1761470460849820700,6.189820556640625,-0.013980012387037277,-0.41376322507858276,-0.36408060789108276
1761470460859796700,6.199796630859375,-0.04425738751888275,-0.4376720190048218,-0.4170459508895874
1761470460869772800,6.209772705078125,-0.10295585542917252,-0.37316522002220154,-0.4615529775619507
1761470460879750000,6.21975,-0.15195675194263458,-0.2727022171020508,-0.49795204401016235
1761470460889725700,6.2297255859375,-0.1595531553030014,-0.1974751353263855,-0.524416983127594
1761470460899701500,6.239701416015625,-0.09100937098264694,-0.08063657581806183,-0.49197545647621155
1761470460909677800,6.249677734375,0.046350348740816116,0.0624992661178112,-0.3916427195072174
1761470460919654700,6.259654541015625,0.17967106401920319,0.11265817284584045,-0.29489800333976746
1761470460929630700,6.269630615234375,0.25577038526535034,0.10326360911130905,-0.22707608342170715
1761470460939606800,6.279606689453125,0.30629080533981323,0.07620242983102798,-0.1670074164867401
1761470460949584000,6.289583984375,0.3264850378036499,0.003706922521814704,-0.12431906908750534
1761470460959559700,6.2995595703125,0.3131689727306366,-0.09361975640058517,-0.10987734794616699
1761470460969535500,6.309535400390625,0.26700708270072937,-0.13721810281276703,-0.09022268652915955
1761470460979512600,6.3195126953125,0.20444224774837494,-0.16387939453125,-0.0656125396490097
1761470460989488600,6.329488525390625,0.14893850684165955,-0.16497235000133514,-0.046758152544498444
1761470460999464700,6.339464599609375,0.12769261002540588,-0.1306820660829544,-0.005679728928953409
1761470461009440800,6.349440673828125,0.1514272391796112,-0.022163039073348045,0.06203673407435417
1761470461019417900,6.35941796875,0.21240553259849548,0.16361495852470398,0.1627119928598404
1761470461029393700,6.3693935546875,0.27911850810050964,0.3687121868133545,0.2505829930305481
1761470461039369700,6.37936962890625,0.3156448304653168,0.5064833760261536,0.2911445200443268
1761470461049346600,6.3893466796875,0.317152202129364,0.565186619758606,0.261540025472641
1761470461059322600,6.399322509765625,0.2998850345611572,0.5281599164009094,0.18177944421768188
1761470461069298700,6.409298583984375,0.2742806077003479,0.45428305864334106,0.07865945249795914
1761470461079274800,6.419274658203125,0.25629159808158875,0.36339518427848816,-0.031021952629089355
1761470461089251800,6.429251953125,0.23825213313102722,0.2242295891046524,-0.1583423614501953
1761470461099227600,6.4392275390625,0.21539047360420227,0.06267086416482925,-0.2836911678314209
1761470461109203700,6.44920361328125,0.18775592744350433,-0.11100452393293381,-0.4092938303947449
1761470461119180800,6.459180908203125,0.17019329965114594,-0.26325884461402893,-0.5153096914291382
1761470461129156600,6.469156494140625,0.180894136428833,-0.35511448979377747,-0.5802974700927734
1761470461139132700,6.479132568359375,0.20190297067165375,-0.40549665689468384,-0.5929033160209656
1761470461149109500,6.489109619140625,0.21717911958694458,-0.40680748224258423,-0.5732606649398804
1761470461159085800,6.4990859375,0.2425040751695633,-0.3479735851287842,-0.5119078159332275
1761470461169061600,6.5090615234375,0.27662476897239685,-0.23320597410202026,-0.4150398075580597
1761470461179037700,6.51903759765625,0.3028625547885895,-0.060355547815561295,-0.29963794350624084
1761470461189014800,6.529014892578125,0.3221198618412018,0.12352055311203003,-0.18885207176208496
1761470461198990800,6.538990966796875,0.35033315420150757,0.2770646810531616,-0.10599381476640701
1761470461208966700,6.548966552734375,0.39990949630737305,0.36678391695022583,-0.05440545454621315
1761470461218943500,6.558943603515625,0.45286035537719727,0.37531179189682007,-0.04033602029085159
1761470461228919800,6.568919921875,0.5067076086997986,0.3104289472103119,-0.052751943469047546
1761470461238895600,6.5788955078125,0.5362865924835205,0.19932006299495697,-0.09005875140428543
1761470461248872700,6.588872802734375,0.523548424243927,0.057043083012104034,-0.15233172476291656
1761470461258848800,6.598848876953125,0.48054230213165283,-0.05158111825585365,-0.22716817259788513
1761470461268824800,6.608824951171875,0.42002010345458984,-0.10599082708358765,-0.2959720194339752
1761470461278800600,6.618800537109375,0.3393234312534332,-0.12555290758609772,-0.3567371368408203
1761470461288777500,6.628777587890625,0.24813596904277802,-0.12190330773591995,-0.4009363055229187
1761470461298753800,6.63875390625,0.16183240711688995,-0.09638064354658127,-0.41972100734710693
1761470461308729600,6.6487294921875,0.10401996970176697,-0.031307898461818695,-0.39488571882247925
1761470461318706700,6.658706787109375,0.1250297725200653,0.06216129660606384,-0.32315656542778015
1761470461328682800,6.668682861328125,0.04273543506860733,0.1549396961927414,-0.2403074949979782
1761470461338658800,6.678658935546875,0.14904853701591492,0.18690194189548492,-0.1721118986606598
1761470461348635600,6.6886357421875,0.061424944549798965,0.18222330510616302,-0.11914428323507309
1761470461358611700,6.69861181640625,0.16192305088043213,0.1508384793996811,-0.06747149676084518
1761470461368587800,6.708587890625,0.08508500456809998,0.11375661939382553,-0.015335860662162304
1761470461378563600,6.7185634765625,0.15794509649276733,0.03745226189494133,0.04090743884444237
1761470461388540700,6.728540771484375,0.055465057492256165,-0.03305918723344803,0.09173866361379623
1761470461398516700,6.738516845703125,0.09462469816207886,-0.09201475977897644,0.14379268884658813
1761470461408492800,6.748492919921875,-0.023320045322179794,-0.12343340367078781,0.18896842002868652
1761470461418469600,6.7584697265625,0.0080086849629879,-0.10973915457725525,0.23085233569145203
1761470461428445700,6.76844580078125,-0.10093990713357925,-0.09336044639348984,0.24820895493030548
1761470461438421800,6.778421875,-0.0898367166519165,-0.08246086537837982,0.25473979115486145
1761470461448397600,6.7883974609375,-0.19022990763187408,-0.0471675880253315,0.2520262897014618
1761470461458374700,6.798374755859375,-0.1653340458869934,-0.006756887771189213,0.2482006698846817
1761470461468350700,6.808350830078125,-0.23566226661205292,-0.0017424218822270632,0.22092697024345398
1761470461478326800,6.818326904296875,-0.18833182752132416,-0.027523556724190712,0.19498226046562195
1761470461488303600,6.8283037109375,-0.21125686168670654,-0.04521333426237106,0.18756349384784698
1761470461498280000,6.838280029296875,-0.14985144138336182,-0.033983998000621796,0.2211163491010666
1761470461508255700,6.848255859375,-0.17310722172260284,0.01869785599410534,0.2917311489582062
1761470461518232800,6.85823291015625,-0.1395607590675354,0.02870561182498932,0.36720412969589233
1761470461528208600,6.868208740234375,-0.20678479969501495,-0.015310315415263176,0.3948456346988678
1761470461538184700,6.878184814453125,-0.23034580051898956,-0.0695105493068695,0.3745189309120178
1761470461548160800,6.888160888671875,-0.31686392426490784,-0.15007516741752625,0.302105188369751
1761470461558137600,6.8981376953125,-0.36948755383491516,-0.27554160356521606,0.18662895262241364
1761470461568114000,6.908114013671875,-0.4666527211666107,-0.383439838886261,0.036611493676900864
1761470461578089700,6.91808984375,-0.5132870078086853,-0.4514365792274475,-0.11809986084699631
1761470461588066800,6.92806689453125,-0.5577266216278076,-0.47071146965026855,-0.25394636392593384
1761470461598042600,6.938042724609375,-0.5194202661514282,-0.3692547380924225,-0.3095000386238098
1761470461608018700,6.948018798828125,-0.46872755885124207,-0.17460909485816956,-0.29374903440475464
1761470461617995800,6.957995849609375,-0.38675856590270996,0.05320535972714424,-0.23880401253700256
1761470461627971600,6.9679716796875,-0.29350876808166504,0.26472002267837524,-0.16699454188346863
1761470461637948000,6.977947998046875,-0.23245678842067719,0.4014054238796234,-0.09102163463830948
1761470461647923700,6.987923828125,-0.17138251662254333,0.4678741991519928,-0.021988242864608765
1761470461657900800,6.99790087890625,-0.15373893082141876,0.47938400506973267,0.06282258778810501
1761470461667876600,7.007876708984375,-0.11589568108320236,0.46518003940582275,0.15929026901721954
1761470461677852700,7.017852783203125,-0.13058945536613464,0.4431258738040924,0.2752106785774231
1761470461687829800,7.027829833984375,-0.11303228884935379,0.3832990229129791,0.3803618848323822
1761470461697805600,7.0378056640625,-0.1576000601053238,0.2787765860557556,0.4436994791030884
1761470461707782000,7.047781982421875,-0.1955125629901886,0.1211712434887886,0.4589575231075287
1761470461717758700,7.0577587890625,-0.2582750916481018,-0.039208363741636276,0.4166988730430603
1761470461727734800,7.06773486328125,-0.3195682764053345,-0.13193802535533905,0.3487195670604706
1761470461737710600,7.077710693359375,-0.368802011013031,-0.14782801270484924,0.2724926173686981
1761470461747686700,7.087686767578125,-0.3936205208301544,-0.11924456804990768,0.19923758506774902
1761470461757663500,7.09766357421875,-0.4066983759403229,-0.03984212875366211,0.14256224036216736
1761470461767639600,7.1076396484375,-0.4018189311027527,0.08893262594938278,0.0965619832277298
1761470461777615600,7.11761572265625,-0.3827771544456482,0.22192250192165375,0.05638584494590759
1761470461787592700,7.1275927734375,-0.3580571711063385,0.338588148355484,0.010728609748184681
1761470461797568500,7.137568603515625,-0.3288848102092743,0.4244793653488159,-0.04216405376791954
1761470461807544600,7.147544677734375,-0.2917209267616272,0.4559701979160309,-0.10052456706762314
1761470461817520600,7.157520751953125,-0.25198864936828613,0.42204105854034424,-0.1472376585006714
1761470461827497500,7.16749755859375,-0.21905867755413055,0.38204649090766907,-0.1710985153913498
1761470461837473500,7.1774736328125,-0.19261442124843597,0.344866544008255,-0.16075153648853302
1761470461847449600,7.18744970703125,-0.1846180111169815,0.31582796573638916,-0.13294760882854462
1761470461857426700,7.1974267578125,-0.1745263785123825,0.3032662272453308,-0.09228702634572983
1761470461867402500,7.207402587890625,-0.1588912308216095,0.26211291551589966,-0.05029003694653511
1761470461877378600,7.217378662109375,-0.13620871305465698,0.2184116393327713,-0.00030840159161016345
1761470461887355600,7.227355712890625,-0.12312352657318115,0.19278644025325775,0.045928068459033966
1761470461897331500,7.23733154296875,-0.10557326674461365,0.16594983637332916,0.07251714915037155
1761470461907307500,7.2473076171875,-0.07400734722614288,0.17071956396102905,0.08738904446363449
1761470461917284600,7.25728466796875,-0.02526523545384407,0.20408926904201508,0.09099142253398895
1761470461927260700,7.2672607421875,0.024827491492033005,0.22523902356624603,0.06640751659870148
1761470461937236500,7.277236572265625,0.05225849896669388,0.21641550958156586,0.021829918026924133
1761470461947212500,7.287212646484375,0.05629851296544075,0.21407698094844818,-0.0138670913875103
1761470461957189600,7.297189697265625,0.047630950808525085,0.20968593657016754,-0.023393025621771812
1761470461967165400,7.30716552734375,0.023298179730772972,0.17599056661128998,-0.02228834666311741
1761470461977141500,7.3171416015625,-0.0027928599156439304,0.11210118979215622,-0.0023563725408166647
1761470461987118600,7.32711865234375,-0.021931666880846024,0.06429851055145264,0.037921007722616196
1761470461997094700,7.3370947265625,-0.04463725537061691,0.008798651397228241,0.08615020662546158
1761470462007070500,7.347070556640625,-0.0699564591050148,-0.04692479968070984,0.15010148286819458
1761470462017047600,7.357047607421875,-0.07928038388490677,-0.07597925513982773,0.22034785151481628
1761470462027023600,7.367023681640625,-0.0745500773191452,-0.13053278625011444,0.27450641989707947
1761470462036999400,7.37699951171875,-0.051455993205308914,-0.20452670753002167,0.31024399399757385
1761470462046975500,7.3869755859375,-0.021896235644817352,-0.25072136521339417,0.33585798740386963
1761470462056952600,7.39695263671875,0.015131954103708267,-0.2530711591243744,0.3832940459251404
1761470462066928600,7.4069287109375,0.061465099453926086,-0.13413278758525848,0.4751584529876709
1761470462076904400,7.416904541015625,0.10628513246774673,0.014340626075863838,0.5919455885887146
1761470462086881500,7.426881591796875,0.1276540756225586,0.0677359327673912,0.6663106679916382
1761470462096857600,7.436857666015625,0.13423900306224823,0.09288662672042847,0.6964926719665527
1761470462106833400,7.44683349609375,0.14088653028011322,0.03983459621667862,0.6699159145355225
1761470462116809700,7.456809814453125,0.11517002433538437,-0.15381287038326263,0.5638651847839355
1761470462126786600,7.46678662109375,0.054439567029476166,-0.4173193573951721,0.3759187161922455
1761470462136762600,7.4767626953125,0.01342759095132351,-0.5584273338317871,0.20743490755558014
1761470462146738400,7.486738525390625,0.027557790279388428,-0.5709894299507141,0.09206197410821915
1761470462156715500,7.496715576171875,0.06326434016227722,-0.48041898012161255,0.04672279581427574
1761470462166691600,7.506691650390625,0.09615251421928406,-0.27017173171043396,0.0626804530620575
1761470462176667400,7.51666748046875,0.11259296536445618,-0.010502373799681664,0.10313672572374344
1761470462186644500,7.52664453125,0.1383393406867981,0.2749064564704895,0.16843663156032562
1761470462196620500,7.53662060546875,0.1890365481376648,0.5373655557632446,0.25705862045288086
1761470462206596600,7.5465966796875,0.2314513921737671,0.7429946064949036,0.3420736491680145
1761470462216572400,7.556572509765625,0.2732214629650116,0.863614559173584,0.40999093651771545
1761470462226549500,7.566549560546875,0.304431289434433,0.8762115836143494,0.4612131118774414
1761470462236525600,7.576525634765625,0.330725759267807,0.8364650011062622,0.5021623969078064
1761470462246501400,7.58650146484375,0.34519150853157043,0.7092183828353882,0.4954672157764435
1761470462256478500,7.596478515625,0.3198908567428589,0.48112133145332336,0.40801647305488586
1761470462266454500,7.60645458984375,0.2648771405220032,0.17663386464118958,0.26797813177108765
1761470462276430600,7.6164306640625,0.16581396758556366,-0.15863101184368134,0.06961867958307266
1761470462286407400,7.626407470703125,0.07185204327106476,-0.4699375033378601,-0.15296299755573273
1761470462296383700,7.6363837890625,0.03315325826406479,-0.6693253517150879,-0.3367007076740265
1761470462306359600,7.646359619140625,0.04157470911741257,-0.74932861328125,-0.46591752767562866
1761470462316335400,7.65633544921875,0.06681530177593231,-0.7002541422843933,-0.5435773730278015
1761470462326312400,7.6663125,0.08005866408348083,-0.558154821395874,-0.5972946286201477
1761470462336288500,7.67628857421875,0.0749998614192009,-0.3222961723804474,-0.6194024085998535
1761470462346264600,7.6862646484375,0.08253847062587738,-0.006114502437412739,-0.6010287404060364
1761470462356241400,7.696241455078125,0.12522795796394348,0.28415897488594055,-0.5632687211036682
1761470462366217700,7.7062177734375,0.17254486680030823,0.3844855725765228,-0.5610564351081848
1761470462376193500,7.716193603515625,0.20849531888961792,0.3411179780960083,-0.6084513664245605
1761470462386170600,7.726170654296875,0.24504001438617706,0.25024160742759705,-0.6723592281341553
1761470462396146400,7.736146484375,0.2818385660648346,0.1581674963235855,-0.7209523916244507
1761470462406122500,7.74612255859375,0.2965993881225586,0.040667496621608734,-0.7744659185409546
1761470462416098600,7.7560986328125,0.28639617562294006,-0.10260030627250671,-0.8153899312019348
1761470462426075400,7.766075439453125,0.27197355031967163,-0.19945493340492249,-0.8158703446388245
1761470462436051700,7.7760517578125,0.2781556248664856,-0.2611742615699768,-0.7743846774101257
1761470462446027500,7.786027587890625,0.2765715718269348,-0.3251790702342987,-0.7017895579338074
1761470462456004600,7.796004638671875,0.2492971122264862,-0.3751904368400574,-0.6324504613876343
1761470462465980400,7.80598046875,0.20245397090911865,-0.4031355082988739,-0.5543053150177002
1761470462475956500,7.81595654296875,0.14787016808986664,-0.38620054721832275,-0.4669874608516693
1761470462485933600,7.82593359375,0.11760946363210678,-0.3382985293865204,-0.37765970826148987
1761470462495909400,7.835909423828125,0.10737892240285873,-0.31177181005477905,-0.2989637851715088
1761470462505885700,7.8458857421875,0.1121252030134201,-0.3045431673526764,-0.24905243515968323
1761470462515861500,7.855861572265625,0.12963324785232544,-0.2649899125099182,-0.20039154589176178
1761470462525838600,7.865838623046875,0.14707829058170319,-0.2110915184020996,-0.15073290467262268
1761470462535814400,7.875814453125,0.14734694361686707,-0.17071452736854553,-0.1255495548248291
1761470462545790500,7.88579052734375,0.1348327398300171,-0.1250881850719452,-0.09523026645183563
1761470462555767600,7.895767578125,0.09675724804401398,-0.07743673771619797,-0.05826130509376526
1761470462565743400,7.905743408203125,0.030926302075386047,-0.02281823568046093,-0.01836315728724003
1761470462575719700,7.9157197265625,-0.04735611751675606,0.026816511526703835,0.026120886206626892
1761470462585696500,7.925696533203125,-0.12548021972179413,0.06835330277681351,0.046535346657037735
1761470462595672600,7.935672607421875,-0.19830410182476044,0.06110140308737755,0.03443808853626251
1761470462605648600,7.945648681640625,-0.2714270353317261,0.02734689973294735,0.0031006704084575176
1761470462615624400,7.95562451171875,-0.321156769990921,-0.0018908813362941146,-0.022430256009101868
1761470462625601500,7.9656015625,-0.35551419854164124,-0.0394451804459095,-0.031851720064878464
1761470462635577300,7.975577392578125,-0.36405205726623535,-0.0405534990131855,-0.017535323277115822
1761470462645553700,7.9855537109375,-0.3520452082157135,0.020009180530905724,0.03867548704147339
1761470462655530500,7.995530517578125,-0.3456132411956787,0.034872185438871384,0.09611066430807114
1761470462665506600,8.005506591796875,-0.36833930015563965,-0.025042280554771423,0.11521884053945541
1761470462675482600,8.015482666015625,-0.40824320912361145,-0.10217263549566269,0.09125940501689911
1761470462685459700,8.025459716796876,-0.45509859919548035,-0.21660786867141724,0.02021079882979393
1761470462695435500,8.035435546875,-0.5318200588226318,-0.35719940066337585,-0.09336359053850174
1761470462705411300,8.045411376953124,-0.6232118010520935,-0.44937196373939514,-0.2198839783668518
1761470462715387600,8.0553876953125,-0.7210298776626587,-0.504395604133606,-0.3621533215045929
1761470462725364500,8.065364501953125,-0.7651587724685669,-0.45561477541923523,-0.46282026171684265
1761470462735340500,8.075340576171875,-0.7292783856391907,-0.26956504583358765,-0.4847124218940735
1761470462745316600,8.085316650390626,-0.6200123429298401,0.025302816182374954,-0.43535420298576355
1761470462755293400,8.09529345703125,-0.47173935174942017,0.3828733265399933,-0.3192627429962158
1761470462765269500,8.10526953125,-0.31270042061805725,0.7061115503311157,-0.17194437980651855
1761470462775245300,8.115245361328125,-0.19561395049095154,0.9271953701972961,-0.039990879595279694
1761470462785221400,8.125221435546875,-0.10479669272899628,0.999102771282196,0.056640852242708206
1761470462795198500,8.135198486328125,-0.05257207155227661,0.9018983244895935,0.12360452860593796
1761470462805174300,8.14517431640625,-0.026913845911622047,0.7488198280334473,0.1827610582113266
1761470462815150600,8.155150634765626,-0.035071972757577896,0.5528820157051086,0.22947099804878235
1761470462825127400,8.16512744140625,-0.08471328765153885,0.33287695050239563,0.27199503779411316
1761470462835103500,8.175103515625,-0.1345432698726654,0.13274653255939484,0.34042057394981384
1761470462845079300,8.185079345703125,-0.19418956339359283,-0.025574397295713425,0.41163963079452515
1761470462855056600,8.195056640625,-0.26030758023262024,-0.12369468063116074,0.46122756600379944
1761470462865032400,8.205032470703125,-0.3285958468914032,-0.1850121170282364,0.4595276713371277
1761470462875008300,8.21500830078125,-0.3865005075931549,-0.20367185771465302,0.3984364867210388
1761470462884984600,8.224984619140624,-0.42704394459724426,-0.19376756250858307,0.2990308105945587
1761470462894961400,8.23496142578125,-0.4478546679019928,-0.1362561732530594,0.17590129375457764
1761470462904937500,8.2449375,-0.43935734033584595,-0.04259280487895012,0.05609871819615364
1761470462914913500,8.25491357421875,-0.4003359079360962,0.08054335415363312,-0.04781690984964371
1761470462924890600,8.264890625,-0.32419639825820923,0.23039142787456512,-0.11952438950538635
1761470462934866400,8.274866455078126,-0.22811324894428253,0.3549744486808777,-0.16019633412361145
1761470462944842200,8.28484228515625,-0.13303279876708984,0.40347355604171753,-0.17944300174713135
1761470462954819300,8.2948193359375,-0.06732103228569031,0.36129650473594666,-0.20677414536476135
1761470462964795400,8.30479541015625,-0.050943661481142044,0.2794274687767029,-0.24113185703754425
1761470462974771500,8.314771484375,-0.06983480602502823,0.2059938758611679,-0.2693857252597809
1761470462984747500,8.32474755859375,-0.0951249822974205,0.15242785215377808,-0.27126696705818176
1761470462994724600,8.334724609375,-0.11670007556676865,0.10567987710237503,-0.2489384561777115
1761470463004700400,8.344700439453124,-0.12755006551742554,0.06650477647781372,-0.19335082173347473
1761470463014676500,8.354676513671874,-0.13007980585098267,0.0635041892528534,-0.12601226568222046
1761470463024653300,8.3646533203125,-0.12504670023918152,0.08091593533754349,-0.038080278784036636
1761470463034629400,8.37462939453125,-0.10330179333686829,0.09466787427663803,0.033142611384391785
1761470463044605400,8.38460546875,-0.07721133530139923,0.09105316549539566,0.07937482744455338
1761470463054582300,8.394582275390626,-0.03982822597026825,0.0464637316763401,0.09337178617715836
1761470463064558600,8.40455859375,0.004660681821405888,-0.0052103823982179165,0.08511172235012054
1761470463074534400,8.414534423828124,0.045150596648454666,-0.07854519784450531,0.06228269264101982
1761470463084510500,8.424510498046875,0.06771901994943619,-0.1759210228919983,0.03141719102859497
1761470463094487600,8.434487548828125,0.07220708578824997,-0.24475282430648804,0.020963864400982857
1761470463104463400,8.44446337890625,0.060555752366781235,-0.25254175066947937,0.037070926278829575
1761470463114439400,8.454439453125,0.033030916005373,-0.2395292967557907,0.05772880092263222
1761470463124416300,8.464416259765626,0.0059827882796525955,-0.21229314804077148,0.07025151699781418
1761470463134392600,8.474392578125,-0.02718305215239525,-0.18105319142341614,0.06049274280667305
1761470463144368400,8.484368408203125,-0.05968932807445526,-0.18080417811870575,0.027548909187316895
1761470463154344400,8.494344482421875,-0.07033836841583252,-0.13332824409008026,0.0017329425318166614
1761470463164321500,8.504321533203125,-0.048825353384017944,-0.06247777119278908,-0.02412661910057068
1761470463174297600,8.514297607421875,-0.02477998100221157,-0.06124208867549896,-0.07811269164085388
1761470463184273400,8.5242734375,-0.007009504828602076,-0.13340149819850922,-0.16136977076530457
1761470463194250200,8.534250244140624,0.009459125809371471,-0.18305817246437073,-0.2293219268321991
1761470463204226600,8.5442265625,0.04532524570822716,-0.18136759102344513,-0.24182146787643433
1761470463214202400,8.554202392578125,0.13313435018062592,-0.04573211818933487,-0.14408022165298462
1761470463224179500,8.564179443359375,0.25616735219955444,0.1695580780506134,0.03896097093820572
1761470463234155500,8.574155517578125,0.3580659031867981,0.2923712134361267,0.2124725729227066
1761470463244131600,8.584131591796876,0.3910619616508484,0.28476494550704956,0.3258627653121948
1761470463254107400,8.594107421875,0.38263776898384094,0.20074035227298737,0.3722054660320282
1761470463264084200,8.604084228515624,0.3482494354248047,0.02952866442501545,0.35030922293663025
1761470463274060500,8.614060546875,0.3027907907962799,-0.16428765654563904,0.30117067694664
1761470463284036400,8.624036376953125,0.2493230551481247,-0.30602267384529114,0.23895977437496185
1761470463294013400,8.634013427734375,0.20942364633083344,-0.34541526436805725,0.19379670917987823
1761470463303989500,8.643989501953126,0.1903969645500183,-0.3171370327472687,0.1576767861843109
1761470463313965600,8.653965576171874,0.1900167614221573,-0.2478657066822052,0.12800489366054535
1761470463323941400,8.66394140625,0.21864467859268188,-0.10149756819009781,0.11807022988796234
1761470463333918500,8.67391845703125,0.2569468319416046,0.09775275737047195,0.11378982663154602
1761470463343894500,8.68389453125,0.30990269780158997,0.3035610616207123,0.12502144277095795
1761470463353870300,8.693870361328125,0.36511826515197754,0.47982195019721985,0.1491183191537857
1761470463363847400,8.703847412109376,0.39893853664398193,0.5761958956718445,0.16718894243240356
1761470463373823500,8.713823486328126,0.4147835373878479,0.6389719843864441,0.1797732263803482
1761470463383799600,8.723799560546874,0.4060654044151306,0.6239999532699585,0.1711922436952591
1761470463393776400,8.7337763671875,0.37647145986557007,0.534651517868042,0.11959429830312729
1761470463403752400,8.74375244140625,0.34501102566719055,0.41431793570518494,0.06116241216659546
1761470463413728500,8.753728515625,0.3065246641635895,0.2817874252796173,-0.008862854912877083
1761470463423704300,8.763704345703125,0.2855389714241028,0.15718956291675568,-0.06824228912591934
1761470463433681400,8.773681396484376,0.29774779081344604,0.06999196857213974,-0.11103636026382446
1761470463443657500,8.783657470703124,0.34464123845100403,-0.024379808455705643,-0.14804045855998993
1761470463453633500,8.793633544921875,0.4028793275356293,-0.12173657864332199,-0.16833941638469696
1761470463463610400,8.8036103515625,0.4620174765586853,-0.18880324065685272,-0.1506514996290207
1761470463473586400,8.81358642578125,0.4925539791584015,-0.23006656765937805,-0.11696584522724152
1761470463483562500,8.8235625,0.4756149351596832,-0.22698689997196198,-0.07267854362726212
1761470463493539600,8.83353955078125,0.4277958273887634,-0.16538555920124054,-0.016131039708852768
1761470463503515400,8.843515380859374,0.37041348218917847,-0.05607104301452637,0.045024991035461426
1761470463513491500,8.853491455078125,0.32790297269821167,0.06492767482995987,0.08985964953899384
1761470463523467500,8.863467529296875,0.3185923099517822,0.16180574893951416,0.11307761818170547
1761470463533444400,8.8734443359375,0.348531037569046,0.20849661529064178,0.10362376272678375
1761470463543420700,8.883420654296875,0.39906132221221924,0.19384603202342987,0.06499594449996948
1761470463553396500,8.893396484375,0.45197585225105286,0.12775708734989166,-0.003319026669487357
1761470463563373600,8.90337353515625,0.4602563977241516,0.0016167201101779938,-0.09106858819723129
1761470463573349400,8.913349365234374,0.4172128140926361,-0.14050325751304626,-0.19780686497688293
1761470463583325400,8.923325439453125,0.3354732096195221,-0.24081094563007355,-0.30689287185668945
1761470463593301500,8.933301513671875,0.24096718430519104,-0.26506274938583374,-0.38020703196525574
1761470463603278300,8.9432783203125,0.1492798775434494,-0.2494979202747345,-0.4318026006221771
1761470463613254700,8.953254638671876,0.07227987796068192,-0.1961667388677597,-0.4612054228782654
1761470463623230500,8.96323046875,0.020418545231223106,-0.1311645656824112,-0.46848011016845703
1761470463633207600,8.97320751953125,0.00925634615123272,-0.06918258219957352,-0.4422770142555237
1761470463643183400,8.983183349609375,0.03183861821889877,-0.01117440965026617,-0.3837162256240845
1761470463653159400,8.993159423828125,0.07049299776554108,0.03771931305527687,-0.31292346119880676
1761470463663136500,9.003136474609375,0.10771200060844421,0.056879423558712006,-0.2509961724281311
1761470463673112300,9.0131123046875,0.13327431678771973,0.04412611946463585,-0.1960228979587555
1761470463683088600,9.023088623046876,0.15002773702144623,-0.017253614962100983,-0.15280431509017944
1761470463693064400,9.033064453125,0.1500798463821411,-0.10644715279340744,-0.11693697422742844
1761470463703041500,9.04304150390625,0.12019410729408264,-0.15132488310337067,-0.07063765078783035
1761470463713017300,9.053017333984375,0.07379273325204849,-0.14973895251750946,-0.02222621627151966
1761470463722993400,9.062993408203125,0.023142067715525627,-0.10230857878923416,0.03631884977221489
1761470463732970500,9.072970458984376,-0.02027580328285694,-0.0009245973778888583,0.08501794934272766
1761470463742946600,9.082946533203126,-0.04432228207588196,0.05085284635424614,0.10731206834316254
1761470463752922600,9.092922607421874,-0.057907067239284515,0.0400790274143219,0.11467225104570389
1761470463762898400,9.1028984375,-0.09369143098592758,0.02341962419450283,0.11341843008995056
1761470463772875500,9.11287548828125,-0.14644290506839752,0.001088897930458188,0.11146264523267746
1761470463782851600,9.1228515625,-0.19159039855003357,-0.01635720394551754,0.11562755703926086
1761470463792827600,9.13282763671875,-0.2174278199672699,-0.04894829913973808,0.1102505624294281
1761470463802804500,9.142804443359376,-0.21816231310367584,-0.09791956841945648,0.09743037074804306
1761470463812780500,9.152780517578124,-0.19540593028068542,-0.11442902684211731,0.11530786752700806
1761470463822756600,9.162756591796875,-0.18470188975334167,-0.1011853963136673,0.160142183303833
1761470463832733700,9.172733642578125,-0.1985807567834854,-0.09409044682979584,0.20309039950370789
1761470463842709500,9.18270947265625,-0.2382727712392807,-0.08090513944625854,0.21591033041477203
1761470463852685600,9.192685546875,-0.2861948609352112,-0.10047245025634766,0.19011032581329346
1761470463862661600,9.20266162109375,-0.3396383821964264,-0.14646312594413757,0.11131136864423752
1761470463872638500,9.212638427734374,-0.39868253469467163,-0.19408339262008667,-0.012618367560207844
1761470463882614500,9.222614501953124,-0.45723000168800354,-0.25603410601615906,-0.16446968913078308
1761470463892590600,9.232590576171875,-0.504111111164093,-0.3107530176639557,-0.32915595173835754
1761470463902567700,9.242567626953125,-0.5354447960853577,-0.32105597853660583,-0.4558723568916321
1761470463912543500,9.25254345703125,-0.5283672213554382,-0.216265007853508,-0.5011438727378845
1761470463922519600,9.26251953125,-0.49130746722221375,-0.06741027534008026,-0.4748116135597229
1761470463932496600,9.27249658203125,-0.4041438102722168,0.1325659453868866,-0.367584228515625
1761470463942472400,9.282472412109374,-0.2792026698589325,0.33903950452804565,-0.2032378911972046
1761470463952448500,9.292448486328125,-0.16851836442947388,0.47204747796058655,-0.031303711235523224
1761470463962424600,9.302424560546875,-0.10424430668354034,0.49246513843536377,0.11899816989898682
1761470463972401700,9.312401611328125,-0.08835551887750626,0.44664040207862854,0.2463570386171341
1761470463982377500,9.32237744140625,-0.08584735542535782,0.3720516562461853,0.3678339123725891
1761470463992353500,9.332353515625,-0.1150863766670227,0.26939094066619873,0.4633024036884308
1761470464002330600,9.34233056640625,-0.15492594242095947,0.1690233200788498,0.5279407501220703
1761470464012306400,9.352306396484375,-0.2050228863954544,0.047139521688222885,0.5491310954093933
1761470464022282500,9.362282470703125,-0.2608283460140228,-0.09612416476011276,0.49952492117881775
1761470464032258600,9.372258544921875,-0.3011254668235779,-0.19576570391654968,0.40855109691619873
1761470464042235600,9.382235595703126,-0.3285887837409973,-0.22230836749076843,0.2898678779602051
1761470464052211500,9.39221142578125,-0.3351413905620575,-0.1794683188199997,0.16622883081436157
1761470464062187500,9.4021875,-0.3486739695072174,-0.0799206867814064,0.03199193254113197
1761470464072164600,9.41216455078125,-0.3506033420562744,0.02771366387605667,-0.08097931742668152
1761470464082140400,9.422140380859375,-0.33451199531555176,0.11715353280305862,-0.17120347917079926
1761470464092116500,9.432116455078125,-0.2947159707546234,0.19214163720607758,-0.23149926960468292
1761470464102093600,9.442093505859376,-0.23588940501213074,0.23090101778507233,-0.2730797529220581
1761470464112069600,9.452069580078126,-0.16970480978488922,0.24238434433937073,-0.2891305685043335
1761470464122045400,9.46204541015625,-0.11655398458242416,0.28264787793159485,-0.26630115509033203
1761470464132021500,9.472021484375,-0.08696318417787552,0.30379968881607056,-0.2383030503988266
1761470464141998600,9.48199853515625,-0.101507768034935,0.2873229682445526,-0.2295026332139969
1761470464151974400,9.491974365234375,-0.12527529895305634,0.207548588514328,-0.2550809979438782
1761470464161950500,9.501950439453125,-0.1396065652370453,0.1518280804157257,-0.24614155292510986
1761470464171927600,9.511927490234376,-0.15731441974639893,0.10735848546028137,-0.20174701511859894
1761470464181903600,9.521903564453124,-0.1896984577178955,0.05481724441051483,-0.1453029215335846
1761470464191879400,9.53187939453125,-0.2240263819694519,0.006751843262463808,-0.08476865291595459
1761470464201856500,9.5418564453125,-0.23427768051624298,-0.03412075713276863,-0.029618579894304276
1761470464211832600,9.55183251953125,-0.2068244218826294,-0.07884924858808517,0.019218355417251587
1761470464221808400,9.561808349609375,-0.15258647501468658,-0.09095145016908646,0.050617821514606476
1761470464231784700,9.57178466796875,-0.09581591188907623,-0.11306210607290268,0.07034430652856827
1761470464241761500,9.581761474609374,-0.061344753950834274,-0.14620940387248993,0.08245103806257248
1761470464251737600,9.591737548828124,-0.03388381004333496,-0.14318759739398956,0.11873470991849899
1761470464261713400,9.60171337890625,0.0006672440213151276,-0.08688385784626007,0.17470583319664001
1761470464271690500,9.6116904296875,0.05065997689962387,-0.04290890321135521,0.22473803162574768
1761470464281666600,9.62166650390625,0.12166757881641388,0.017723815515637398,0.27248504757881165
1761470464291642400,9.631642333984376,0.1998453587293625,0.07925641536712646,0.2991804778575897
1761470464301619500,9.641619384765624,0.25866472721099854,0.10670454800128937,0.3015056848526001
1761470464311595500,9.651595458984374,0.2970753312110901,0.12421838194131851,0.28784433007240295
1761470464321571600,9.661571533203125,0.32638901472091675,0.12121514230966568,0.2684312164783478
1761470464331547400,9.67154736328125,0.32934534549713135,0.0626743733882904,0.23374997079372406
1761470464341524500,9.6815244140625,0.32221126556396484,-0.0020582806318998337,0.19525638222694397
1761470464351500500,9.69150048828125,0.3069981336593628,-0.09353224188089371,0.15345479547977448
1761470464361476400,9.701476318359376,0.29719075560569763,-0.15777087211608887,0.13582679629325867
1761470464371453400,9.711453369140624,0.2997382879257202,-0.14171482622623444,0.15992261469364166
1761470464381429500,9.721429443359375,0.31640806794166565,-0.06395584344863892,0.22389334440231323
1761470464391405600,9.731405517578125,0.35502392053604126,0.04705197736620903,0.3106869161128998
1761470464401381400,9.74138134765625,0.39289700984954834,0.10952866822481155,0.38574251532554626
1761470464411358700,9.751358642578126,0.39054182171821594,0.08481746912002563,0.4100833833217621
1761470464421334500,9.76133447265625,0.35176166892051697,0.02581833489239216,0.39888185262680054
1761470464431310600,9.771310546875,0.29067355394363403,-0.0739627406001091,0.3517930209636688
1761470464441287400,9.781287353515625,0.20592138171195984,-0.24230515956878662,0.2586159408092499
1761470464451263500,9.791263427734375,0.10033631324768066,-0.4096080958843231,0.13578027486801147
1761470464461239600,9.801239501953125,0.015465364791452885,-0.4951144754886627,0.024630051106214523
1761470464471216400,9.81121630859375,-0.0021929629147052765,-0.5029759407043457,-0.02646753191947937
1761470464481192700,9.821192626953126,0.042997416108846664,-0.3734760284423828,-0.01127686072140932
1761470464491168500,9.83116845703125,0.12438156455755234,-0.1942656934261322,0.07177823781967163
1761470464501144600,9.84114453125,0.21354739367961884,0.03165878355503082,0.18700683116912842
1761470464511121400,9.851121337890625,0.28797340393066406,0.2658989727497101,0.3129655420780182
1761470464521097500,9.861097412109375,0.3280683755874634,0.398942768573761,0.4078175127506256
1761470464531073500,9.871073486328125,0.3426979184150696,0.4565984010696411,0.4591180086135864
1761470464541050400,9.88105029296875,0.32769420742988586,0.4045802056789398,0.4592229127883911
1761470464551026700,9.891026611328124,0.274896502494812,0.31716856360435486,0.4200906753540039
1761470464561002500,9.90100244140625,0.1929401159286499,0.2360587865114212,0.35749226808547974
1761470464570978600,9.910978515625,0.12525221705436707,0.14573900401592255,0.2692719101905823
1761470464580955400,9.920955322265625,0.07811426371335983,0.025563322007656097,0.17651613056659698
1761470464590931700,9.930931640625,0.037956688553094864,-0.08996867388486862,0.0761612206697464
1761470464600907500,9.940907470703126,0.024017438292503357,-0.1732369363307953,-0.017422256991267204
1761470464610884400,9.95088427734375,0.031111299991607666,-0.27008703351020813,-0.1129988431930542
1761470464620860700,9.960860595703124,0.0526576042175293,-0.3708418607711792,-0.20564809441566467
1761470464630836500,9.97083642578125,0.06715329736471176,-0.45172420144081116,-0.29028961062431335
1761470464640813600,9.9808134765625,0.04758118838071823,-0.4777454137802124,-0.3499950170516968
1761470464650789400,9.990789306640625,0.013963216915726662,-0.3788003623485565,-0.3675324618816376
1761470464660765700,10.000765625,-0.005328455939888954,-0.19526170194149017,-0.34031814336776733
1761470464670741500,10.010741455078126,0.015202079899609089,0.07245468348264694,-0.27435892820358276
1761470464680718300,10.02071826171875,0.08191506564617157,0.3542115390300751,-0.1841270476579666
1761470464690694700,10.030694580078125,0.16385699808597565,0.5270426869392395,-0.12202029675245285
1761470464700670500,10.04067041015625,0.24260586500167847,0.6191720962524414,-0.10072726011276245
1761470464710647600,10.0506474609375,0.3283655047416687,0.6255050897598267,-0.10227136313915253
1761470464720623600,10.06062353515625,0.3725588023662567,0.541045606136322,-0.1349153369665146
1761470464730599700,10.070599609375,0.36851057410240173,0.40458062291145325,-0.19104334712028503
1761470464740577300,10.080577392578125,0.3209233582019806,0.2742910385131836,-0.2407533824443817
1761470464750553300,10.09055322265625,0.26461708545684814,0.17246101796627045,-0.29146552085876465
1761470464760529200,10.100529052734375,0.21215547621250153,0.06736204028129578,-0.342508465051651
1761470464770505500,10.11050537109375,0.1646820604801178,-0.0007285886676982045,-0.3831985294818878
1761470464780482300,10.120482421875,0.12415860593318939,-0.02002105861902237,-0.38895151019096375
1761470464790458400,10.130458251953126,0.10043668746948242,0.03146307170391083,-0.3645235300064087
1761470464800434400,10.140434326171874,0.10832364112138748,0.1379873901605606,-0.2954201102256775
1761470464810411300,10.150411376953125,0.13759800791740417,0.24839353561401367,-0.21906448900699615
1761470464820387300,10.16038720703125,0.17837713658809662,0.3144330084323883,-0.14885078370571136
1761470464830363400,10.17036328125,0.22176212072372437,0.33061766624450684,-0.08528640866279602
1761470464840339500,10.18033935546875,0.2583233416080475,0.2935350239276886,-0.04736272618174553
1761470464850316300,10.19031640625,0.27979952096939087,0.1697862595319748,-0.006256569176912308
1761470464860292400,10.200292236328124,0.2746034264564514,0.022983502596616745,0.019337739795446396
1761470464870268400,10.210268310546875,0.24281112849712372,-0.09506575018167496,0.06277484446763992
1761470464880245500,10.22024560546875,0.2012391835451126,-0.17423194646835327,0.11099404096603394
1761470464890221300,10.23022119140625,0.15597280859947205,-0.230560302734375,0.1614019274711609
1761470464900197400,10.240197265625,0.12431156635284424,-0.265828013420105,0.20563650131225586
1761470464910174500,10.250174560546874,0.09340382367372513,-0.29402783513069153,0.24549147486686707
1761470464920150300,10.260150390625,0.04823901131749153,-0.26983222365379333,0.27356889843940735
1761470464930126300,10.270126220703125,0.011313258670270443,-0.22915586829185486,0.30517324805259705
1761470464940102400,10.280102294921875,-0.025665530934929848,-0.1906457543373108,0.3232228457927704
1761470464950079500,10.29007958984375,-0.05198509246110916,-0.16992273926734924,0.3277953267097473
1761470464960055300,10.30005517578125,-0.05943608283996582,-0.1606735736131668,0.3343967795372009
1761470464970031400,10.31003125,-0.04749083146452904,-0.13884566724300385,0.3548181653022766
1761470464980008400,10.320008544921874,-0.022259512916207314,-0.11760003119707108,0.37634289264678955
1761470464989984300,10.329984375,-0.0009285962441936135,-0.15240836143493652,0.3773496150970459
1761470464999960300,10.339960205078125,-0.017405040562152863,-0.23299480974674225,0.3235899806022644
1761470465009936400,10.349936279296875,-0.07674150168895721,-0.3214471936225891,0.24025018513202667
1761470465019913500,10.35991357421875,-0.18823020160198212,-0.40956026315689087,0.10889508575201035
1761470465029889300,10.36988916015625,-0.33649182319641113,-0.508342981338501,-0.06999868154525757
1761470465039865300,10.379865234375,-0.4905112087726593,-0.5688931345939636,-0.27327829599380493
1761470465049842400,10.389842529296875,-0.6134962439537048,-0.5118773579597473,-0.43977874517440796
1761470465059818200,10.399818359375,-0.6741358637809753,-0.37418049573898315,-0.5403503775596619
1761470465069794300,10.409794189453125,-0.6688705682754517,-0.12206871062517166,-0.5531392097473145
1761470465079771400,10.419771484375,-0.6172667741775513,0.2159530073404312,-0.48396092653274536
1761470465089747500,10.42974755859375,-0.5124049186706543,0.5671187043190002,-0.36928483843803406
1761470465099723300,10.43972314453125,-0.35398566722869873,0.7863152027130127,-0.23947995901107788
1761470465109699300,10.44969921875,-0.1927892565727234,0.8655862212181091,-0.1079283356666565
1761470465119676400,10.459676513671875,-0.06122323498129845,0.8385487794876099,0.017774997279047966
1761470465129652200,10.46965234375,0.008243545889854431,0.7007271647453308,0.11559023708105087
1761470465139628300,10.479628173828125,0.008515987545251846,0.5296459794044495,0.21857601404190063
1761470465149605400,10.48960546875,-0.03849342092871666,0.38918164372444153,0.3262292146682739
1761470465159581400,10.49958154296875,-0.11827773600816727,0.2606697380542755,0.4109784662723541
1761470465169557200,10.50955712890625,-0.19844116270542145,0.10067884624004364,0.4662962853908539
1761470465179534300,10.519534423828125,-0.2770118713378906,-0.048757512122392654,0.479437917470932
1761470465189510400,10.529510498046875,-0.36697641015052795,-0.21006247401237488,0.4374862611293793
1761470465199486200,10.539486328125,-0.47013047337532043,-0.3399677574634552,0.3364941477775574
1761470465209462500,10.549462646484375,-0.5669559836387634,-0.3996328115463257,0.21183790266513824
1761470465219439400,10.559439453125,-0.6253631114959717,-0.3911309540271759,0.07662629336118698
1761470465229415400,10.56941552734375,-0.633018434047699,-0.34739217162132263,-0.05590515956282616
1761470465239391200,10.57939111328125,-0.5854815244674683,-0.27251315116882324,-0.16781944036483765
1761470465249368300,10.589368408203125,-0.5080603957176208,-0.16697505116462708,-0.2511696219444275
1761470465259344400,10.599344482421875,-0.4255410134792328,-0.03604525700211525,-0.3164905607700348
1761470465269320200,10.6093203125,-0.3160642087459564,0.12049611657857895,-0.34558314085006714
1761470465279296500,10.619296630859376,-0.23529213666915894,0.2540520429611206,-0.37169143557548523
1761470465289273300,10.6292734375,-0.15895503759384155,0.34108561277389526,-0.38645556569099426
1761470465299249400,10.63924951171875,-0.11329513043165207,0.37696319818496704,-0.39901769161224365
1761470465309225200,10.64922509765625,-0.09975358098745346,0.326568067073822,-0.4303775131702423
1761470465319202300,10.659202392578125,-0.1136757880449295,0.20707067847251892,-0.46904128789901733
1761470465329178400,10.669178466796875,-0.12870392203330994,0.08011022955179214,-0.4714873731136322
1761470465339154200,10.679154296875,-0.12329583615064621,-0.012273763306438923,-0.41706833243370056
1761470465349131300,10.68913134765625,-0.1326168030500412,-0.06571627408266068,-0.3520962595939636
1761470465359107300,10.699107421875,-0.13877536356449127,-0.11311335116624832,-0.2968687117099762
1761470465369083400,10.70908349609375,-0.12756392359733582,-0.12021274864673615,-0.22519196569919586
1761470465379059200,10.71905908203125,-0.09446588903665543,-0.12966351211071014,-0.13605409860610962
1761470465389036500,10.72903662109375,-0.03825358301401138,-0.15638354420661926,-0.045978646725416183
1761470465399012400,10.739012451171876,0.01645892672240734,-0.18116320669651031,0.044262032955884933
1761470465408988200,10.74898828125,0.0588039755821228,-0.1789693981409073,0.10523286461830139
1761470465418965200,10.75896533203125,0.09758706390857697,-0.17780452966690063,0.1238318458199501
1761470465428941300,10.76894140625,0.16081947088241577,-0.19888842105865479,0.11037649214267731
1761470465438917400,10.77891748046875,0.22876176238059998,-0.19695815443992615,0.07319024205207825
1761470465448893200,10.78889306640625,0.27753835916519165,-0.17682886123657227,0.024641383439302444
1761470465458870500,10.79887060546875,0.29767557978630066,-0.13514533638954163,-0.008252118714153767
1761470465468846300,10.808846435546876,0.2977166771888733,-0.08483065664768219,-0.021472886204719543
1761470465478822100,10.818822265625,0.275961309671402,-0.03513180464506149,-0.03484781086444855
1761470465488799200,10.82879931640625,0.256173312664032,0.0350123830139637,-0.05771553888916969
1761470465498775300,10.838775390625,0.25170719623565674,0.19816002249717712,-0.07904479652643204
1761470465508751400,10.84875146484375,0.2685921788215637,0.3044393062591553,-0.11170580238103867
1761470465518728200,10.858728271484376,0.1704365611076355,0.25380462408065796,-0.046112678945064545
1761470465528704500,10.86870458984375,0.15200521051883698,0.11593291908502579,-0.09942227602005005
1761470465538680300,10.878680419921874,0.24586112797260284,0.13695350289344788,-0.11742310971021652
1761470465548656000,10.88865625,0.34707319736480713,0.047995008528232574,-0.09308867156505585
1761470465558633200,10.89863330078125,0.3902134597301483,0.10085848718881607,-0.04103691875934601
1761470465568609300,10.908609375,0.3924051821231842,0.22245337069034576,0.06671586632728577
1761470465578585300,10.91858544921875,0.40570127964019775,0.22654664516448975,0.22164605557918549
