time,seconds_elapsed,z,y,x
1761475999522876400,0.11487646484375,0.8834557364225387,0.8190212581738829,0.43427441040016707
1761475999532913400,0.124913330078125,0.7902753484219313,0.8174551779009401,0.47039994554203
1761475999542949400,0.134949462890625,0.8196937506079673,0.8542185360223055,0.4399386467069387
1761475999552986400,0.144986328125,0.9250041368633508,0.9519510343693196,0.3871305280398577
1761475999563022600,0.155022705078125,0.903604790481925,1.0583701125189662,0.35038982014171777
1761475999573059600,0.1650595703125,0.6781050132691859,1.1157087872877716,0.37628731819260863
1761475999583095600,0.175095458984375,0.3698912970125675,1.1475469639666378,0.37606962032131847
1761475999593132500,0.185132568359375,0.2418593758612871,1.1507529204010962,0.30239220702890307
1761475999603168500,0.19516845703125,0.1954910079181194,1.1798002973176538,0.23438072881000116
1761475999613205500,0.20520556640625,-0.003326514074206352,1.2060526366882025,0.2605072315774858
1761475999623241500,0.215241455078125,-0.14231471352577207,1.1983457155726849,0.36679230808392166
1761475999633278700,0.22527880859375,-0.1381581783682108,1.1570428143255411,0.4680399018798023
1761475999643315500,0.2353154296875,-0.09281739990711212,1.153256427654624,0.5013572477331385
1761475999653351400,0.245351318359375,-0.042948914888501166,1.1597013660103082,0.4710450385125354
1761475999663388400,0.255388427734375,-0.07175882978737354,1.1481294400297104,0.4402134450603276
1761475999673424400,0.26542431640625,-0.2550128719449043,1.1120032107681035,0.4188583762120455
1761475999683461400,0.27546142578125,-0.4369815504670143,1.1207191627956927,0.4035301664378494
1761475999693497300,0.285497314453125,-0.47670448904633517,1.15123105930686,0.3854289117537439
1761475999703534600,0.29553466796875,-0.4236661418199539,1.2153332368612288,0.3199542402697727
1761475999713570600,0.305570556640625,-0.3850111247330904,1.2627305094607173,0.2638319007544778
1761475999723607600,0.315607666015625,-0.37076048106253146,1.236295945391059,0.19582350954180583
1761475999733643500,0.3256435546875,-0.4290460812926292,1.158941633684188,0.15994582994747905
1761475999743680500,0.335680419921875,-0.39405718549787994,1.0950096981301902,0.13851649028658866
1761475999753716500,0.345716552734375,-0.3306166867226362,1.0281880324840544,0.057653636169224046
1761475999763753500,0.35575341796875,-0.3624877427577972,0.9588000234812497,-0.040250250389054415
1761475999773789400,0.36578955078125,-0.4376654410779476,0.9009057606562971,-0.06259951790645718
1761475999783826700,0.37582666015625,-0.4118441866010427,0.8490688981741666,-0.04649250577948987
1761475999793862700,0.385862548828125,-0.35974224344193934,0.8351018937505781,-0.07695395074505358
1761475999803899600,0.395899658203125,-0.38275603928267954,0.8447291154041886,-0.09581980572664178
1761475999813936400,0.405936279296875,-0.29946050095856186,0.791395730753988,-0.09753827268285677
1761475999823972400,0.415972412109375,-0.12983341761529446,0.7358509536646306,-0.11669740238944068
1761475999834009300,0.42600927734375,-0.07878712098896502,0.7046488829322158,-0.16045255562691016
1761475999844045300,0.43604541015625,-0.16805588850378989,0.7149652558937668,-0.17969702552938832
1761475999854082600,0.44608251953125,-0.19846096363961696,0.6792945153146982,-0.24775776798380536
1761475999864118500,0.456118408203125,-0.14629764568209647,0.6324025618888437,-0.29240473722815513
1761475999874155500,0.466155517578125,-0.1920142717182636,0.5824012442708015,-0.3002365816312842
1761475999884191500,0.47619140625,-0.23204642237722872,0.5628850812874734,-0.3260181068859994
1761475999894228500,0.486228515625,-0.2888005752563476,0.5523240859150886,-0.3313368176907301
1761475999904264400,0.496264404296875,-0.2362614097237587,0.5266673743501306,-0.3294499444982037
1761475999914301400,0.506301513671875,-0.1481441503316164,0.46225057788863777,-0.36132684575226154
1761475999924337400,0.51633740234375,-0.11501228058040142,0.39688714822679755,-0.4232438612872734
1761475999934374700,0.526374755859375,-0.00739478642642498,0.3237099760740995,-0.43750192107930774
1761475999944410600,0.53641064453125,0.049448213779926295,0.2771976696155965,-0.45462738953381776
1761475999954447600,0.546447509765625,0.08247603863477707,0.25401947699338195,-0.43949261997248973
1761475999964484400,0.556484375,0.1392465581268072,0.2453650458946824,-0.45908115407228467
1761475999974520300,0.566520263671875,0.12514964371323584,0.24315935254395007,-0.5211567942351103
1761475999984557300,0.576557373046875,0.09740765030682086,0.2440587856017053,-0.6119727911919355
1761475999994593500,0.586593505859375,0.003330605727434158,0.25314897776916623,-0.6337522229321301
1761476000004630500,0.596630615234375,-0.0845136819422245,0.2491584468282759,-0.6425942124921828
1761476000014666500,0.60666650390625,-0.10314999335110187,0.2352563243344426,-0.6635710226126015
1761476000024703500,0.616703369140625,-0.14269640631973743,0.2652244693577289,-0.6912867125339806
1761476000034739500,0.626739501953125,-0.18851473916471004,0.30403949931189417,-0.7256546999514103
1761476000044776400,0.6367763671875,-0.10883680681586265,0.3018063334323466,-0.7733917258992791
1761476000054812400,0.6468125,-0.05367664512991905,0.2558634974248707,-0.8204812477238476
1761476000064849700,0.656849609375,-0.011684008052945137,0.2015720813974738,-0.881509863051772
1761476000074885600,0.6668857421875,-0.012193711140751838,0.17712153075188397,-0.9378019513770938
1761476000084922600,0.676922607421875,0.013674305087327957,0.14194266534298658,-0.9775888951033354
1761476000094958600,0.68695849609375,-0.01872048256099224,0.1302462361998856,-1.0242159870479255
1761476000104995600,0.69699560546875,-0.08101648747622966,0.13299495038613676,-1.0851254329755902
1761476000115032300,0.7070322265625,-0.020374679508805275,0.12874299203008413,-1.158568051131442
1761476000125068500,0.717068603515625,0.11602467249333857,0.114095457996428,-1.2280439576134086
1761476000135105500,0.72710546875,0.1340571727901697,0.1491562499836087,-1.2363286786168812
1761476000145141500,0.7371416015625,0.07723112371861934,0.1642781235307455,-1.1376692746832966
1761476000155177700,0.747177734375,0.11078092662096023,0.11114683732390403,-1.0234862845338881
1761476000165213700,0.757213623046875,0.18028408643603325,0.027370091354101896,-0.912826353944093
1761476000175251000,0.7672509765625,0.20042086553573607,-0.035220366463065145,-0.8502167530350386
1761476000185287000,0.777286865234375,0.3197211986988783,-0.06912526641339063,-0.8704485169418156
1761476000195324000,0.787323974609375,0.5041366858512163,-0.061135144442319864,-0.8987079583510756
1761476000205359900,0.79735986328125,0.6284200681239366,-0.07378375974372028,-0.9287457345444708
1761476000215396900,0.80739697265625,0.7600058823645115,-0.11181056192964314,-0.9228191209744662
1761476000225432800,0.817432861328125,0.8545575587183236,-0.16045841911211609,-0.8335534952647984
1761476000235469800,0.8274697265625,0.9012070816904306,-0.2039005243450403,-0.7420194862317293
1761476000245507000,0.837507080078125,0.9945224942475557,-0.23709157693758606,-0.6407185548134148
1761476000255543000,0.84754296875,1.0640069493621587,-0.24772432237192987,-0.5031381398005411
1761476000265580000,0.857580078125,1.0856710841596127,-0.2600947052538395,-0.3431079195052385
1761476000275616000,0.867615966796875,1.0750146655887365,-0.2811237570181489,-0.24021036654524502
1761476000285653000,0.877653076171875,1.1101531989872455,-0.32625878377407785,-0.18635580756515263
1761476000295689000,0.88768896484375,1.1541922472000121,-0.3866274738885462,-0.16135156855955718
1761476000305725700,0.8977255859375,1.132707560622692,-0.4129585775837302,-0.15522811724320054
1761476000315762000,0.907761962890625,1.0262743078172207,-0.4480320829220116,-0.12726122903972864
1761476000325799000,0.917798828125,0.8970055383473634,-0.47479368698894975,-0.048954146652668715
1761476000335835000,0.9278349609375,0.8311527177333832,-0.4846611471392214,0.024449746927991508
1761476000345872000,0.937871826171875,0.8707757030695676,-0.47483752613067626,0.06259528012275696
1761476000355907800,0.947907958984375,0.8276455863952636,-0.46218759565502404,0.1119398143325001
1761476000365944800,0.95794482421875,0.6549620380908251,-0.49363487332016226,0.20885405509918928
1761476000375980800,0.967980712890625,0.3837199158787727,-0.5576245304107665,0.3051191843073815
1761476000386017800,0.978017822265625,0.07970715844333172,-0.6007198680326342,0.35749278401471674
1761476000396054000,0.988053955078125,-0.1495300517320633,-0.5653117239125073,0.35364714143723247
1761476000406091000,0.998091064453125,-0.3417793012499809,-0.501844044869393,0.30313392877429723
1761476000416128000,1.0081279296875,-0.6554933684885501,-0.4618324986070394,0.2462738313026726
1761476000426164000,1.0181640625,-0.9535995322287082,-0.445092960730195,0.19630816951990127
1761476000436201000,1.028200927734375,-1.1148644454181194,-0.41377793114259837,0.14599895499646662
1761476000446237000,1.03823681640625,-1.2022592357546091,-0.3982293566159904,0.09172054458111524
1761476000456274000,1.04827392578125,-1.2717407682597637,-0.285817760053277,0.023621844736486673
1761476000466310100,1.05831005859375,-1.178838612678647,-0.009207827197760343,-0.13760799713954328
1761476000476347000,1.068346923828125,-1.190599193099141,0.3328219416819513,-0.2989582505248487
1761476000486382800,1.0783828125,-1.4521096103698015,0.5186486108064651,-0.33218189021274447
1761476000496419800,1.088419921875,-1.915833037289977,0.46922889246866106,-0.15158961461037396
1761476000506455800,1.098455810546875,-2.24766786763072,0.3444607954189181,0.07044833171069621
1761476000516492800,1.108492919921875,-2.3638071064144373,0.34745442427694795,0.1540478214174509
1761476000526528800,1.11852880859375,-2.457981181627512,0.5161629314705729,0.10983341663777828
1761476000536566000,1.12856591796875,-2.645377145895362,0.6545552108556032,0.10475742854773998
1761476000546602000,1.13860205078125,-2.680453719973564,0.739281804896146,0.2326619239270687
1761476000556639000,1.148638916015625,-2.5112784720510244,0.8147900503449141,0.3651381111361086
1761476000566675000,1.158675048828125,-2.2638258062273264,0.8762063498161733,0.46980493879094715
1761476000576712000,1.1687119140625,-2.0365069968938827,0.90454645524621,0.5875247247643769
1761476000586748000,1.178747802734375,-1.8145044141471385,0.8674220087274909,0.722082832814008
1761476000596785000,1.188784912109375,-1.5982482660979032,0.7497844942100346,0.8207707321897149
1761476000606820900,1.19882080078125,-1.3978490278720854,0.608545008700341,0.8326071543253958
1761476000616858000,1.208858154296875,-1.1711176630377769,0.5147355290159583,0.7085818384669721
1761476000626894800,1.218894775390625,-0.8670610664606094,0.4835444180689752,0.46661827157884833
1761476000636930800,1.228930908203125,-0.5455518153011798,0.48294002243503925,0.1799193447768688
1761476000646967800,1.2389677734375,-0.2532791800200939,0.5497172644175589,-0.09111191116347908
1761476000657003800,1.249003662109375,0.058415948611497875,0.6582618102885782,-0.3272257291100919
1761476000667040800,1.259040771484375,0.31378245629966256,0.7728622951976954,-0.5214042661901563
1761476000677076700,1.26907666015625,0.659645227470994,0.8561739078737794,-0.7118105181898922
1761476000687114000,1.279114013671875,0.9601011692076921,0.8716624227762222,-0.9292636940039694
1761476000697150000,1.28914990234375,1.0982850665390491,0.8451862115219235,-1.083345417691022
1761476000707187000,1.29918701171875,1.1962906827390194,0.8262025479800998,-1.2060186613533646
1761476000717223000,1.309222900390625,1.2294915260732173,0.8090323636010289,-1.2504358221635221
1761476000727260000,1.319260009765625,1.1496592799454928,0.7749234655112027,-1.2196336374688892
1761476000737296000,1.3292958984375,1.010061424162984,0.7168190670669078,-1.2300377617791294
1761476000747332900,1.339332763671875,0.9314701180070638,0.7306434481494128,-1.3224063950054348
1761476000757368800,1.349368896484375,0.9902858795911074,0.7985287975043058,-1.476457139032334
1761476000767406000,1.359406005859375,0.9204711696088314,0.8963967587992548,-1.6607491459354757
1761476000777442000,1.369442138671875,0.8045172242641448,0.9474187977671623,-1.7587082926452158
1761476000787479000,1.37947900390625,0.5397895985126495,0.9543405598543584,-1.8265901348687708
1761476000797515000,1.389514892578125,0.25383447581529617,0.9061435151793062,-1.8801150965683162
1761476000807551700,1.3995517578125,0.2890641946285963,0.8160302596643566,-1.8593030485555528
1761476000817588000,1.409587890625,0.19658347932994363,0.7607336121171713,-1.8792089415088296
1761476000827625000,1.419625,0.014446458503603935,0.7967934981442988,-1.9084473109528421
1761476000837661000,1.429660888671875,0.03482873679697513,0.7966245713181793,-1.92507301319167
1761476000847698000,1.439697998046875,0.15253917042016982,0.7767993423856795,-1.9237603231579063
1761476000857734000,1.44973388671875,0.251824305036664,0.7596759197577834,-1.9141306172862649
1761476000867771000,1.45977099609375,0.29801848545670506,0.7419691442839801,-1.883570059327781
1761476000877807900,1.469807861328125,0.3118319067537784,0.700894498834759,-1.837167935245484
1761476000887843800,1.47984375,0.3634808454483747,0.6531085191786289,-1.7698912193082272
1761476000897881000,1.489881103515625,0.5207867918789386,0.5958461245164275,-1.696332792752981
1761476000907917000,1.4999169921875,0.6922884369224309,0.5899643730014562,-1.6085308829203246
1761476000917954000,1.5099541015625,0.7071949141532182,0.5930125085256993,-1.493547243912518
1761476000927990000,1.519989990234375,0.7041448789328336,0.5708718422576785,-1.319334878605604
1761476000938027000,1.530027099609375,0.6321703605681658,0.5183712551698089,-1.225083427307382
1761476000948063000,1.54006298828125,0.5588216312408447,0.5139527080751956,-1.2089593179151414
1761476000958100000,1.550099853515625,0.5864730237543583,0.5964790155924856,-1.2842423763059079
1761476000968136000,1.560135986328125,0.5845072766393423,0.716896370086819,-1.3851841920882462
1761476000978173000,1.5701728515625,0.5307213259160518,0.8069451820634305,-1.4245783371046186
1761476000988209000,1.580208984375,0.4263280545055866,0.8821016914650798,-1.4062398395985365
1761476000998246000,1.590245849609375,0.38661622184216976,0.9568686170272529,-1.3969561706855893
1761476001008281900,1.60028173828125,0.36876901498436926,1.079387912236899,-1.4111556686908007
1761476001018318800,1.61031884765625,0.3420668860197067,1.180091096957773,-1.4373736674003301
1761476001028354800,1.620354736328125,0.3494002976477146,1.2384630602970719,-1.4071397110477089
1761476001038391800,1.630391845703125,0.29694354970157144,1.2878947613336145,-1.3499255394414067
1761476001048427800,1.640427734375,0.23811843576729297,1.3591310285516083,-1.3214311202324927
1761476001058465000,1.650465087890625,0.3228314396739006,1.4143981577433644,-1.3399755155742168
1761476001068501000,1.6605009765625,0.4092757974177599,1.4361254209049046,-1.3590041873015462
1761476001078538000,1.6705380859375,0.4339221628963947,1.4272276825696228,-1.3650105881094932
1761476001088574000,1.680573974609375,0.5113526085793971,1.367862178148329,-1.3535257558904588
1761476001098611000,1.69061083984375,0.6306248846918344,1.2835853737019,-1.3543233360089362
1761476001108647000,1.70064697265625,0.6866255888551474,1.213298223902285,-1.3729415272392331
1761476001118684000,1.710683837890625,0.7089923189640045,1.157697771102935,-1.3457345174923538
1761476001128720000,1.720719970703125,0.6792126822501421,1.0990217102505266,-1.291533263966441
1761476001138756900,1.7307568359375,0.6536281591385602,1.017184261780232,-1.264799132428318
1761476001148796000,1.7407958984375,0.6924012496471404,0.9371462639473378,-1.281269936366379
1761476001158833000,1.7508330078125,0.6733434979557991,0.8863745464786886,-1.3307066058389843
1761476001168868900,1.760868896484375,0.6604150427997112,0.8185010336920618,-1.3749804857209325
1761476001178905600,1.770905517578125,0.5654384190320968,0.7288797994777559,-1.426350899735093
1761476001188941800,1.78094189453125,0.3530471297174692,0.6561528553105891,-1.4534747612431644
1761476001198978600,1.790978515625,0.1932178022891283,0.6198376793481409,-1.4696264162294566
1761476001209014500,1.8010146484375,0.07368950558900833,0.6110036538988352,-1.4741246044315397
1761476001219051800,1.8110517578125,-0.15383797805905342,0.6139174955189227,-1.4105068493932484
1761476001229087700,1.821087646484375,-0.46070261779427524,0.5881000404343009,-1.3378159994527696
1761476001239124700,1.831124755859375,-0.7480068170130253,0.5727620399184524,-1.281171444427967
1761476001249160700,1.84116064453125,-0.9240829303652047,0.5938591884829103,-1.3064929326891899
1761476001259197700,1.85119775390625,-1.0192629677504301,0.638157472153753,-1.3922387867748736
1761476001269233700,1.861233642578125,-1.0879875444084406,0.7149371988430618,-1.430633837751299
1761476001279270700,1.871270751953125,-1.0595867948323487,0.7716510197117924,-1.4419462360128759
1761476001289306600,1.881306640625,-0.9193763601094483,0.830935713981837,-1.4458471889741717
1761476001299344000,1.89134375,-0.7653823147058486,0.9018075318016111,-1.406561326637864
1761476001309379800,1.9013798828125,-0.6563894405454397,0.9370911727592348,-1.3059103104956447
1761476001319416800,1.911416748046875,-0.601216419377923,0.939508901425451,-1.131010766642168
1761476001329452800,1.921452880859375,-0.5181003292739391,0.8969333498939871,-0.9499563534207641
1761476001339489800,1.93148974609375,-0.44759646798372266,0.8667445478573441,-0.80381755156219
1761476001349526500,1.941526611328125,-0.4056634521394968,0.8790941802121698,-0.6979762002352625
1761476001359562800,1.951562744140625,-0.4408323806762695,0.8773689638547599,-0.5747892348971217
1761476001369599700,1.961599853515625,-0.47498891730010506,0.8122747065231204,-0.4536312911685556
1761476001379635700,1.9716357421875,-0.5024772282063961,0.704974023233354,-0.3263466812532395
1761476001389672700,1.981672607421875,-0.49193888305723665,0.6097369949638843,-0.19029022440463303
1761476001399708700,1.991708740234375,-0.40460020682215686,0.5206963371165096,-0.04065802747234702
1761476001409745700,2.00174560546875,-0.2480985625118017,0.42701340642124413,0.08315028463453054
1761476001419781600,2.01178173828125,-0.06090542733967304,0.32757761128768326,0.23946473580971359
1761476001429819000,2.02181884765625,0.13347908064126968,0.20566431914716957,0.41326998162046075
1761476001439854800,2.031854736328125,0.2959568767517805,0.08291092292070389,0.5718810193002224
1761476001449891800,2.041891845703125,0.4274316318333149,-0.06752221513092517,0.6856055981576442
1761476001459927800,2.051927734375,0.5458300477206707,-0.19304069215655326,0.760149528618902
1761476001469964800,2.06196484375,0.6191127260744571,-0.3014117811568081,0.8529526077397167
1761476001480000800,2.072000732421875,0.626925445652008,-0.4016569929771125,0.9509379118040203
1761476001490037800,2.082037841796875,0.6554284865587949,-0.48981560729295015,1.0592493795715272
1761476001500073700,2.09207373046875,0.7028583462536334,-0.5556919549129903,1.1284789831422268
1761476001510111000,2.102111083984375,0.7630185081839561,-0.6045572542384267,1.1560270614117383
1761476001520147000,2.11214697265625,0.8419955987870693,-0.6382588867016137,1.1383403058126569
1761476001530183700,2.12218359375,0.8888456127673388,-0.7003066159442066,1.1140025678917764
1761476001540220000,2.132219970703125,0.9167021724641322,-0.7578760307289659,1.122655245424807
1761476001550256600,2.142256591796875,0.9547229833006858,-0.7927462685801089,1.1315239037960767
1761476001560292600,2.152292724609375,1.0526450128704308,-0.8293916994102298,1.14409726190418
1761476001570329600,2.16232958984375,1.1146212843120098,-0.8702532866306603,1.1494281015381216
1761476001580365600,2.172365478515625,1.16331604937613,-0.9136915924713015,1.1458990506291389
1761476001590402800,2.18240283203125,1.25194125829041,-0.951630570243299,1.1183952498927712
1761476001600438800,2.192438720703125,1.2768097420871256,-0.9549924478918314,1.08257531010136
1761476001610475800,2.202475830078125,1.3135960426926612,-0.9358920261025429,0.9983438061013817
1761476001620511700,2.21251171875,1.3605389956533909,-0.8769077760837972,0.8991368512876331
1761476001630548700,2.222548828125,1.3506950625091791,-0.8167292017139494,0.8257647410847246
1761476001640584700,2.232584716796875,1.3513041343182324,-0.7652921522043645,0.7945530257411301
1761476001650621700,2.24262158203125,1.3977128342717886,-0.7322291099056601,0.7405923029728233
1761476001660657700,2.25265771484375,1.3787439299076796,-0.7034145188316703,0.6705148504011332
1761476001670695000,2.26269482421875,1.3146043429523706,-0.6436763817057013,0.5979765606738626
1761476001680731000,2.27273095703125,1.2209253577798604,-0.6193365979582071,0.5113868031099439
1761476001690768000,2.282767822265625,1.0571201124578713,-0.5971617371596396,0.44210736904814835
1761476001700803800,2.292803955078125,0.9125620039194822,-0.5354163518644869,0.3865243057750165
1761476001710840600,2.302840576171875,0.8601064250171184,-0.4151647093258798,0.30734920838177204
1761476001720876800,2.312876708984375,0.9297142142504453,-0.21176950415447354,0.10093874704241752
1761476001730913500,2.32291357421875,0.8836012823730707,0.009340221405774354,-0.2646227771375328
1761476001740949800,2.33294970703125,0.7519459100276231,0.22826281218528746,-0.5774521704960615
1761476001750986800,2.34298681640625,0.36875557098090644,0.3988720384337008,-0.5295955367565155
1761476001761022700,2.353022705078125,-0.23592355607151982,0.36931495842933654,-0.4198539631206542
1761476001771059700,2.363059814453125,-0.6653057374507189,0.27205241568163036,-0.23949746903553604
1761476001781095700,2.373095703125,-0.7035200250327587,0.32529607622176404,0.036926293598115445
1761476001791132700,2.383132568359375,-0.938187443563342,0.03681508830860257,-0.03379910148829222
1761476001801168600,2.393168701171875,-0.40130291884243485,-0.14492109663188457,-0.11942439793422817
1761476001811206000,2.403205810546875,0.37479017497003075,0.01945303461924195,-0.26645108854323624
1761476001821241900,2.413241943359375,-0.045509120765328405,0.4606684232637286,-0.3532940902158618
1761476001831278800,2.42327880859375,-0.45918344540297984,0.4473400090046227,-0.5087348272964358
1761476001841314800,2.433314697265625,0.23644261150956153,0.3305702172324061,-0.28761472647264597
1761476001851351800,2.443351806640625,1.1509113258332013,0.3805792797654867,-0.1632391358718276
1761476001861387800,2.4533876953125,1.2355904274702072,0.3318200711630285,-0.21170374544188378
1761476001871424800,2.4634248046875,1.115844104105234,0.2985993540845811,-0.1748905568294227
1761476001881460700,2.473460693359375,1.1603215437352656,0.3828557002648711,-0.1648911408625543
1761476001891497700,2.483497802734375,1.464441853198409,0.503981349159032,-0.2397983516782522
1761476001901534000,2.493533935546875,1.65623692920804,0.5823591586947441,-0.1911298900991678
1761476001911570700,2.50357080078125,1.4352742109030485,0.6506536733724176,-0.35332024757042524
1761476001921606700,2.513606689453125,1.2153636319994925,0.7332705817826092,-0.4219005934521556
1761476001931643600,2.5236435546875,1.0937912622511385,0.7687718110136688,-0.3782534671664238
1761476001941679600,2.5336796875,0.6921446445375681,0.7579521647050976,-0.30895883553549647
1761476001951716600,2.543716552734375,0.5550713387966155,0.7535388783074914,-0.14602788883000611
1761476001961752600,2.553752685546875,0.48819443583190436,0.7704755461916327,0.09368716847896576
1761476001971789800,2.563789794921875,0.30793197670578953,0.7329071552976966,0.25188699500933287
1761476001981825800,2.57382568359375,0.16659750638902188,0.6746446436822414,0.2966187016613781
1761476001991862800,2.58386279296875,-0.029396774876117703,0.6764516931042075,0.2838445602841675
1761476002001898800,2.593898681640625,-0.1935094787120819,0.7293139531113207,0.21291122153550385
1761476002011935700,2.603935791015625,-0.5165519307881593,0.7328159698829054,0.0640045623987913
1761476002021971700,2.6139716796875,-0.723122551125288,0.6958472984477877,-0.00756254420876503
1761476002032008700,2.6240087890625,-0.8235878354370594,0.7560746803954244,-0.01526990371569991
1761476002042044700,2.634044677734375,-1.038890043762326,0.8473140173308551,0.061442895217239855
1761476002052082000,2.64408203125,-1.263375675496459,0.7691577415913343,0.14741758962273596
1761476002062118000,2.654117919921875,-1.4906015458494424,0.6873299377322196,0.24104089908525347
1761476002072155000,2.66415478515625,-1.5643085870951414,0.803707661446929,0.24003581369593738
1761476002082191600,2.674191650390625,-1.3547656729489563,1.0383023070022463,0.06616422465071081
1761476002092227600,2.6842275390625,-1.150598606622219,1.1900700546585024,-0.12689955612048506
1761476002102264600,2.6942646484375,-1.0395856248110533,1.2285884397536515,-0.21935484471693634
1761476002112300500,2.704300537109375,-1.1899544654548166,1.1355177957378326,-0.20529007900729773
1761476002122337800,2.714337890625,-1.469635914710164,0.9297766850274055,-0.04576338778734207
1761476002132373800,2.724373779296875,-1.5477566807448864,0.7525158188700676,0.20723580624759197
1761476002142410800,2.73441064453125,-1.6061650305718183,0.6408182157956064,0.4368466720409691
1761476002152444200,2.744444091796875,-1.7214216413021086,0.6360224328864366,0.5846724040731788
1761476002162481200,2.754481201171875,-1.7065911519169807,0.6568016015429049,0.6200726571477949
1761476002172517000,2.76451708984375,-1.5735972244441507,0.6291195216301828,0.5566247057184577
1761476002182554400,2.774554443359375,-1.6151964782893657,0.5530499159716069,0.46817587628439067
1761476002192590300,2.78459033203125,-1.8007950377464292,0.4412405230857432,0.3491233804024756
1761476002202627000,2.794626953125,-1.6605431019693613,0.35772805407531555,0.24008067575097083
1761476002212663300,2.804663330078125,-1.6430261499792336,0.3217318078689277,0.2798486225157976
1761476002222700000,2.814699951171875,-1.7289806783795356,0.31939817728959025,0.3459599479354918
1761476002232736000,2.824736083984375,-1.7929805646032093,0.3103783469446003,0.4506878581278026
1761476002242773000,2.83477294921875,-1.7083347807139158,0.27681166597269474,0.5582938079744577
1761476002252809000,2.84480908203125,-1.6005156265079974,0.24986367248818278,0.6179077341988682
1761476002262846200,2.85484619140625,-1.4672346987873315,0.24207594122141599,0.577498128529638
1761476002272882200,2.864882080078125,-1.3654074784725905,0.17714301193132995,0.49030178337469693
1761476002282919200,2.874919189453125,-1.2165928815335034,0.05153071914240718,0.40197935679927466
1761476002292955100,2.884955078125,-1.041055697363615,-0.06052855685129761,0.38277708207070826
1761476002302992100,2.8949921875,-0.9583733225017785,-0.1497773044914007,0.36158714065626263
1761476002313028000,2.905028076171875,-0.8121633551031351,-0.21043423696272073,0.3922111192397773
1761476002323065000,2.915065185546875,-0.718271603962779,-0.19795666737928985,0.461609503506124
1761476002333101000,2.92510107421875,-0.6083516780853271,-0.16871194125972688,0.44592970381528135
1761476002343138300,2.93513818359375,-0.4118459401667118,-0.13363200618065893,0.38565570624694223
1761476002353174300,2.94517431640625,-0.23494623547196386,-0.13416969325393438,0.37412235871106386
1761476002363211300,2.955211181640625,-0.14999766924381255,-0.16098931111842393,0.3691493926040828
1761476002373247200,2.965247314453125,-0.07660276268720627,-0.19350845579877496,0.3642852936990559
1761476002383284000,2.975283935546875,0.09120061236023902,-0.24279899479895828,0.35947146367654204
1761476002393320200,2.9853203125,0.19314064539968967,-0.268202243059501,0.34424905236437914
1761476002403357000,2.99535693359375,0.2448088733166456,-0.2842925963126123,0.31818112965002654
1761476002413394200,3.005394287109375,0.26594109319448467,-0.305464198352769,0.2702479966081679
1761476002423430100,3.01543017578125,0.26726678884029387,-0.28151443683616817,0.20158596379235386
1761476002433467100,3.025467041015625,0.31727380554676055,-0.2543418408155441,0.17888269520550965
1761476002443503000,3.035503173828125,0.3447159392237663,-0.213972128765285,0.16366218358948825
1761476002453540000,3.0455400390625,0.3748714235126972,-0.2003239079672843,0.12546835427358746
1761476002463576000,3.055576171875,0.3850958804070949,-0.2162410235453397,0.0919444164648652
1761476002473613000,3.065613037109375,0.3831096750259399,-0.22507577964700756,0.08483356154635548
1761476002483649000,3.07564892578125,0.26767244703173637,-0.22369060889892278,0.09275032602027058
1761476002493686300,3.085686279296875,0.22126082446873185,-0.21745427179262042,0.11335340745747088
1761476002503722200,3.09572216796875,0.22128771247565746,-0.20130999639518557,0.13572846700325608
1761476002513759200,3.10575927734375,0.2720131065845489,-0.20199849011600016,0.1016629696637392
1761476002523795200,3.115795166015625,0.263094471591711,-0.23073300169110297,0.0843098299331963
1761476002533832200,3.125832275390625,0.2595744807720184,-0.2633871709279716,0.0871330706603825
1761476002543868200,3.1358681640625,0.31075229482352734,-0.28157603083029387,0.10726926523819565
1761476002553905000,3.14590478515625,0.3522118479371071,-0.29886063536927104,0.12705080115944145
1761476002563941000,3.155941162109375,0.38502106160521504,-0.3367952292270958,0.1259264733046293
1761476002573978000,3.16597802734375,0.3999345530986786,-0.3720143535811454,0.14591829097568987
1761476002584014000,3.17601416015625,0.42505321226418014,-0.4042169796582311,0.18261136033982037
1761476002594051000,3.186051025390625,0.4075941279411316,-0.4265224810991436,0.1871954732596874
1761476002604087000,3.196087158203125,0.4188368219673633,-0.45660826115272934,0.1800678133368492
1761476002614124000,3.2061240234375,0.44236733515858645,-0.4947990947939455,0.17790099069178103
1761476002624160000,3.216159912109375,0.475084194368124,-0.5126585766114294,0.1720559179253876
1761476002634197200,3.226197265625,0.5282096353560686,-0.542043880245462,0.16038739970251917
1761476002644233200,3.236233154296875,0.5741600701481103,-0.5768847458716482,0.14906813330873847
1761476002654270200,3.246270263671875,0.6346481488585471,-0.6358605203229933,0.14921061051934956
1761476002664306200,3.25630615234375,0.6637374652206898,-0.7082426696404814,0.17865180905908346
1761476002674343200,3.26634326171875,0.6709837830871344,-0.7710636482778936,0.23628815160021185
1761476002684379100,3.276379150390625,0.6605144115209579,-0.8102971228398382,0.26818931051269174
1761476002694416100,3.286416015625,0.7310632809966802,-0.819189015956223,0.25965046861767765
1761476002704452000,3.2964521484375,0.6851321354269981,-0.8470265786916017,0.21631854576095938
1761476002714489300,3.3064892578125,0.779527744436264,-0.7984725372724235,0.17824995025992393
1761476002724526000,3.316526123046875,0.8180278632223605,-0.5888707325458526,0.15536299566924572
1761476002734562000,3.32656201171875,0.8456155428498983,-0.7626489442192017,0.10522650736421346
1761476002744599000,3.33659912109375,0.8574550337255,-1.0386843651223927,0.13852058193981648
1761476002754635000,3.346635009765625,0.7478980959415436,-1.1211395801648496,0.13179784955605864
1761476002764672000,3.356672119140625,0.7557564082264899,-1.1038449656885116,0.08210355206057429
1761476002774708000,3.3667080078125,0.6807119808971881,-1.0558308763649313,0.11298457414507865
1761476002784745200,3.3767451171875,0.6000643267333508,-1.0041592143818736,0.19848054512292146
1761476002794781200,3.38678125,0.5898223341822624,-0.9840325182847678,0.24279022697061298
1761476002804818200,3.396818115234375,0.5353332036256789,-0.967044339409098,0.2711829393707216
1761476002814854100,3.406854248046875,0.4294786274909973,-0.9616748482652008,0.27294965678229927
1761476002824891100,3.41689111328125,0.3338841640859842,-0.9505789422985166,0.24644129682406782
1761476002834927000,3.426927001953125,0.26878713027536866,-0.9326056248430162,0.20199556750655173
1761476002844964000,3.436964111328125,0.15293489173948763,-0.9036907882649451,0.1323477385237813
1761476002855000000,3.447,-0.056359016081690784,-0.8031509043470024,0.0005335223548114299
1761476002865037300,3.457037353515625,-0.27490006019771096,-0.5480982118483633,-0.23885303365215657
1761476002875073300,3.4670732421875,-0.5559738405942917,-0.19805179831683634,-0.4407214676477015
1761476002885110000,3.477110107421875,-0.830583977934718,-0.0012905512671917677,-0.4165459345512092
1761476002895146200,3.487146240234375,-1.0434370395421981,-0.1815652122877538,-0.20936901888400314
1761476002905183000,3.497182861328125,-1.2866472454905509,-0.530251078055799,0.012990998998284339
1761476002915219000,3.507218994140625,-1.5822902339875697,-0.6231722305983305,0.06268368905857205
1761476002925256000,3.517255859375,-1.888172876948118,-0.34210144587643443,-0.05314429181888699
1761476002935292200,3.527292236328125,-2.0803648433208464,0.08169372915066778,-0.1529097572982311
1761476002945329200,3.5373291015625,-2.117877704635262,0.3054944473605603,-0.14576689980626106
1761476002955365000,3.547365234375,-2.0317589255839583,0.24285233242139218,-0.0004682020336389541
1761476002965402000,3.557402099609375,-1.905335024151206,0.07385313518550246,0.2461886372372508
1761476002975438000,3.56743798828125,-1.7302917609781026,-0.05283540853280574,0.4957710085660219
1761476002985475000,3.57747509765625,-1.5201619868546723,0.5018168646015226,0.694559888985753
1761476002995511000,3.587510986328125,-0.8829922105640172,0.30158374019023027,0.7300991121396422
1761476003005548300,3.59754833984375,-0.21954525272250175,-0.39792474764622743,0.8502242056891322
1761476003015584300,3.607584228515625,0.1247773032695055,-0.7330262516327202,1.0020955598503352
1761476003025621200,3.617621337890625,0.34827860014140605,-0.8217568936828523,1.0930828217208386
1761476003035657200,3.6276572265625,0.47867432781457897,-0.7721151300922036,1.1351444323807953
1761476003045694200,3.637694091796875,0.5375298368871212,-0.46996487859301267,1.0755132627606392
1761476003055730200,3.647730224609375,0.5722440073937177,-0.021360293012671172,0.9039090341255068
1761476003065767200,3.65776708984375,0.6144967567116022,0.27381310521122065,0.5998275953680277
1761476003075803100,3.66780322265625,0.5865577794283628,0.3739450659153983,0.37484132063537834
1761476003085840100,3.677840087890625,0.4817594343483448,0.40154936788417395,0.20973580636978148
1761476003095876000,3.6878759765625,0.5154892699927092,0.4568179218480363,0.05639321061223745
1761476003105913000,3.6979130859375,0.48562487760484213,0.5450705345902591,-0.02984890255779028
1761476003115949000,3.707948974609375,0.3361035937011242,0.5576481304820626,-0.061009179975092406
1761476003125986000,3.717986083984375,0.12956219945847988,0.4231273587681353,0.0012827332869172095
1761476003136022000,3.72802197265625,-0.04705693472921848,0.2685401697769761,0.09707125795930624
1761476003146059000,3.73805908203125,-0.16482757410705087,0.21051037093885241,0.11214695427715778
1761476003156095200,3.74809521484375,-0.15239771612286568,0.33668241650238634,0.03068710694760084
1761476003166132200,3.75813232421875,-0.24677871208488938,0.5616070972409098,-0.10209580812305212
1761476003176168200,3.768168212890625,-0.31564766564965246,0.7263102412506938,-0.24736557206213472
1761476003186205400,3.778205322265625,-0.3460153313845396,0.7573006419938058,-0.3429980293899774
1761476003196241400,3.788241455078125,-0.37150691551566123,0.7154541353892535,-0.4064715536519885
1761476003206278400,3.7982783203125,-0.40749768182933327,0.6513792842332273,-0.4449038678988814
1761476003216314400,3.808314453125,-0.4103630081325769,0.682754300379753,-0.4746455106899142
1761476003226351400,3.818351318359375,-0.4475853620678186,0.7740612226586788,-0.5586763775512575
1761476003236387300,3.82838720703125,-0.5216746806293726,0.86359346341528,-0.6805696498170495
1761476003246424300,3.83842431640625,-0.6355103186458348,0.9113799545280635,-0.7829393064454198
1761476003256460300,3.848460205078125,-0.6690215431034564,0.9342801339264959,-0.803675805003941
1761476003266497300,3.858497314453125,-0.6097334878325462,0.9842648657359182,-0.8049363264590501
1761476003276533200,3.868533203125,-0.5749409913927316,1.0562933062449098,-0.7952151429116725
1761476003286570200,3.8785703125,-0.5278314496934413,1.0829729311168192,-0.7681921114295721
1761476003296606200,3.888606201171875,-0.5188151995450258,1.0443078310273588,-0.7372533678084612
1761476003306643200,3.898643310546875,-0.4523801951289177,0.9574036006867885,-0.7726230796143412
1761476003316679200,3.90867919921875,-0.34904958451390267,0.9063790775008499,-0.787327020010352
1761476003326716200,3.918716064453125,-0.19312720139622688,0.9103254039738327,-0.733491969448328
1761476003336752000,3.928752197265625,-0.07509352716803551,0.913256123663485,-0.6425023694902658
1761476003346789400,3.938789306640625,0.043320670810341834,0.8563361857634038,-0.5171043039739132
1761476003356825300,3.948825439453125,0.12716156805753706,0.7533689285680651,-0.385019308039546
1761476003366862300,3.9588623046875,0.20567747088968752,0.6731535283416509,-0.29688568203449245
1761476003376898300,3.968898193359375,0.26966683571934696,0.6432099332377315,-0.30530396628975864
1761476003386935300,3.978935302734375,0.227534497910738,0.6277447992108762,-0.3503632974609732
1761476003396971300,3.98897119140625,0.31955110282897947,0.6040251201231033,-0.39180633783116936
1761476003407008500,3.999008544921875,0.4371761962562799,0.5740562444474547,-0.36968306108936666
1761476003417044500,4.00904443359375,0.33688568398952484,0.5225955218013376,-0.35826457210481166
1761476003427079200,4.0190791015625,0.41014381242394443,0.4473402282003313,-0.35876229249387975
1761476003437115100,4.029115234375,0.6351549293369054,0.4123138499394059,-0.3504951071470976
1761476003447152400,4.03915234375,0.7494464944273233,0.40722222588881846,-0.3409124552875757
1761476003457188400,4.049188232421875,0.8687205241054295,0.37954496828168627,-0.3305018281713128
1761476003467225300,4.059225341796875,1.0801146190762518,0.35454803579971195,-0.3205322228208184
1761476003477261300,4.06926123046875,1.2458879496008157,0.3028106881693005,-0.26798487398177384
1761476003487298300,4.07929833984375,1.281867025476694,0.261247236289829,-0.2193538218036294
1761476003497334300,4.089334228515625,1.2658376816958188,0.19448577639833092,-0.16789704468026756
1761476003507371300,4.099371337890625,1.1351426788151264,0.15157295573651788,-0.1459029472760856
1761476003517407200,4.1094072265625,0.9158493550270795,0.1577116046220064,-0.2280868710964918
1761476003527444500,4.119444580078125,0.8732704424947499,0.21714272162541745,-0.32736776792928574
1761476003537480400,4.12948046875,0.8886258325368166,0.3082958415821194,-0.4288920597746968
1761476003547517200,4.13951708984375,0.8215437623888253,0.391654069878906,-0.4878939915806055
1761476003557553400,4.149553466796875,0.7486568053543567,0.3970218805223703,-0.4725399167127907
1761476003567590100,4.159590087890625,0.7564788772821426,0.290737680798769,-0.39332945574522016
1761476003577626000,4.169626220703125,0.793030200088024,0.16888722476139664,-0.28015198937654495
1761476003587663400,4.179663330078125,0.8222849361449479,0.08038198896497488,-0.16456731573566794
1761476003597699300,4.18969921875,0.8076946852564811,0.053963060855865476,-0.043139030633121724
1761476003607736300,4.199736328125,0.7377373519331216,0.04045344481095672,0.06752543000131846
1761476003617772300,4.209772216796875,0.68656479857862,-0.00027136428728699683,0.16087036091387272
1761476003627809300,4.219809326171875,0.6340379080057144,-0.07211787235811352,0.22051526679843664
1761476003637845200,4.22984521484375,0.38167876543998713,-0.14907134817913173,0.28631021974533793
1761476003647882200,4.23988232421875,0.259043734896183,-0.22062691047936678,0.298872764198482
1761476003657918200,4.249918212890625,0.29487025055885313,-0.29793942887112496,0.34657428044155236
1761476003667954200,4.2599541015625,0.16662030274271963,-0.38937816083617505,0.4025086413703859
1761476003677991400,4.269991455078125,0.19378537304401397,-0.5019488204181194,0.47270972032174463
1761476003688027400,4.28002734375,0.3195885122299194,-0.5997049919016659,0.6010093524985015
1761476003698064400,4.290064453125,0.3706535135567188,-0.6983060167115182,0.7145353400439024
1761476003708100400,4.300100341796875,0.41431437610685823,-0.7669044827718288,0.7642072795771062
1761476003718137300,4.310137451171875,0.5319920765042304,-0.795482853937149,0.755744279397279
1761476003728173300,4.32017333984375,0.6810054108858108,-0.8112695480685681,0.7142536004930734
1761476003738210300,4.330210205078125,0.7499363237708807,-0.804082997565344,0.650269788621366
1761476003748246300,4.340246337890625,0.7339175013840198,-0.8242754523750394,0.6051661799170076
1761476003758283300,4.350283203125,0.729521312251687,-0.8589338010411709,0.6188306942626833
1761476003768319500,4.360319580078125,0.6338976227521896,-0.8876311224110424,0.6269635857053101
1761476003778356200,4.370356201171875,0.5693640680432319,-0.9188556972362101,0.6500763118758798
1761476003788392200,4.38039208984375,0.47823827448487277,-0.9790813986834138,0.7042803418807685
1761476003798429200,4.39042919921875,0.3244225082576275,-1.0270360859699548,0.7774800181262195
1761476003808465200,4.400465087890625,0.2668085236787796,-1.0712045327160507,0.8130332698054611
1761476003818501000,4.410501220703125,0.23941022914350032,-1.0990824274618178,0.837240220953524
1761476003828538000,4.4205380859375,0.19387714298069475,-1.1155891794960946,0.8310225154824554
1761476003838574300,4.43057421875,0.14559388132691384,-1.1528160634759812,0.8455353172205388
1761476003848611300,4.440611328125,0.12032733812332153,-1.192093596375361,0.835511497464776
1761476003858647300,4.450647216796875,0.017983984979987145,-1.217798750191927,0.8084376125782727
1761476003868684300,4.460684326171875,-0.03982815251946449,-1.2041794632274656,0.7907248457551002
1761476003878720300,4.47072021484375,-0.12415595650076866,-1.215240736272186,0.7753264933541417
1761476003888757200,4.48075732421875,-0.28723697920143604,-1.2444415501847863,0.7505890885911881
1761476003898793200,4.490793212890625,-0.4466974733173847,-1.244169747506082,0.6879026230536401
1761476003908830500,4.50083056640625,-0.5070721547812224,-1.1874923861902207,0.6179039348065852
1761476003918866400,4.510866455078125,-0.5533575206160545,-1.0385805394217371,0.5789807683028281
1761476003928903400,4.5209033203125,-0.6877157221794128,-0.8462542060796171,0.47547290142476556
1761476003938939400,4.530939453125,-0.7853846537709236,-0.6591719839360565,0.351607744564116
1761476003948976400,4.540976318359375,-0.7967436676532029,-0.5483964641425758,0.2667315129198134
1761476003959012400,4.551012451171875,-0.8536568104863166,-0.5931692334573716,0.23755554118752478
1761476003969048300,4.56104833984375,-0.9614256958097219,-0.7278467301029712,0.2536491823762655
1761476003979085300,4.571085205078125,-1.0690601410984992,-0.7603723045241088,0.25624489795789124
1761476003989121300,4.581121337890625,-1.2667039431363343,-0.5755187182154506,0.17917101062759755
1761476003999158300,4.591158203125,-1.3877227706551551,-0.28224172819741067,0.04062441746369004
1761476004009194500,4.601194580078125,-1.5577940906345844,-0.0665279433965683,-0.02806114235818386
1761476004019235300,4.6112353515625,-1.6473369989156723,-0.07681757448166608,-0.02014540079757571
1761476004029272300,4.621272216796875,-1.667285561966896,-0.33297669385224576,0.1068739823102951
1761476004039308300,4.631308349609375,-1.7394950581312179,-0.7161077039271593,0.2948566604249179
1761476004049345300,4.64134521484375,-1.782451571804285,-1.0302047791339457,0.4935296593800187
1761476004059381200,4.65138134765625,-1.7294652470260858,-1.1529252229388802,0.6502122132152318
1761476004069418200,4.661418212890625,-1.6338643538802862,-1.0531959978166967,0.6617461452729999
1761476004079454200,4.6714541015625,-1.5210124662041664,-0.8548732005387544,0.5539454035066068
1761476004089491500,4.681491455078125,-1.3898936849534511,-0.6405376452885567,0.371351578823477
1761476004099527400,4.69152734375,-1.0650982517302037,-0.49071803602539,0.18470438709631562
1761476004109564400,4.701564453125,-0.773404877641797,-0.36740664058998224,0.10982961724549531
1761476004119600400,4.711600341796875,-0.5978460661619901,-0.238179445239529,0.09243585324361919
1761476004129636400,4.72163623046875,-0.42121524153649803,-0.1038684438187629,0.06495952503606676
1761476004139673300,4.73167333984375,-0.21829320683479309,0.004612681427225471,0.04312441758587956
1761476004149712400,4.74171240234375,-0.029497312641143796,0.08726685310788453,-0.041609044586867094
1761476004159749400,4.751749267578125,0.10293313573002814,0.1793738397233188,-0.125679951197654
1761476004169785300,4.761785400390625,0.17515841398537157,0.2813257093310356,-0.21065102151855825
1761476004179822000,4.771822021484375,0.18308511533141136,0.4013462465275079,-0.250023539225012
1761476004189858300,4.7818583984375,0.06475625754892826,0.4901640554044395,-0.29100261534526944
1761476004199895000,4.79189501953125,-0.06574293049871921,0.5353025162264704,-0.3333792833037674
1761476004209931000,4.801930908203125,-0.0662444502800703,0.5451244567345828,-0.34998467340692874
1761476004219968300,4.81196826171875,-0.08388122925758361,0.5271886217452585,-0.3325703050084412
1761476004230004200,4.822004150390625,-0.19007365904450416,0.5041328864589333,-0.28232714145854115
1761476004240040200,4.832040283203125,-0.2565513335585594,0.4694401240665465,-0.20035876008495687
1761476004250077200,4.8420771484375,-0.2900935376763344,0.41712841061428185,-0.16344941762164233
1761476004260113200,4.852113037109375,-0.24845687443017958,0.3991227252591401,-0.16236439886391163
1761476004270150100,4.862150146484375,-0.17116496043503285,0.40885391874387855,-0.15755392984226346
1761476004280186000,4.87218603515625,-0.15485738423466683,0.4358655520491302,-0.10873773035556078
1761476004290223400,4.882223388671875,-0.1389116270840168,0.47462432177141306,-0.061504123885184524
1761476004300259300,4.89225927734375,-0.1558949105888605,0.4857068567998707,-0.009589373861253261
1761476004310296300,4.90229638671875,-0.19954116009175776,0.515418177517876,0.04163125641867518
1761476004320332300,4.912332275390625,-0.3101455611020326,0.55472493651174,0.045228696388751266
1761476004330368300,4.9223681640625,-0.310889072945714,0.6096638566624373,0.006568418604880571
1761476004340405200,4.9324052734375,-0.28907062436938286,0.6662219024475664,-0.04990428698435426
1761476004350441200,4.942441162109375,-0.35598493673503395,0.6972868297316134,-0.07058540209382771
1761476004360478200,4.952478271484375,-0.37101883973777294,0.7012641358647496,-0.0712887280575931
1761476004370514200,4.96251416015625,-0.34230829356014725,0.7030659976549446,-0.07551715940758585
1761476004380551400,4.972551513671875,-0.32428397656977176,0.7607423799455165,-0.0848329770244658
1761476004390587400,4.98258740234375,-0.3588590308666229,0.8066158039785921,-0.0909203341141343
1761476004400624400,4.992624267578125,-0.41148938181400296,0.8365139525055885,-0.10260156568810343
1761476004410660400,5.002660400390625,-0.4882353523641824,0.8275454870216548,-0.13197057577446103
1761476004420697000,5.012697021484375,-0.5378332037478685,0.8159685926049948,-0.14271861815154552
1761476004430733300,5.0227333984375,-0.5593968007802963,0.8031086726404726,-0.12920359527915715
1761476004440770000,5.03277001953125,-0.6059224051117896,0.7837827715322375,-0.1380219847679138
1761476004450806000,5.042805908203125,-0.6645119567245245,0.7774132365003228,-0.1718222552999854
1761476004460842200,5.05284228515625,-0.5961912846922874,0.7690989971414208,-0.2258516593903303
1761476004470879200,5.062879150390625,-0.4526666108548641,0.7853289780609309,-0.29020605814009903
1761476004480915200,5.072915283203125,-0.3571381984233856,0.841773334338516,-0.3354603273615241
1761476004490952200,5.0829521484375,-0.3316881153464317,0.8801971730180084,-0.3711164548933506
1761476004500988200,5.09298828125,-0.23423078067898748,0.8726318523302674,-0.3706507370777428
1761476004511025200,5.103025146484375,-0.07712298716902732,0.8345878067485988,-0.3380952059097588
1761476004521061000,5.11306103515625,0.028616438153386114,0.8194228247120976,-0.3218364372871816
1761476004531098400,5.123098388671875,0.09472060317993164,0.8187161377474665,-0.303376797619462
1761476004541134300,5.13313427734375,0.16027064145505426,0.8131738473199307,-0.28066198472529647
1761476004551170300,5.14317041015625,0.25579613127708434,0.8197942883729934,-0.29825594747439027
1761476004561207300,5.153207275390625,0.34375030906200404,0.8304318561129271,-0.3613485095947981
1761476004571243300,5.1632431640625,0.34015257683098316,0.8745594593919813,-0.4074329460300505
1761476004581280300,5.1732802734375,0.36070027481913564,0.8913321688860655,-0.4573956852033734
1761476004591316200,5.183316162109375,0.46577509875297546,0.903136588448286,-0.49735462449565526
1761476004601353200,5.193353271484375,0.585194089859724,0.912827084596455,-0.5046839444704353
1761476004611389200,5.20338916015625,0.6292559344261884,0.9009436084486544,-0.44876814211159943
1761476004621426400,5.213426513671875,0.7168693359494209,0.8736832610793411,-0.39768779708519575
1761476004631462400,5.22346240234375,0.8261135545223951,0.8488564244672655,-0.3404508291251957
1761476004641498400,5.233498291015625,0.8770534681648016,0.8096199542306363,-0.323166370716691
1761476004651535400,5.243535400390625,0.9044552698314189,0.738619833856076,-0.3107050946809351
1761476004661571300,5.2535712890625,0.924766820976138,0.6710982032470405,-0.2784207816697657
1761476004671608300,5.2636083984375,0.9043769438982009,0.6384060400873423,-0.28967648130804297
1761476004681644300,5.273644287109375,0.8298632624447345,0.6311592838294804,-0.33905294502601024
1761476004691681000,5.283680908203125,0.8169652024269104,0.5975175648599863,-0.32812004760131236
1761476004701717200,5.29371728515625,0.7614291931658983,0.5377411415502429,-0.29041560923755166
1761476004711754200,5.303754150390625,0.6895838541388511,0.4666914829455316,-0.27564050330147144
1761476004721790200,5.313790283203125,0.6797878517895937,0.4140690230436623,-0.2370074057854712
1761476004731826400,5.323826416015625,0.7208148587048053,0.3794781866557896,-0.18577815380766988
1761476004741863200,5.33386328125,0.7304045248270035,0.34645722993314265,-0.15728168877214194
1761476004751899100,5.343899169921875,0.7295043611168861,0.28445801600739357,-0.12321736047640443
1761476004761936100,5.35393603515625,0.7830886517882346,0.21148454973325131,-0.09886179463788866
1761476004771972000,5.36397216796875,0.819731744530797,0.13396233411356806,-0.05938143264278769
1761476004782009300,5.37400927734375,0.7620125460118055,0.04242620618864894,0.0035647067442536352
1761476004792045300,5.38404541015625,0.7300216629892587,-0.055418228100240226,0.03950608095824718
1761476004802081300,5.394081298828125,0.728143009635806,-0.1328986504048109,0.06028218087479472
1761476004812118300,5.4041181640625,0.6828788035422563,-0.1828504297927022,0.028472791898995636
1761476004822154200,5.414154296875,0.6133236212790012,-0.2151832581207156,-0.0001510989084839821
1761476004832191200,5.424191162109375,0.5942541791498661,-0.23314736935645342,-0.013081453760713338
1761476004842227200,5.434227294921875,0.5878840595960617,-0.25037995144724845,-0.010749942073225974
1761476004852264200,5.44426416015625,0.6348597457826137,-0.2742497795954347,0.021903350380808113
1761476004862300200,5.454300048828125,0.6438759959310293,-0.3288710120990872,0.05182707174047827
1761476004872336100,5.464336181640625,0.6615402474373578,-0.3712982412010431,0.08305252334848046
1761476004882373400,5.474373291015625,0.7169014846533537,-0.389136241839081,0.11847791086435318
1761476004892409300,5.484409423828125,0.7331985394597053,-0.42852658746317024,0.18569822043925524
1761476004902446300,5.4944462890625,0.7313619716823101,-0.47915275898128745,0.23050942206829786
1761476004912482300,5.504482421875,0.7305664373904466,-0.529137563855946,0.26595307589322326
1761476004922519300,5.514519287109375,0.6676368107467889,-0.5335851909145712,0.28204730160385366
1761476004932555300,5.52455517578125,0.527490673431754,-0.5589591400153935,0.33893750195279715
1761476004942591200,5.53459130859375,0.42569560182094573,-0.6148274499706924,0.41131534042134876
1761476004952628200,5.544628173828125,0.31260522921383377,-0.6871257934622467,0.4562741338275373
1761476004962664400,5.55466455078125,0.19407003520429134,-0.8019850754380226,0.4735802195459604
1761476004972701200,5.564701171875,0.10096855765879154,-0.8986673340797424,0.48999330194741486
1761476004982737400,5.5747373046875,-0.1024210945546627,-0.9705072662793099,0.5210531877301633
1761476004992774100,5.584774169921875,-0.23331308131217957,-1.0480218831144272,0.5493497462794185
1761476005002810000,5.59481005859375,-0.34124913989603517,-1.0323482209034263,0.47878904023542995
1761476005012846300,5.604846435546875,-0.38953064798414705,-0.8358781388200819,0.20201032668426633
1761476005022883000,5.614883056640625,-0.4092524165421724,-0.40940249253734945,-0.12147256263568997
1761476005032919300,5.624919189453125,-0.6027215632438659,0.0773759390167892,-0.3510753912530839
1761476005042956300,5.634956298828125,-0.9147399324804544,0.4241220688939094,-0.4806783611133694
1761476005052992300,5.6449921875,-1.141892737597227,0.607651566991955,-0.5975314472548663
1761476005063028200,5.6550283203125,-1.3462614639759063,0.609782295410335,-0.557425062315911
1761476005073065200,5.665065185546875,-1.6694927166223525,0.3787206462867558,-0.35644524772316216
1761476005083101200,5.67510107421875,-2.3037702786028382,-0.07984685917496681,0.06299772344380616
1761476005093138200,5.68513818359375,-2.9854572420120236,-0.6386686365462839,0.5495061058849096
1761476005103174100,5.695174072265625,-3.106085608908534,-0.9341064578600228,0.9082432639375329
1761476005113210000,5.705210205078125,-3.00100026358068,-0.7678262007266282,1.1160936949521303
1761476005123247000,5.7152470703125,-3.0289141064226626,-0.37054639992043376,1.1228925613120198
1761476005133283000,5.725282958984375,-2.7788766848027704,-0.09770853294953703,1.0780936346426606
1761476005143320300,5.7353203125,-2.4136621474295854,-0.039362434703856704,0.9560407879009842
1761476005153352000,5.74535205078125,-2.1651433136790987,-0.19328020000085233,0.7753605417542159
1761476005163388000,5.755387939453125,-1.8311533511310816,-0.4091135925933718,0.8237966558821499
1761476005173425200,5.765425048828125,-1.6741121931165457,-0.5146877443514764,0.7191046937860548
1761476005183461000,5.775461181640625,-1.3848591979175806,-0.4691077503070235,0.47442017750144
1761476005193498000,5.785498046875,-0.9156588008910417,-0.4070781412430107,0.10177059475667774
1761476005203534000,5.7955341796875,-0.5243816015005112,0.1281736677095294,-0.33821444837525483
1761476005213571000,5.805571044921875,-0.09045885408222674,-0.10754632861390709,-0.732921183823049
1761476005223607000,5.81560693359375,0.3451514080315828,-0.549696513890475,-1.1127254606280474
1761476005233643000,5.82564306640625,0.4752572128474712,-0.5652722686849534,-1.4189181193858384
1761476005243680300,5.83568017578125,0.2613794843673706,-0.14299348957017063,-1.6132555733546614
1761476005253716200,5.84571630859375,0.2268324871212244,0.5199266679182648,-1.672312888609618
1761476005263753200,5.855753173828125,0.6663356650203466,0.9917499607942998,-1.7712345967411993
1761476005273789200,5.8657890625,0.8964145867168902,1.1260317361205816,-1.763053628373146
1761476005283825200,5.8758251953125,0.8565501938402652,1.170768995730579,-1.740277002289146
1761476005293862100,5.885862060546875,0.7330085698455572,1.2810406576551496,-1.730919537487626
1761476005303898000,5.895898193359375,0.668626990827918,1.4317190026395021,-1.7891873098000883
1761476005313934000,5.90593408203125,0.7882330289393663,1.5256503551378846,-1.9159341595768928
1761476005323971000,5.91597119140625,0.9499293192833661,1.5248098126605152,-2.0600641058310867
1761476005334007000,5.926007080078125,0.8972750029385089,1.4359445113800464,-2.147302536562085
1761476005344044300,5.936044189453125,0.7830202627271413,1.3359006673507392,-2.1494614681616424
1761476005354080300,5.946080322265625,0.8497796767920255,1.3112713991373777,-2.109786752638221
1761476005364116200,5.9561162109375,0.8992518559694289,1.3645702969960867,-2.097209010615945
1761476005374153200,5.9661533203125,0.8826543569117784,1.4748369904845953,-2.0952632833756506
1761476005384189200,5.976189208984375,0.9681173024028539,1.5595263212546706,-2.05636525131315
1761476005394226200,5.98622607421875,1.1212041698336601,1.5614463295318186,-2.0174792019493877
1761476005404262100,5.99626220703125,1.1983347557872532,1.476957928161323,-2.0063430370375515
1761476005414298000,6.006298095703125,1.2666361385971308,1.3277788818240166,-2.0070463630013164
1761476005424335400,6.01633544921875,1.2903022608667611,1.2241083717301486,-2.0614169817447663
1761476005434371300,6.026371337890625,1.1793372098505497,1.1968278583556413,-2.16313635777086
1761476005444407300,6.0364072265625,1.117615789952874,1.2961217608004807,-2.278054238066077
1761476005454444300,6.0464443359375,1.2317279068231581,1.409353003183007,-2.363033783954382
1761476005464480300,6.056480224609375,1.231739597260952,1.484788767917454,-2.348009233301878
1761476005474517000,6.06651708984375,1.094866782528162,1.4617442846775055,-2.2606953992471097
1761476005484553200,6.07655322265625,1.0124813447862864,1.3852552114978431,-2.189479590295255
1761476005494589200,6.086589111328125,1.0767869359582662,1.3332771869793534,-2.161225701843947
1761476005504626000,6.0966259765625,1.1271306372731924,1.2951508699417114,-2.1626412677302955
1761476005514662100,6.106662109375,1.1054472132533788,1.2736340346604584,-2.130874694982916
1761476005524699100,6.11669921875,1.0152835427254439,1.2339952672332524,-2.0485668525218963
1761476005534735000,6.126735107421875,0.9321259515672922,1.202764554928243,-1.9856851566731928
1761476005544771000,6.13677099609375,0.8847323322296142,1.180339957152307,-1.9580802336499095
1761476005554808000,6.14680810546875,0.8056506122082472,1.1479141898438334,-1.93147484305799
1761476005564844000,6.156843994140625,0.667463207745552,1.1307508735969662,-1.9066602814055977
1761476005574880000,6.1668798828125,0.4739776944309473,1.1174214364245534,-1.8795590701207519
1761476005584917000,6.1769169921875,0.3854711434602737,1.120949026028812,-1.8074124100595712
1761476005594953000,6.186952880859375,0.2684323254883289,1.132584226503968,-1.6833324414044617
1761476005604989000,6.196989013671875,0.15327332991361617,1.1819111519917844,-1.5743042036697268
1761476005615026200,6.207026123046875,0.07628828991055488,1.2739546449169517,-1.5402872216470538
1761476005625062100,6.217062255859375,0.21762802092432976,1.3331231654614208,-1.5385231345839798
1761476005635099100,6.22709912109375,0.27342881860136986,1.3065855794087051,-1.5257872793905436
1761476005645135000,6.237135009765625,0.18947335506379603,1.2616253246977924,-1.4595608031585812
1761476005655171000,6.247171142578125,0.19688509262502193,1.2283587226510047,-1.38444521028921
1761476005665208000,6.2572080078125,0.22740999474823473,1.2006222822025419,-1.330025930098444
1761476005675244000,6.267244140625,0.1696551403939724,1.22101040571481,-1.2556500496804714
1761476005685280000,6.277280029296875,0.07675941455364227,1.2515822157196699,-1.164610180839896
1761476005695317000,6.28731689453125,-0.014083470410108566,1.2756171713016926,-1.062283851896599
1761476005705353000,6.29735302734375,-0.1965460699290037,1.2722386347793042,-0.9941771148759871
1761476005715389000,6.307388916015625,-0.4028139079272747,1.2903981224566696,-0.9665753336578607
1761476005725426200,6.31742626953125,-0.6027431905537843,1.3306250650353728,-0.9547758094664662
1761476005735462100,6.327462158203125,-0.6410276207625866,1.348559804046154,-0.9407616779655218
1761476005745499100,6.3374990234375,-0.7572972079277038,1.3549357688188552,-0.88210592924878
1761476005755535000,6.34753515625,-0.9592688100367784,1.354392309591919,-0.8371565612580627
1761476005765571000,6.357571044921875,-1.0437193636149167,1.3404492705658078,-0.790880036316812
1761476005775608000,6.367608154296875,-1.0270745182842016,1.3513717927269637,-0.7272681264974177
1761476005785644000,6.37764404296875,-1.051454926303029,1.3442517315886915,-0.6651560267817228
1761476005795680000,6.387679931640625,-1.1503022540241479,1.300201723590493,-0.552222671367228
1761476005805717200,6.39771728515625,-1.166031738075614,1.237755788810551,-0.4601508291304111
1761476005815753200,6.407753173828125,-1.0361059660017489,1.1787119175590575,-0.4179292786683887
1761476005825789200,6.4177890625,-1.0126046789050103,1.1360191693887114,-0.40192799193821843
1761476005835826200,6.427826171875,-0.9084621673852205,1.1341089518532157,-0.40138307140655816
1761476005845862100,6.437862060546875,-0.6896691943347454,1.1394742782786489,-0.37712709348499773
1761476005855898000,6.447898193359375,-0.5068137961059809,1.1320669246315955,-0.35030513753294945
1761476005865935000,6.45793505859375,-0.31838848879039283,1.1496114952810108,-0.30849246013276277
1761476005875971000,6.46797119140625,-0.1332078624844551,1.2039825524158776,-0.2537591455567628
1761476005886007000,6.478007080078125,-0.01730827767550945,1.2230797593347726,-0.16189488165602087
1761476005896044000,6.4880439453125,0.05224164389073849,1.1355495060503482,-0.0506309938237071
1761476005906080000,6.498080078125,0.0740998399555683,0.9966885862402617,0.07028028166741132
1761476005916116200,6.5081162109375,0.0599877279728651,0.91377839397192,0.15374160501249134
1761476005926153200,6.5181533203125,0.06743453684747219,0.8793231666624546,0.21167188899889586
1761476005936189200,6.528189208984375,-0.035624855610728264,0.8371366144485771,0.22577983626313505
1761476005946225200,6.53822509765625,-0.03399754666984081,0.8067243789196014,0.26552418295666574
1761476005956262100,6.54826220703125,-0.025440146204829213,0.7806025340609252,0.30313465942665935
1761476005966298000,6.558298095703125,-0.10966098268032073,0.7520837110631168,0.37055567920543253
1761476005976334000,6.568333984375,-0.11374152999222278,0.6878631678260863,0.45620114165656267
1761476005986371000,6.57837109375,-0.07441197464466094,0.6000980828724801,0.5280493302278221
1761476005996407000,6.588406982421875,-0.10957739605009555,0.5130655499771237,0.6113945529125631
1761476006006444300,6.5984443359375,-0.17543547736108303,0.39306189085021614,0.72364796323888
1761476006016480300,6.608480224609375,-0.2789478742837906,0.25756767099425193,0.8307925061188638
1761476006026516200,6.61851611328125,-0.41547231397032736,0.16546119583547114,0.8616435714565217
1761476006036553200,6.62855322265625,-0.4777122047841549,0.11609583803340792,0.8775834103230387
1761476006046589200,6.638589111328125,-0.558282117536664,0.07787731266766786,0.9051297350268811
1761476006056625200,6.648625244140625,-0.7002917106360197,0.05927168865799903,0.8962154108829796
1761476006066662100,6.658662109375,-0.6968915468037128,0.05411269845962524,0.8080186565138399
1761476006076698000,6.668697998046875,-0.6379127036124468,0.028314094205945727,0.7803340923830866
1761476006086734000,6.678734130859375,-0.5891501340091229,0.018851415464282036,0.7721819117181002
1761476006096770000,6.68877001953125,-0.5302309120506048,0.01000906057804823,0.7914375240691006
1761476006106807300,6.698807373046875,-0.40796646838486195,-0.04235854777991772,0.7931718005158007
1761476006116843300,6.70884326171875,-0.16678279982805252,-0.05018500362187624,0.6670397216364741
1761476006126879200,6.718879150390625,0.0786667094796896,-0.039823476344347,0.526003503613919
1761476006136916200,6.728916259765625,0.2561018362253904,-0.06766629977673291,0.49323301452100277
1761476006146952200,6.7389521484375,0.3901414733588695,-0.12380217462703585,0.561985940490663
1761476006156989000,6.748989013671875,0.5146487275153399,-0.18934344507381318,0.6716070295520127
1761476006167026000,6.75902587890625,0.6341302624642848,-0.22823139413371682,0.7204431027829646
1761476006177062000,6.769061767578125,0.7111684939593076,-0.23521672297641633,0.7267170684859157
1761476006187097900,6.779097900390625,0.8498480658531189,-0.20891528376713395,0.6920186800703406
1761476006197134800,6.789134765625,0.937227074098587,-0.16260566027387977,0.6549123537302017
1761476006207170800,6.7991708984375,0.9676578681975603,-0.13155702653750775,0.6267005508549511
1761476006217206800,6.809206787109375,1.030393433573842,-0.1308070849530399,0.647056014206633
1761476006227243800,6.819243896484375,1.1250298656016589,-0.15868249548077581,0.6882966638725251
1761476006237280000,6.829280029296875,1.1966945873647927,-0.20613047535419463,0.7052698643747717
1761476006247316000,6.83931591796875,1.238742754021287,-0.2822670818343758,0.7152699379287659
1761476006257352700,6.849352783203125,1.3084551726728677,-0.34114904052242634,0.7217786622356623
1761476006267389000,6.859388916015625,1.3871885176479815,-0.39510479485467076,0.713954690611735
1761476006277425000,6.8694248046875,1.3899024527817965,-0.4623511156536638,0.7105650481734425
1761476006287461600,6.879461669921875,1.3339409115850924,-0.5258614647947252,0.7016436367016285
1761476006297497900,6.889497802734375,1.298124332794547,-0.5632904472179711,0.7122353194732218
1761476006307533800,6.899533935546875,1.3324252463251351,-0.5767831121280789,0.7325195442195981
1761476006317570600,6.909570556640625,1.212087971329689,-0.5925063125692308,0.7758470831621438
1761476006327606800,6.919606689453125,1.0400047270059585,-0.638431612920016,0.8080807619646191
1761476006337643000,6.92964306640625,0.9418009578853845,-0.7073889754205942,0.8578115920782089
1761476006347679000,6.939678955078125,0.812711636635661,-0.8062330882713198,0.8821054177921265
1761476006357716000,6.949716064453125,0.7049205394804477,-0.8604520235843955,0.8519760177925229
1761476006367752000,6.959751953125,0.6542185262471437,-0.8836050817653536,0.8285839632239193
1761476006377788000,6.969787841796875,0.583991143810749,-0.8743127911545335,0.827339004664123
1761476006387825000,6.979824951171875,0.49909693811833855,-0.9166443047970533,0.8602049900207668
1761476006397860900,6.98986083984375,0.3754448394864797,-0.9821714005880057,0.9158400026768445
1761476006407896800,6.999896728515625,0.19317922384440897,-1.033962085840851,0.9415952061802149
1761476006417933800,7.009933837890625,0.012322890478372574,-1.016033192048967,0.8254871662523597
1761476006427969800,7.0199697265625,-0.11779285120964049,-0.8500197691582143,0.5348466622177511
1761476006438005800,7.030005859375,-0.2019891377657652,-0.4914100368775427,0.18163520878404377
1761476006448041700,7.040041748046875,-0.41267420768439766,-0.09047259034663438,-0.10452851516269147
1761476006458079000,7.050078857421875,-0.6433890891969204,0.048880643025040624,-0.17371837124489248
1761476006468115000,7.060114990234375,-0.8764052333891391,-0.23411855247616767,-0.010201514410227536
1761476006478151000,7.07015087890625,-1.184534193971753,-0.8428886021040379,0.29446210814937945
1761476006488188000,7.08018798828125,-1.4512217216193675,-1.4008327198579906,0.6319589097745716
1761476006498223900,7.090223876953125,-1.5937164678871631,-1.5867852073192596,0.8400400808051228
1761476006508259800,7.100259765625,-1.5789192962497471,-1.3489721842393279,0.8904298132188617
1761476006518296800,7.110296875,-1.5187375070095062,-0.8824018434554338,0.7865425185691565
1761476006528332800,7.120332763671875,-1.3981903886556624,-0.429382181379199,0.529339589234069
1761476006538368800,7.13036865234375,-1.0824860243827104,-0.08744739730656147,0.15936718980930745
1761476006548404700,7.14040478515625,-0.8129284942567347,0.10437997353747487,-0.09174882082752883
1761476006558442000,7.15044189453125,-0.7063643085479736,0.14479527829512953,-0.17901428569592534
1761476006568478000,7.16047802734375,-0.6140466748565435,0.06402268257737159,-0.08262918336987495
1761476006578514000,7.170513916015625,-0.578453967949748,0.009377338545769453,0.04058759258463979
1761476006588551000,7.180551025390625,-0.6604401772409677,0.036662235834449525,0.10328194916769862
1761476006598587000,7.1905869140625,-0.7155407176941633,0.12572846651449798,0.10800488603636622
1761476006608622800,7.200622802734375,-0.8077297565698623,0.2504540395967662,0.06769479521885514
1761476006618659800,7.210659912109375,-0.917623963484168,0.3688479254394769,0.01519347747862339
1761476006628695800,7.22069580078125,-0.9626818333506584,0.4274596888840198,-0.035890813070535654
1761476006638731800,7.230731689453125,-0.9492997892081737,0.4088999498426914,-0.04452668559923768
1761476006648767700,7.240767822265625,-0.8937392300277948,0.359472486589849,-0.002551145787537098
1761476006658805000,7.250804931640625,-0.7717384057343005,0.33098552003502846,0.0979547627955675
1761476006668841000,7.260841064453125,-0.626229864603281,0.3278846314102411,0.20169322355911135
1761476006678877000,7.270876953125,-0.5076514159739017,0.36874826445728537,0.31944011673517525
1761476006688914000,7.280913818359375,-0.5096715236246585,0.3837739841535687,0.475236681516096
1761476006698950000,7.290949951171875,-0.536174330624938,0.382884780228883,0.5615259217634797
1761476006708985900,7.30098583984375,-0.5104039295524359,0.37311815010458227,0.5472144878163934
1761476006719021800,7.311021728515625,-0.5498626642376184,0.3908135274015367,0.49415845880284903
1761476006729058800,7.321058837890625,-0.4965121823221445,0.4390690242655575,0.3930225817531347
1761476006739094800,7.3310947265625,-0.40535248649418354,0.5314290357939898,0.2732398719005287
1761476006749130800,7.341130859375,-0.39975744296610355,0.636604835884273,0.1744457356713712
1761476006759168000,7.35116796875,-0.39682080499231814,0.7057727723956108,0.14008271669000386
1761476006769204000,7.361203857421875,-0.38139176519215107,0.7616101026907562,0.12170951319672167
1761476006779240000,7.371239990234375,-0.37214170628786086,0.8007211929820478,0.10591003264896572
1761476006789277000,7.38127685546875,-0.39638942783772946,0.8225609766073525,0.09284246128313244
1761476006799313000,7.39131298828125,-0.44507542507350445,0.8139112216837704,0.070745268830657
1761476006809348900,7.401348876953125,-0.5132926367312669,0.8130541664630174,0.07319551152698696
1761476006819384800,7.411384765625,-0.6753700353473424,0.8288447330519556,0.0509246430080384
1761476006829421800,7.421421875,-0.7973620918124914,0.8410365444965661,0.003537818737328052
1761476006839457800,7.431457763671875,-0.7528191857308149,0.8518706577219068,-0.03301569602563977
1761476006849493800,7.44149365234375,-0.7242226213216781,0.863112767226249,-0.05295987516269088
1761476006859530800,7.45153076171875,-0.7228641924500465,0.8608680570393801,-0.015978636506944893
1761476006869566700,7.461566650390625,-0.6222340729653835,0.827645732525736,0.03223462865054607
1761476006879603000,7.47160302734375,-0.438949635669589,0.7979954212799668,0.0521769080914557
1761476006889639000,7.481638916015625,-0.2366086157262325,0.8138366951428353,0.04129698296301067
1761476006899676000,7.491676025390625,-0.1041723221361637,0.8622092425152659,0.02509250181093812
1761476006909712000,7.5017119140625,0.06139174955189228,0.8875123183369636,0.004238514352589845
1761476006919747800,7.511747802734375,0.2572095052063465,0.9037265171654522,0.002416559622436762
1761476006929784800,7.521784912109375,0.3406260395616293,0.8852573790170252,0.022672873448580502
1761476006939820800,7.53182080078125,0.3456044124960899,0.8241803945027292,0.07964081520885229
1761476006949856800,7.541856689453125,0.3338689665168524,0.8009149619884789,0.122425990903005
1761476006959892700,7.551892822265625,0.3687193306237459,0.8002141202427446,0.10081694729365408
1761476006969929700,7.5619296875,0.3939361894667148,0.8136375193089246,0.047214244182780384
1761476006979965700,7.571965576171875,0.39276246951222415,0.8817176605835556,-0.031146395022422075
1761476006990001700,7.582001708984375,0.43444180285632605,0.9488258880861103,-0.07016681135557591
1761476007000039000,7.592038818359375,0.4721119005590677,0.9622354047574102,-0.07875877167731524
1761476007010075000,7.602074951171875,0.5043541279941797,0.9177877757437527,-0.04413900145590305
1761476007020110800,7.61211083984375,0.5023983177512884,0.8910846238657831,-0.012327712783962488
1761476007030146800,7.622146728515625,0.5172381594866514,0.852919436122477,-0.017677257118374107
1761476007040183800,7.632183837890625,0.454061864605546,0.81618252761662,-0.022136355419084427
1761476007050219800,7.6422197265625,0.37259471075236794,0.7919067490160465,-0.001149973752722144
1761476007060255700,7.652255859375,0.33650983641445636,0.7533405792564153,0.0010683598838746547
1761476007070291700,7.662291748046875,0.27937983596026894,0.7118716737926006,-0.0017125760715454815
1761476007080328700,7.67232861328125,0.22555647583603858,0.6897121566936373,-0.012635244363173842
1761476007090364700,7.68236474609375,0.17885902206897736,0.6648644234240054,-0.03376826795861125
1761476007100400600,7.692400634765625,0.1236444998472929,0.6264559284441172,-0.1108954929113388
1761476007110438000,7.70243798828125,0.19051088141798972,0.5502110392838716,-0.11139160586521028
1761476007120473900,7.712473876953125,0.1260965691745281,0.4505475728742778,-0.08035290900096297
1761476007130509800,7.722509765625,0.010499182182550429,0.3475703057415783,-0.06005852818675339
1761476007140545800,7.7325458984375,-0.027028292179107665,0.21737536133751273,-0.03870433612130582
1761476007150582300,7.742582275390625,-0.05381576133966445,0.09205065331831574,-0.029111674324423072
1761476007160618200,7.7526181640625,-0.09605857378542422,-0.016497984205931425,-0.03263261499218643
1761476007170654200,7.762654296875,-0.09969020828604698,-0.1003479415424168,-0.05293992835320532
1761476007180690200,7.772690185546875,-0.06100128892958164,-0.15777619429081677,-0.07142769813686609
1761476007190727400,7.7827275390625,0.04538227951526642,-0.1959215082898736,-0.11040544437207281
1761476007200763400,7.792763427734375,0.20985563335716723,-0.20518398828431963,-0.16703275600112974
1761476007210799400,7.80279931640625,0.3066074501037597,-0.2444894321039319,-0.1994739400744438
1761476007220836400,7.81283642578125,0.45828503525853154,-0.30388869266435503,-0.1885826167691499
1761476007230872300,7.822872314453125,0.6736088708937168,-0.38210546641945836,-0.15139577253870665
1761476007240908300,7.832908203125,0.7871142540425061,-0.4473898394957185,-0.07953150961548089
1761476007250944300,7.8429443359375,0.8280600124150514,-0.47939592008739706,-0.0120881318744272
1761476007260981200,7.852981201171875,0.9216647633075714,-0.5030890764944255,-0.0031024960599839685
1761476007271017200,7.863017333984375,1.0616834748506545,-0.4992432147212326,-0.021537731938809156
1761476007281053200,7.87305322265625,1.107889930230379,-0.525786207601428,-0.06435980557724832
1761476007291089400,7.88308935546875,1.1297831976085901,-0.5643906635448336,-0.07491152166463434
1761476007301126400,7.89312646484375,1.1509896517664193,-0.6381202088832855,-0.07505377967953682
1761476007311162400,7.903162353515625,1.1667974617511034,-0.6994570133775472,-0.061290188873559234
1761476007321198300,7.9131982421875,1.1464923403471707,-0.7197302783384919,0.00018872750513255595
1761476007331235300,7.9232353515625,1.06277360817492,-0.7446152748785912,0.07045388466864824
1761476007341271300,7.933271240234375,0.9665618896543979,-0.7585846173897385,0.11399937721081077
1761476007351307500,7.9433076171875,0.8672323313742876,-0.7803327772088349,0.14243877829685805
1761476007361343500,7.953343505859375,0.7502274156719446,-0.8125998468242586,0.15627594579569995
1761476007371380200,7.963380126953125,0.6856810014814138,-0.843349205353111,0.19620207879692314
1761476007381416400,7.97341650390625,0.6085369715243577,-0.8753408190280199,0.27644699737876655
1761476007391452400,7.983452392578125,0.4887333650141954,-0.947150794480741,0.35226825429946185
1761476007401488400,7.99348828125,0.3981336411565542,-1.0184059125296772,0.43368470087870953
1761476007411525400,8.003525390625,0.3445902670174837,-1.0435729408815502,0.4966723413199186
1761476007421561600,8.0135615234375,0.313580211725831,-1.024680901145935,0.5612208013370633
1761476007431593500,8.023593505859376,0.24796412247717378,-1.0238448887132108,0.5905507945872843
1761476007441629400,8.03362939453125,0.2037485486537218,-1.049656936970353,0.6461361959479749
1761476007451665400,8.04366552734375,0.17569675864577292,-1.079783341295272,0.7181168517924845
1761476007461701400,8.053701416015626,0.097675945854187,-1.1621268395915627,0.7897880032964051
1761476007471738400,8.06373828125,-0.022694646888971326,-1.2767181182809173,0.8814853131324052
1761476007481774300,8.0737744140625,-0.14819383469223976,-1.383254100808501,0.9254562645450234
1761476007491810300,8.083810302734374,-0.2542196757405996,-1.3724196953222154,0.8362078091658651
1761476007501846300,8.09384619140625,-0.2520774030148983,-1.1930110765464603,0.6295356281504034
1761476007511883300,8.10388330078125,-0.33684126032590866,-0.8425695992827414,0.4408531312033534
1761476007521919500,8.11391943359375,-0.5758370634496212,-0.6489090216621756,0.42776685513705015
1761476007531955500,8.12395556640625,-0.9433499408930539,-0.8762287077784537,0.6041267538666725
1761476007541991400,8.133991455078124,-1.1747229940533637,-1.322372200474888,0.8182743853293358
1761476007552028400,8.1440283203125,-1.3236504037171601,-1.5613836395591496,0.858875275786966
1761476007562064400,8.154064453125,-1.5197417156159876,-1.3219430152773857,0.6949054875530302
1761476007572100400,8.164100341796875,-1.645702091190219,-0.7539474591083825,0.4410568370819092
1761476007582137300,8.174137451171875,-1.7946797697365282,-0.26516704008206726,0.3533224395275116
1761476007592173300,8.18417333984375,-1.7015221780896186,-0.11094050109684467,0.42867505602315065
1761476007602209300,8.194209228515625,-1.5831787072598933,-0.28125936609655616,0.5047456115297972
1761476007612245200,8.204245361328125,-1.4890513937979937,-0.656105362907052,0.6205792914956808
1761476007622282200,8.2142822265625,-1.2569845131546258,-0.9608055180847644,0.7361528592206538
1761476007632318200,8.224318115234375,-0.8566086460292339,-1.0012254990175367,0.7715554503828287
1761476007642354400,8.2343544921875,-0.3195961110144853,-0.7020445456527173,0.7114660156011581
1761476007652390400,8.244390380859375,0.10184534049332142,-0.27443331946879623,0.6443805844523012
1761476007662427400,8.254427490234375,0.5496826314955949,0.07978095433190464,0.6043783905401826
1761476007672463400,8.26446337890625,0.9830202725023031,0.23325097586140034,0.5745344564184546
1761476007682499300,8.274499267578125,1.1123165145009755,0.28080168545693157,0.5825266242161393
1761476007692535300,8.284535400390626,1.1670780322581529,0.3212444627434015,0.5344141890846192
1761476007702572300,8.294572265625,1.2358224826604127,0.4147542288288474,0.39783217399194837
1761476007712608300,8.304608154296876,1.3160609715014695,0.5646572055265308,0.21586817164495586
1761476007722644200,8.314644287109376,1.2937871803730725,0.703975513715297,0.08292962762117385
1761476007732681200,8.32468115234375,1.2227099031090736,0.7845799132592975,-0.06247896026670932
1761476007742717200,8.33471728515625,1.1409504883110522,0.7999287274301051,-0.14128580886945127
1761476007752753200,8.344753173828124,0.9231529560387134,0.7986039085671305,-0.19441212664023041
1761476007762789400,8.354789306640624,0.6924900969743728,0.8301638528265058,-0.2448506666317582
1761476007772826400,8.364826416015624,0.5629208832532168,0.8974491904616355,-0.2955732842616737
1761476007782862300,8.3748623046875,0.4094786265134811,0.9826477859281003,-0.3384149393834173
1761476007792898300,8.384898193359374,0.1605354298710823,1.0153181756474077,-0.36583909901231526
1761476007802934500,8.3949345703125,-0.03488894255161285,0.9578992752492427,-0.3495706857785582
1761476007812971300,8.40497119140625,-0.19231003979444503,0.8992138620465994,-0.29805282611772416
1761476007823007200,8.41500732421875,-0.34036826540827747,0.8520384155042469,-0.2644073077559471
1761476007833043500,8.42504345703125,-0.5009937116503715,0.8480741880483925,-0.2653882816173136
1761476007843080200,8.435080078125,-0.6052157181471586,0.8762452205218374,-0.36853856722936035
1761476007853116200,8.4451162109375,-0.6300672508090734,0.9161508221916854,-0.5204843018010258
1761476007863152400,8.45515234375,-0.6670096187591552,0.9431012268289923,-0.6562449175082147
1761476007873188600,8.465188720703125,-0.7037094101250171,0.9606471126526593,-0.748908880419284
1761476007883225300,8.475225341796875,-0.6915612916916608,0.9934519424065947,-0.8165764953702688
1761476007893261300,8.48526123046875,-0.7125228311777114,1.0374193866878747,-0.8830275741383433
1761476007903297500,8.495297607421875,-0.6860176860898732,1.0497634660847484,-0.903412482780218
1761476007913333500,8.50533349609375,-0.5941004498928785,1.0163102554246783,-0.8515845342569053
1761476007923370200,8.515370361328126,-0.6163011757850647,0.9736237908646463,-0.8012668441660702
1761476007933406500,8.525406494140626,-0.6841863790094852,0.9272028159514069,-0.7962187669962644
1761476007943442400,8.5354423828125,-0.6000953063935041,0.8753146616734564,-0.8012313344612717
1761476007953478400,8.545478515625,-0.447086764895916,0.8509954823225736,-0.7943947664394975
1761476007963515400,8.555515380859376,-0.37910043938457966,0.8653231367520987,-0.765941117632389
1761476007973551400,8.56555126953125,-0.3517226031154394,0.8044263311102986,-0.6968630513615905
1761476007983587300,8.57558740234375,-0.29224340918660163,0.698834497565031,-0.5909715042173862
1761476007993624600,8.58562451171875,-0.1468628783494234,0.5979961421571671,-0.49530850562080736
1761476008003660500,8.59566064453125,0.002791676545143127,0.5395198416605591,-0.45560631756857034
1761476008013699300,8.60569921875,0.06298223361372947,0.507579081390053,-0.460545527536422
1761476008023735300,8.6157353515625,0.13831658380031586,0.48054333655685183,-0.49327758431509133
1761476008033772500,8.6257724609375,0.2261252156347036,0.45138621565550563,-0.4943845226436853
1761476008043808500,8.63580859375,0.28156653234958645,0.4189579641290009,-0.4720322594515979
1761476008053844500,8.645844482421875,0.32609307181835173,0.33714565009996295,-0.4348823862306773
1761476008063881500,8.655881591796875,0.3135574153721332,0.28085882247164845,-0.4019368328318
1761476008073917400,8.66591748046875,0.24106442609131334,0.23482056326568126,-0.41210444497242565
1761476008083953400,8.675953369140625,0.24166940624713895,0.17421894117817283,-0.44369975280612706
1761476008093989400,8.6859892578125,0.3416308326900005,0.13151508709192275,-0.4645845737941563
1761476008104026400,8.6960263671875,0.3969786259025335,0.11622414058819412,-0.4737165592767298
1761476008114062300,8.706062255859376,0.385244933488965,0.0832148743033409,-0.4617101874016225
1761476008124098300,8.716098388671876,0.43963703341186045,-0.016531009692698717,-0.4292493487797677
1761476008134134300,8.72613427734375,0.5284966356039047,-0.1862279434017837,-0.3490818793483078
1761476008144171500,8.736171630859374,0.5563444274723529,-0.35328590690940614,-0.24727643247395753
1761476008154207200,8.746207275390624,0.6054086103707551,-0.4469344969436526,-0.16821166358739137
1761476008164243200,8.7562431640625,0.6368722546488046,-0.4722672372512519,-0.12972118941247462
1761476008174280400,8.766280517578124,0.6236135446250438,-0.44552053849250073,-0.1340301386527717
1761476008184316400,8.77631640625,0.718965431445837,-0.4382032012164592,-0.13899375240951775
1761476008194352400,8.786352294921874,0.7283376554250717,-0.4500434227444231,-0.14453677348941563
1761476008204388400,8.796388427734374,0.6607984891593456,-0.5005991593748331,-0.11610752847120165
1761476008214425300,8.80642529296875,0.5752957961797713,-0.5616881265878677,-0.010904548113048076
1761476008224461300,8.81646142578125,0.527136453166604,-0.6384123236976563,0.0656247109465301
1761476008234497300,8.826497314453125,0.6343289999067783,-0.6624392421036959,0.06418225705325603
1761476008244533200,8.836533203125,0.8364800502359867,-0.6502461154848337,0.02833747508153319
1761476008254570200,8.8465703125,0.9197083685427904,-0.6414416083909571,0.05193330859392881
1761476008264606200,8.856606201171875,0.9690046066313981,-0.6625916561864316,0.130057143368572
1761476008274642200,8.86664208984375,1.0794868425667286,-0.7198702713310718,0.19345467978492378
1761476008284678100,8.87667822265625,1.1380150193810463,-0.7764702565617859,0.26388693714365363
1761476008294715400,8.88671533203125,1.1634124954879284,-0.8506631816282868,0.328878903144598
1761476008304751400,8.89675146484375,1.2391139254212378,-0.938351694214344,0.40569238597303625
1761476008314787300,8.906787353515625,1.2925082464784383,-1.0077031705990434,0.45145358180329204
1761476008324823300,8.9168232421875,1.265417410457134,-1.014346846397221,0.4426641261480748
1761476008334860300,8.9268603515625,1.2252794613361357,-0.9927060924753546,0.5189534389719367
1761476008344896300,8.936896240234375,1.1417179655522107,-0.9518965277031064,0.6449735819093882
1761476008354932200,8.94693212890625,1.0587801546245812,-1.0655948030754923,0.7184208031751215
1761476008364968200,8.95696826171875,0.9119178607970475,-1.0994725227579474,0.7553792454771697
1761476008375005200,8.967005126953126,0.784593211132288,-1.068487163516134,0.7286573888987302
1761476008385041200,8.977041259765626,0.7256143679410219,-0.9865436243228614,0.6136106215268373
1761476008395077000,8.9870771484375,0.7165776595264672,-0.9250273716084658,0.4888906014025211
1761476008405114400,8.9971142578125,0.5709224034011363,-0.9146031543582678,0.4902943307206034
1761476008415150300,9.007150390625,0.33625673843622206,-0.9254586026325822,0.4968937289856374
1761476008425186300,9.017186279296874,0.12935352514386175,-0.9486420559518038,0.305573723141849
1761476008435222300,9.02722216796875,0.0009749825119972228,-0.9598124153941869,0.2819907491110265
1761476008445258500,9.037258544921874,-0.11692366715967654,-0.8937405452020466,0.29163799063935875
1761476008455295200,9.047295166015624,-0.24212007262408733,-0.6973625253163278,0.21360212640911339
1761476008465331200,9.057331298828124,-0.48132864171564577,-0.3577357259251177,0.05983341419398784
1761476008475367400,9.067367431640625,-0.7383107679069042,0.001419657539576292,-0.11764935108572244
1761476008485404200,9.077404052734375,-0.9885340674877167,0.2895550468854606,-0.2943500260770321
1761476008495440100,9.087440185546875,-1.1823878295928238,0.44034985785633324,-0.44855172288194295
1761476008505476400,9.097476318359375,-1.3822031304508446,0.44870501374751326,-0.49421194255575535
1761476008515512300,9.10751220703125,-1.6611410678625105,0.2578499950669706,-0.415299587751925
1761476008525548300,9.11754833984375,-1.9272119249165056,-0.08914119561240076,-0.26219810727387666
1761476008535585300,9.127585205078125,-2.1458581829726695,-0.35182036440148945,-0.12707169781699776
1761476008545621500,9.13762158203125,-2.348206801700592,-0.35836174886897204,-0.03761909816786647
1761476008555657500,9.147657470703125,-2.4465233835458755,-0.1005335272423923,-0.019865414812415837
1761476008565693400,9.157693359375,-2.4970798508286474,0.28554931837543845,-0.048360564673691986
1761476008575730400,9.16773046875,-2.5220173082083464,0.5737389221265912,-0.09627207040563225
1761476008585766400,9.177766357421875,-2.376452652975917,0.6845743554137647,-0.1532169235512614
1761476008595802400,9.18780224609375,-2.192670787551999,0.6747400668807327,-0.22017931284233927
1761476008605838300,9.19783837890625,-1.8800375012874602,0.619803046426177,-0.29011837985664607
1761476008615875300,9.207875244140626,-1.4374930559962986,0.5427715369328856,-0.2788048125512898
1761476008625911300,9.217911376953126,-1.0524614729970694,0.5002960847750306,-0.21644056470543144
1761476008635947300,9.227947265625,-0.6785726307809352,0.5204283338300884,-0.12153393743410706
1761476008645983200,9.237983154296876,-0.2718430107146501,0.5683237652100622,-0.018141075237840414
1761476008656020500,9.2480205078125,0.09901040932834147,0.63423255379498,0.08530731653794646
1761476008666056400,9.258056396484376,0.3347773135334253,0.7397358322739601,0.1851579030174762
1761476008676092400,9.268092529296876,0.4840104281455278,0.8349936110705137,0.24619945089221
1761476008686128400,9.27812841796875,0.6250123055070639,0.909947729767859,0.30067893683761354
1761476008696165400,9.288165283203124,0.6380301925122738,0.960154506830126,0.36938561251275237
1761476008706201300,9.298201416015624,0.6312292803257703,0.9714512691311538,0.4010994321595877
1761476008716237300,9.3082373046875,0.603584902074933,0.9534170152686535,0.3980478625692427
1761476008726273300,9.318273193359374,0.5466255820125341,0.9663977851338684,0.35583559139221904
1761476008736310300,9.328310302734375,0.42981122044622894,0.9891947233535349,0.30568807023651895
1761476008746346200,9.33834619140625,0.22441022841036318,1.0232694269128144,0.26422325642593203
1761476008756382200,9.34838232421875,0.016640753677487373,1.07148780663684,0.17689605143293738
1761476008766418200,9.358418212890625,-0.1300146194010973,1.1258391361579299,0.08696575126945973
1761476008776455400,9.368455322265625,-0.27537176936268803,1.164681200249493,0.004477364609763026
1761476008786491400,9.378491455078125,-0.4998801974505186,1.1832695808634162,-0.06878310191221534
1761476008796527400,9.38852734375,-0.6498562393844127,1.2018759355254471,-0.11869053070172667
1761476008806563300,9.398563232421875,-0.6394716234922408,1.2401565663419662,-0.15733531865552067
1761476008816600300,9.408600341796875,-0.6735340520918369,1.2570586013041436,-0.14392171033099294
1761476008826636300,9.41863623046875,-0.7374801623016596,1.2172048759520053,-0.1205951952792704
1761476008836672300,9.42867236328125,-0.6717062521427869,1.1370017506852745,-0.07412351309210062
1761476008846708200,9.438708251953125,-0.5900438679784537,1.107065462104976,-0.015590660102665424
1761476008856745200,9.4487451171875,-0.5805617538839578,1.1082372823633253,0.05741480874493718
1761476008866781200,9.45878125,-0.4518997181355953,1.122678772430867,0.09842252643778919
1761476008876817200,9.468817138671875,-0.22587679383158682,1.1170474885456263,0.1382939335770905
1761476008886853000,9.47885302734375,-0.07138707386553288,1.1007409352585673,0.19128266950808465
1761476008896889000,9.48888916015625,0.02195113504528999,1.0323464673377574,0.25995471226125955
1761476008906926300,9.49892626953125,0.1453553963959217,0.9509345508031547,0.2660503257226199
1761476008916962300,9.50896240234375,0.19857436088621616,0.900151581288129,0.25101656885035334
1761476008926998300,9.518998291015626,0.23716040439009664,0.8729650298073888,0.24168365396820007
1761476008937034500,9.529034423828126,0.24855098245441912,0.868453105340898,0.20999233841411769
1761476008947071200,9.5390712890625,0.21451193473041055,0.8815488798879086,0.12005268590040505
1761476008957107200,9.549107177734374,0.22657003679275511,0.8913533578045666,0.033837387672066684
1761476008967143400,9.559143310546874,0.2842693615674972,0.865990368489176,-0.02754997796565294
1761476008977179400,9.569179443359374,0.31316403214037414,0.8244728015780448,-0.06460011713914572
1761476008987216100,9.579216064453124,0.20615560979545114,0.7456466637529432,-0.10421367705985903
1761476008997252400,9.58925244140625,0.18040099081397057,0.6655319474220276,-0.1507500219810754
1761476009007288300,9.599288330078124,0.22911679866611956,0.6247133225604892,-0.12751396169178186
1761476009017324300,9.60932421875,0.21793255682885646,0.6357518723167479,-0.11480002606920897
1761476009027361300,9.619361328125,0.23812837263941763,0.6406459279686212,-0.10953151108175516
1761476009037397500,9.6293974609375,0.24105624278485774,0.6015985505633056,-0.07625431457571685
1761476009047433500,9.63943359375,0.20942834785580633,0.5737422831274569,-0.07827193800844251
1761476009057469400,9.649469482421875,0.17739479473531244,0.581431376325339,-0.16431275645270943
1761476009067505400,9.65950537109375,0.17351415390968322,0.6040782385498285,-0.21567067631147802
1761476009077542400,9.66954248046875,0.18503274226784705,0.5931308742083609,-0.23351846769116819
1761476009087578400,9.679578369140625,0.16339491095542907,0.5263875344954431,-0.17609591403119265
1761476009097614300,9.6896142578125,0.22824936818182467,0.461892996622622,-0.11101751185581088
1761476009107650300,9.699650390625,0.33777181917428967,0.43160731008276343,-0.1133906707279384
1761476009117687300,9.709687255859375,0.43243864634037016,0.44174934939071536,-0.10529416577294469
1761476009127723300,9.71972314453125,0.2391226443737745,0.4282844492703676,-0.05090798413418233
1761476009137759200,9.72975927734375,-0.2050467717707157,0.3426441013857722,0.06646868749000132
1761476009147795200,9.739795166015625,-0.2215945864677429,0.24220891995131968,0.20401545596159992
1761476009157833000,9.7498330078125,-0.01749824728965759,0.2619970317438245,0.10401990805342792
1761476009167869000,9.759868896484376,0.08701602015197277,0.32903460516296323,-0.07807853432819246
1761476009177905000,9.76990478515625,0.01872515873610973,0.3309110665593296,-0.2416318507157266
1761476009187940900,9.77994091796875,-0.06290156959295272,0.23582462574169039,-0.37697248744517564
1761476009197977900,9.789977783203126,-0.10639116722941398,0.11538768976405263,-0.39882863768339155
1761476009208013800,9.800013916015626,-0.36120296364426613,0.049539179999008774,-0.34865123284608124
1761476009218049800,9.8100498046875,-0.5036567933797836,0.02742934726066887,-0.42357963258028025
1761476009228086000,9.8200859375,-0.1978787798374891,0.015813655203580856,-0.514971091337502
1761476009238122000,9.8301220703125,-0.13944997174441814,-0.007939195501431823,-0.5063602071195841
1761476009248159000,9.840158935546874,-0.3050976300626993,-0.016933672209456564,-0.383243822799623
1761476009258195000,9.85019482421875,-0.4046159889131784,-0.029951851475611326,-0.31356033798158167
1761476009268231000,9.86023095703125,-0.2130681656628847,-0.045714434079080817,-0.3405022670514881
1761476009278267000,9.870266845703124,-0.07578267847597599,-0.09001556729413568,-0.40568668688461185
1761476009288303900,9.880303955078125,-0.000007014262676239014,-0.15506810437589882,-0.411027755651623
1761476009298339800,9.89033984375,0.08557809630334377,-0.19583193031027912,-0.3766130064830184
1761476009308375800,9.900375732421875,0.1533510713249445,-0.19493030529543756,-0.3526603223569691
1761476009318411800,9.910411865234375,0.15760054546296595,-0.17707140799984336,-0.2676816532514989
1761476009328447700,9.92044775390625,0.16749182488024233,-0.17664865254312753,-0.15908829980269074
1761476009338484700,9.930484619140625,0.12942308324873447,-0.1588031992509961,-0.13004267645180226
1761476009348521000,9.94052099609375,0.1855143883049488,-0.13152414718121289,-0.1428961666755378
1761476009358557000,9.950556884765625,0.3592623509705066,-0.0749585026115179,-0.1306708913527429
1761476009368593000,9.960593017578125,0.4433429021924734,-0.01099456448405981,-0.1289164489008486
1761476009378630000,9.9706298828125,0.5286351672917604,-0.03037628743276,-0.17854666818417608
1761476009388665900,9.980665771484375,0.6527355942130089,-0.1015982338644564,-0.19003632270880041
1761476009398701800,9.990701904296875,0.7451859143733978,-0.16984715583473442,-0.12452785855308174
1761476009408737800,10.00073779296875,0.67237202257514,-0.18011384443566203,-0.03177636348903179
1761476009418774800,10.01077490234375,0.7268576460003853,-0.1501484758913517,0.06873641322627663
1761476009428810800,10.020810791015625,0.7535083370387554,-0.13014993621855975,0.1861517363604158
1761476009438846700,10.0308466796875,0.6929974619746208,-0.09676686818525194,0.2773560750477016
1761476009448883000,10.040883056640626,0.6678162589669228,-0.09934154097884892,0.3210568312168121
1761476009458919000,10.0509189453125,0.6314736104756593,-0.19939459122791886,0.3354226987648755
1761476009468956000,10.060955810546876,0.5656085149019956,-0.2832115230776369,0.29558102917671203
1761476009478992000,10.070991943359376,0.5636491975277662,-0.31403891527876254,0.1851606794964522
1761476009489028000,10.081028076171876,0.5204629667520523,-0.3120044868417084,0.03610460195168853
1761476009499064000,10.09106396484375,0.46477089014649386,-0.29916809388324617,-0.06426482077017426
1761476009509100800,10.101100830078124,0.359781990930438,-0.3039075434952974,-0.04459449013844132
1761476009519137000,10.111136962890624,0.16299568250477314,-0.2908262358650565,0.040226358056813474
1761476009529173000,10.121173095703124,0.06638122840225696,-0.21402911964952945,0.0731526222333312
1761476009539209000,10.131208984375,-0.019324293673038482,-0.142759680814296,0.06206321907266974
1761476009549246000,10.141245849609374,-0.27534897300899025,-0.13180252573117612,0.10372092510685324
1761476009559282000,10.151281982421875,-0.3961696476072073,-0.08771379315778613,0.1549726811774075
1761476009569318000,10.16131787109375,-0.3949386445075273,-0.023535189366340636,0.09850406724140047
1761476009579353900,10.171353759765625,-0.3253384540587663,-0.023958237084001303,-0.003344341991841793
1761476009589391000,10.18139111328125,-0.25074527762830257,-0.11545184104144572,0.01148994678556919
1761476009599427000,10.191427001953125,-0.3456184410214424,-0.1862340808816254,0.025670886220782993
1761476009609463000,10.201463134765625,-0.3662503101617098,-0.026898674450069663,-0.14494988433495162
1761476009619499000,10.2114990234375,-0.2636322317302227,0.35714740464314815,-0.5209710624046623
1761476009629535000,10.221534912109375,-0.3080202395111322,0.6948470353640616,-0.7472973535694182
1761476009639572000,10.231572021484375,-0.7066179910480975,0.751519939700514,-0.6089325467132032
1761476009649608000,10.24160791015625,-1.1412386576026678,0.5028993991412222,-0.47362508160099387
1761476009659644000,10.251643798828125,-1.1829168219029902,0.31128172552511096,-0.7048666173361241
1761476009669679900,10.261679931640625,-1.2639572747766972,0.49467751424089074,-1.0152059474445878
1761476009679716900,10.271716796875,-1.622732719013095,0.779641433943808,-1.022110320005566
1761476009689752800,10.2817529296875,-1.8820722219854593,0.8558768246233462,-0.7577003819011151
1761476009699788800,10.291788818359375,-1.9015286176055668,0.6377212726935744,-0.472324812657386
1761476009709824800,10.30182470703125,-1.6528379344195125,0.3749145320020616,-0.31715368629842994
1761476009719862000,10.311862060546876,-1.2567840221464632,0.2871658136613667,-0.2760195657469332
1761476009729898000,10.32189794921875,-0.951648982682824,0.3748046418868005,-0.27535569501072166
1761476009739934000,10.331933837890626,-0.6862216842293739,0.5338933800809085,-0.10814809389933944
1761476009749970000,10.341969970703126,-0.07923837188780307,0.7518943259708583,-0.024070465286821125
1761476009760007000,10.3520068359375,0.39082419492602344,0.8661911517582833,-0.02761018372029066
1761476009770043000,10.36204296875,0.5671832168728113,0.784021402593702,0.09234437556788325
1761476009780078800,10.372078857421876,0.7592904275715351,0.642356531278789,0.2765926894597709
1761476009790114800,10.38211474609375,0.7306161217510699,0.4921076637528836,0.4450006062716245
1761476009800150800,10.39215087890625,0.5323088873684406,0.44226869708970185,0.5888505665406585
1761476009810187800,10.402187744140624,0.507592963784933,0.5236603014886378,0.5505335492365062
1761476009820223700,10.4122236328125,0.5760130045384169,0.6652505001321435,0.3333027109362185
1761476009830259700,10.422259765625,0.5999123510420322,0.7776051058106124,0.0777021022312343
1761476009840295700,10.432295654296874,0.6827589765548706,0.8850406675264239,-0.13144172959476708
1761476009850333000,10.4423330078125,0.5304799183756113,0.931400852163136,-0.24983020860999822
1761476009860369000,10.452368896484375,0.20768530358076095,0.9097323334515094,-0.2313468958057463
1761476009870404900,10.46240478515625,0.22385376357138156,0.8982400485783815,-0.2900783401072025
1761476009880440800,10.47244091796875,0.37151042264699935,0.8793091381371021,-0.4738968842796981
1761476009890477800,10.482477783203125,0.5062210909098387,0.8451270286805928,-0.5826160560652613
1761476009900513800,10.492513671875,0.5454314037919045,0.8183595793947577,-0.6151648652315139
1761476009910549800,10.5025498046875,0.4899608609825372,0.8284395132519304,-0.5619160901248454
1761476009920586000,10.5125859375,0.5171984119981528,0.7934709295928478,-0.47451209356859325
1761476009930622700,10.522622802734375,0.4857324296325445,0.6963109704367816,-0.3923001126974821
1761476009940658700,10.53265869140625,0.42130934956073757,0.6156263452634215,-0.2804500955402851
1761476009950695000,10.54269482421875,0.4232084611803293,0.6535347817666828,-0.2879116635926068
1761476009960731000,10.55273095703125,0.4105032933861017,0.701463238633424,-0.4487650733716786
1761476009970768000,10.562767822265625,0.3602998773247003,0.7186534428872168,-0.6176217568643391
1761476009980803800,10.572803955078125,0.4122188651323318,0.7771332505151629,-0.7270349022634327
1761476009990840000,10.582840087890625,0.48815527286529536,0.8350232755564153,-0.8481367318905889
1761476010000876000,10.5928759765625,0.5499672936558723,0.8620902923107147,-0.8604160754881799
1761476010010912800,10.602912841796876,0.5567027393907308,0.8129330243013799,-0.7374713944733142
1761476010020949000,10.612948974609376,0.46395898924171924,0.7242644146367907,-0.5840538337834179
1761476010030985000,10.62298486328125,0.4093085306435823,0.6708581108808517,-0.5103763108931482
1761476010041021000,10.63302099609375,0.5182797774940728,0.7000413891367614,-0.5815921198450028
1761476010051058000,10.643057861328124,0.5793073699086905,0.693953739786148,-0.7247377312369644
1761476010061094000,10.653093994140624,0.5389332739442586,0.6342709861092269,-0.7697314498260617
1761476010071129900,10.6631298828125,0.4633925875306129,0.5295467291787267,-0.7578953199513256
1761476010081165800,10.673165771484374,0.4114285915374756,0.43900925690233705,-0.776164259352535
1761476010091203000,10.683203125,0.44988311761617655,0.4474278334185481,-0.7977288792982697
1761476010101239000,10.693239013671874,0.4701601819694042,0.4694898814924061,-0.8378862637721002
1761476010111275000,10.70327490234375,0.3974450743705034,0.42466567425131796,-0.8521804543234407
1761476010121311000,10.71331103515625,0.30449966416954993,0.3232736304834485,-0.7992682176947593
1761476010131348000,10.723347900390625,0.3181201932430267,0.2828805375576019,-0.7972248752988874
1761476010141384000,10.733384033203125,0.3033329584777355,0.2716441271416843,-0.8160318670995533
1761476010151420000,10.743419921875,0.14579787946641445,0.26680077876374125,-0.7689956828974187
1761476010161455000,10.753455078125,0.06756839236021041,0.23899448794946074,-0.7697051463410258
1761476010171492400,10.763492431640625,0.2054395704805851,0.2711928762428462,-0.8299338434629142
1761476010181528300,10.7735283203125,0.28308745830655097,0.31157603229656816,-0.8674370601661503
1761476010191564300,10.783564208984375,0.24546879853010176,0.26915844780579207,-0.8375525017730892
1761476010201600300,10.793600341796875,0.20682430283725262,0.14193842755928635,-0.7428199158944189
1761476010211637200,10.80363720703125,0.2600052734047174,0.015236439837515353,-0.6687617231234908
1761476010221673200,10.813673095703125,0.3373661609828472,-0.026033143661916256,-0.6681089583031833
1761476010231709200,10.823709228515625,0.3280757700681686,0.018336451679468155,-0.7157245498284697
1761476010241745200,10.8337451171875,0.2951724483758211,0.08972118745744227,-0.7711139902256429
1761476010251782100,10.8437822265625,0.2281307102382183,0.12765095900967716,-0.7468233063168823
1761476010261818000,10.853818115234375,0.14199907170534132,0.10280234895721077,-0.6406437360115349
1761476010271854000,10.86385400390625,0.05778700305819511,0.07748524461016058,-0.5856187450125813
1761476010281890000,10.87389013671875,-0.019732289952039718,0.018480244064331054,-0.6155746150761843
1761476010291927300,10.88392724609375,-0.04903086515069008,-0.044852264291793106,-0.6925333515942096
1761476010301963300,10.89396337890625,-0.38029403308331966,-0.07698664743825792,-0.6993064989909529
1761476010311999200,10.903999267578126,-0.4922545248776674,-0.05790493034943938,-0.6915174525499344
1761476010322035200,10.91403515625,-0.375306307798624,0.039400867018103594,-0.7830076955065131
1761476010332072200,10.924072265625,-0.40838849318921566,0.12324629430994391,-0.8276013088621199
1761476010342108200,10.934108154296876,-0.35326866351366043,0.08372282382547855,-0.8327085688732564
