time,seconds_elapsed,z,y,x
1761475986926836000,0.1208359375,0.5284498738527298,0.12042045976687223,0.2598351775348186
1761475986936872000,0.130871826171875,0.4795031798541546,0.0835185699576512,0.2875549591094255
1761475986946909000,0.140908935546875,0.44033319898247714,0.09970197178907692,0.3217752086192369
1761475986956945000,0.15094482421875,0.39462650981843467,0.17659663009494542,0.291075242190063
1761475986966982100,0.160982177734375,0.3405103042274713,0.28237105366550386,0.2265747129678726
1761475986977018000,0.17101806640625,0.3150321640998125,0.40743586863949893,0.12460983774811028
1761475986987055000,0.18105517578125,0.3429349010258913,0.43951421074979,0.11230652875304221
1761475986997092000,0.191092041015625,0.3377531144738197,0.3313683088075369,0.18461597816050052
1761475987007128000,0.201128173828125,0.2611182030826807,0.31441132878772915,0.26764409772008657
1761475987017165000,0.2111650390625,0.17132219682335853,0.3959960446059704,0.23362433921843767
1761475987027201000,0.221200927734375,0.15418927571475505,0.4536621246982366,0.12296937706470489
1761475987037238000,0.231238037109375,0.4787444704413414,0.4294643797699362,0.07722498623877763
1761475987047275000,0.24127490234375,0.716932464313507,0.39840887790136037,0.00999678561836481
1761475987057311000,0.25131103515625,0.6698059714794159,0.45838951854631305,-0.058415071828663345
1761475987067348000,0.261347900390625,0.596738397181034,0.5512433049410581,-0.049776130560040474
1761475987077384000,0.271384033203125,0.6710340519696474,0.552395251455158,0.0867597073033452
1761475987087421000,0.2814208984375,0.8471206867158413,0.4017616223953664,0.2568660985961556
1761475987097458200,0.291458251953125,0.920158450397849,0.20897614710889756,0.3632832770496607
1761475987107494100,0.301494140625,0.9021879094213247,0.0819578599795699,0.3046715136051178
1761475987117531100,0.31153125,0.993281554275751,0.09329232394248246,0.2411681787267327
1761475987127567000,0.321567138671875,1.0483873554259537,0.16141476998887955,0.2171019512236118
1761475987137608000,0.33160791015625,1.0121049126893282,0.26156601991541684,0.27745383633375165
1761475987147644000,0.341643798828125,0.9669371527075767,0.28434505715221164,0.369853010828793
1761475987157680600,0.3516806640625,0.7970973033964633,0.15881817762441933,0.3357745078772306
1761475987167717600,0.361717529296875,0.8122089478105307,-0.016642141916975377,0.29429712684601544
1761475987177753600,0.371753662109375,0.793880679437518,-0.06196363115571439,0.31821225544065235
1761475987187790800,0.381790771484375,0.5005512285798788,-0.07373948221057652,0.11849135486781597
1761475987197826800,0.391826904296875,0.49055005904734134,0.22521182711683213,0.2169727718859911
1761475987207863800,0.40186376953125,0.3806652044832706,0.3854916017264127,0.19220541037619113
1761475987217899800,0.411899658203125,0.16932956170141697,0.3209425571873784,0.3077498981371522
1761475987227936800,0.421936767578125,0.17527298027575014,0.15056757808625698,0.5853352518960834
1761475987237973800,0.431973876953125,0.32704058180153367,0.00502191981524229,0.7416501414626836
1761475987248009700,0.442009765625,0.17031097395420072,-0.001836640842631459,0.657381081931293
1761475987258047000,0.452046875,-0.07326981887221336,-0.035654300900921226,0.4253390434682369
1761475987268083000,0.4620830078125,-0.2211070952117443,-0.09761866270899772,-0.010814239481091498
1761475987278119700,0.47211962890625,-0.5306891772121191,-0.16957403798177836,-0.543699465432763
1761475987288156000,0.482156005859375,-0.5162742828905582,-0.10695523085296153,-0.7550134809046983
1761475987298192600,0.492192626953125,-0.2892331214547157,-0.02211144017353654,-0.7334542677864432
1761475987308229600,0.502229736328125,-0.5775064579665661,-0.4689714105762541,-0.4642483275771141
1761475987318265900,0.512265869140625,-0.6354436831504107,-0.8809192036822437,0.082694357560575
1761475987328302800,0.522302734375,-0.6720669021487236,-0.7348374657731502,0.5922545297652483
1761475987338338800,0.5323388671875,-0.575115763437748,-0.5419997123101726,0.5834104213133454
1761475987348375800,0.542375732421875,-0.32235213172435756,-0.5669544496182352,0.25044863276928664
1761475987358412800,0.552412841796875,-0.3671761928349733,-0.38166378706656395,0.14758096349090336
1761475987368448800,0.56244873046875,-0.17345570172071456,-0.5876551096783951,0.3057628159731626
1761475987378486000,0.572486083984375,-0.21489538109004497,-0.8193081853564829,0.20906185263097285
1761475987388522000,0.58252197265625,-0.4018377563714981,-1.0029409246332943,-0.08854834428578615
1761475987398559000,0.59255908203125,-0.7508119375616311,-1.1092608532574026,-0.17658610870093105
1761475987408595000,0.602594970703125,-0.773550423592329,-1.123932352688536,0.07125000348240136
1761475987418631700,0.612631591796875,-0.4471107302933931,-0.9857846957143396,0.45528293083310123
1761475987428668700,0.622668701171875,-0.2631248667299747,-0.7456461522962897,0.6529995058462024
1761475987438704600,0.63270458984375,-0.04563245488405227,-0.5941564909290522,0.7312997201010585
1761475987448742000,0.642741943359375,0.16961363933980464,-0.5370675166049972,0.6553451921895146
1761475987458777900,0.65277783203125,0.19598668248057363,-0.5258237266002223,0.5705158684268593
1761475987468814800,0.66281494140625,-0.33724516495168205,-0.5319216416165232,0.5948284719064831
1761475987478850800,0.672850830078125,-1.2485060231447218,-0.5059684313230216,0.7430860194846988
1761475987488887800,0.6828876953125,-1.2231821967959404,-0.4104426492400467,0.9393898050904274
1761475987498924800,0.6929248046875,-0.14687515330910683,-0.5603226834535598,0.9104895815595984
1761475987508960800,0.702960693359375,0.47486382961571216,-0.7235213411845266,0.6743643654361366
1761475987518998000,0.712998046875,0.10978490132093428,-0.7869450349554419,0.5517024468854069
1761475987529034000,0.723033935546875,-0.2288882506072521,-0.7159209491834044,0.5687056041345
1761475987539070700,0.73307080078125,-0.09652794486284255,-0.543381631655246,0.5325768906548619
1761475987549107000,0.74310693359375,-0.16689561255276203,-0.47066813149154185,0.5066936768576502
1761475987559143700,0.753143798828125,-0.5486801764547825,-0.5868833946535363,0.5155506447911262
1761475987569180700,0.7631806640625,-0.6643366001576185,-0.7867248893987387,0.5478805505096912
1761475987579216600,0.773216552734375,-0.61450084836483,-0.8725401554588228,0.600863952678442
1761475987589254000,0.78325390625,-0.6119219377875328,-0.8574746152088045,0.6137246032953262
1761475987599289900,0.793289794921875,-0.5334592264473438,-0.8409458705384284,0.6376601901561021
1761475987609326800,0.803326904296875,-0.43652153173983094,-0.8816852196186781,0.6430310695394873
1761475987619362800,0.81336279296875,-0.4087538193702698,-0.9156453568875789,0.6509238686159253
1761475987629399800,0.82339990234375,-0.4032634052604437,-0.8983155249673873,0.6434899192228913
1761475987639436800,0.833436767578125,-0.43130175126492976,-0.8173866427093743,0.6545645632058381
1761475987649472800,0.84347265625,-0.4112584956675768,-0.8088749080169946,0.6677665746062994
1761475987659510000,0.853510009765625,-0.3899462430477142,-0.8441321724243461,0.7200164018034935
1761475987669546000,0.8635458984375,-0.4433785580277443,-0.8340888442505151,0.767166567774117
1761475987679582700,0.873582763671875,-0.500879145359993,-0.7922511785395443,0.7594681222259998
1761475987689619700,0.88361962890625,-0.5205564902544021,-0.7977603704150765,0.7127849892452359
1761475987699655700,0.89365576171875,-0.5441992316484451,-0.7637870083384215,0.6450809878066182
1761475987709692700,0.903692626953125,-0.6324328108966351,-0.6997936979860067,0.566426553286612
1761475987719728600,0.913728759765625,-0.7895207306623458,-0.6146813194982708,0.423171636301279
1761475987729766000,0.923765869140625,-0.9880606047570705,-0.44552324190624054,0.2474053195506334
1761475987739801900,0.9338017578125,-1.2097072136729956,-0.3053910965839401,0.12468407202810049
1761475987749838800,0.9438388671875,-1.206414601868391,-0.3008202815370634,0.11560235542804002
1761475987759875800,0.953875732421875,-1.1979980711787939,-0.4481146831715479,0.2511681792154908
1761475987769911800,0.963911865234375,-1.2719412592679262,-0.6765795572675765,0.39919045673310755
1761475987779948800,0.97394873046875,-1.2322948930561541,-0.7663320897113531,0.4293342505842447
1761475987789984800,0.98398486328125,-1.213038988444209,-0.6160589645270258,0.32398703944981094
1761475987800021800,0.994021728515625,-1.260080141082406,-0.4227292262960225,0.16511077496260404
1761475987810058000,1.00405810546875,-1.402078043743968,-0.32298312310427424,0.05055383693426847
1761475987820094700,1.0140947265625,-1.462453894251585,-0.3665932783804834,-0.045722178994119164
1761475987830131700,1.024131591796875,-1.4630676422357558,-0.45477878070324657,-0.038193244794011115
1761475987840167700,1.034167724609375,-1.4940753594398497,-0.5311579637676477,0.06597673925459384
1761475987850204700,1.04420458984375,-1.4256114795446395,-0.6507496080275624,0.23378888213038443
1761475987860240600,1.05424072265625,-1.3400520879417657,-0.7634878792613744,0.35016894393265247
1761475987870278000,1.06427783203125,-1.2660586309701203,-0.8043992969729006,0.3882537599161267
1761475987880313900,1.07431396484375,-1.1491092448472977,-0.7935632840514183,0.37959932881742714
1761475987890350800,1.084350830078125,-1.0707646069288252,-0.7815282706037163,0.37290187700539823
1761475987900387800,1.094387939453125,-1.0418506471335887,-0.8446532006237656,0.40458588603585954
1761475987910423800,1.104423828125,-0.9560516015559435,-0.8966945727020501,0.49907414176464077
1761475987920460800,1.114460693359375,-0.9243097248584031,-0.8960254412688314,0.5622650496929884
1761475987930496800,1.124496826171875,-0.8791144923478365,-0.8640197990685701,0.5699594035878777
1761475987940533800,1.13453369140625,-0.7995780142962932,-0.7796611615575849,0.5390925561591983
1761475987950570000,1.144570068359375,-0.7080319494992494,-0.6329212520007044,0.4366246998533606
1761475987960606700,1.154606689453125,-0.7056944464623928,-0.38408852999545634,0.31123920155763624
1761475987970642700,1.164642578125,-0.8196785530388355,-0.14966134996153413,0.2125084859535098
1761475987980679700,1.1746796875,-0.8669751417428254,-0.047905879708752035,0.1683651005834341
1761475987990716700,1.184716552734375,-0.8365729892164468,-0.04269947017207742,0.10020634111464023
1761475988000752600,1.194752685546875,-0.7381196292489767,-0.01209521920233965,0.02255611520111561
1761475988010790000,1.204789794921875,-0.6935287923723459,0.04594334746412933,-0.029732582701742647
1761475988020825900,1.214825927734375,-0.6475549767047166,0.05864077034331858,0.005463526102900505
1761475988030862800,1.22486279296875,-0.5496323626130819,0.060514309130236504,0.11644669729769229
1761475988040898800,1.23489892578125,-0.45539457451403137,0.09094671066440642,0.19965923351347445
1761475988050935800,1.244935791015625,-0.3947708867251873,0.14599230605997143,0.171453714248538
1761475988060972800,1.254972900390625,-0.21810323722064492,0.19686540154386312,0.10223930824697017
1761475988071008800,1.2650087890625,-0.06761749219894408,0.20968703532461075,0.05654021786749363
1761475988081045800,1.275045654296875,0.03539163137674332,0.23837558886613697,0.03488222054988146
1761475988091082000,1.28508203125,0.11939093405604362,0.23711243706252425,-0.006059446169435978
1761475988101118700,1.29511865234375,0.16316577837467192,0.24272731780223547,-0.10428513486087322
1761475988111154700,1.30515478515625,0.19713351442813873,0.3031858781572431,-0.15546996317505835
1761475988121191700,1.315191650390625,0.16411387287974358,0.44744401736836875,-0.22420798383653162
1761475988131227600,1.3252275390625,0.16284779846668243,0.5893185859112069,-0.24449264697432516
1761475988141261600,1.335261474609375,0.12793839764893053,0.7156107141904533,-0.2479310969904065
1761475988151298600,1.345298583984375,-0.001827215427160263,0.8463545246489346,-0.26683862655609847
1761475988161334500,1.35533447265625,-0.12746259683072567,0.9411755194634198,-0.28654841241538526
1761475988171371500,1.36537158203125,-0.18925006770193575,1.0151451571680605,-0.2841939582437277
1761475988181407500,1.375407470703125,-0.2226402961283922,0.9891433584924787,-0.37493864353001116
1761475988191444700,1.38544482421875,-0.21836451850533484,1.033434554835409,-0.419706590539217
1761475988201480700,1.395480712890625,-0.18032266488075255,1.1039960645969957,-0.39814737742096185
1761475988211517700,1.405517578125,-0.10617898578345775,1.1377950930200516,-0.41796179269850253
1761475988221553700,1.4155537109375,-0.10490823519527911,1.1261154688812791,-0.3694321550682187
1761475988231590400,1.42559033203125,-0.06643734250366687,1.1466056645285339,-0.2684104059174657
1761475988241626600,1.435626708984375,0.021955226698517797,1.1512516637034713,-0.23721096553355453
1761475988251663400,1.445663330078125,-0.010158990442752838,1.187773906545341,-0.27352994088828564
1761475988261700600,1.45570068359375,0.06707447136342524,1.2098219260938465,-0.3004749386981129
1761475988271736600,1.465736572265625,0.1693582032740116,1.192067950477451,-0.30584815616905686
1761475988281773600,1.475773681640625,0.2122492504954338,1.1398251375429331,-0.22409517111182212
1761475988291809500,1.4858095703125,0.3178051359444857,1.0929369835093616,-0.1528752705067396
1761475988301846500,1.495846435546875,0.4594359588593244,1.069540764222294,-0.13139964401870965
1761475988311882500,1.505882568359375,0.5305313563019037,1.0843027184158562,-0.10465601399987935
1761475988321919500,1.51591943359375,0.5381348170429467,1.117365906845033,-0.1494526025816798
1761475988331955500,1.52595556640625,0.5664437966823578,1.1594151694800705,-0.18633125764578579
1761475988341992700,1.53599267578125,0.5875082120209932,1.2182624221809208,-0.25056962880045175
1761475988352028700,1.546028564453125,0.6048322717875242,1.2433413338579238,-0.323420053216815
1761475988362065700,1.556065673828125,0.5872720651775598,1.2144503165468572,-0.3291571355640888
1761475988372102400,1.566102294921875,0.5773521441876888,1.1217559584975243,-0.27602380353063344
1761475988382138400,1.576138427734375,0.6111024380981922,1.005824663376063,-0.2059466432198882
1761475988392175400,1.58617529296875,0.549400891944766,0.9414042867179959,-0.1788397328466177
1761475988402211600,1.596211669921875,0.5879769985765219,0.9377329777941107,-0.15140052177906035
1761475988412248600,1.60624853515625,0.6854355022877454,0.9966462814684957,-0.08097878581434488
1761475988422284500,1.616284423828125,0.6642559361368418,1.1157544530604033,-0.056118193063139914
1761475988432321500,1.626321533203125,0.5898205806165934,1.213390797556564,-0.027871465004980563
1761475988442357500,1.636357421875,0.5484855306655169,1.2413377389505504,-0.04497252967059612
1761475988452394500,1.64639453125,0.6034528001278638,1.2059957919344306,-0.06868307560384274
1761475988462430500,1.656430419921875,0.6836930425345897,1.1606146083977074,-0.08659282630383967
1761475988472467700,1.6664677734375,0.6337362947106361,1.0444918823573737,-0.06372486867457627
1761475988482503700,1.676503662109375,0.5378074847847223,0.8685807503085583,-0.053850248131155964
1761475988492540700,1.686540771484375,0.558410712352395,0.6835756266999989,-0.04284866938441992
1761475988502577700,1.69657763671875,0.6152116269826888,0.5369913460962474,0.028942309106886385
1761475988512613600,1.706613525390625,0.6112041449069976,0.4241559711635112,0.07468933028131723
1761475988522650400,1.716650390625,0.583552752393484,0.30301914328821,0.10057312860041856
1761475988532686600,1.7266865234375,0.5516150608628988,0.17419629095494746,0.12764555218219756
1761475988542723600,1.7367236328125,0.5876081652641296,0.058010363485291594,0.2031125888377428
1761475988552759600,1.746759521484375,0.5946832182168961,-0.055535205543413756,0.28559797982275487
1761475988562796500,1.756796630859375,0.4936462714970112,-0.14451573070138693,0.32384675419628617
1761475988572832500,1.76683251953125,0.43684769495427606,-0.18810791192948817,0.32478754217773675
1761475988582869500,1.776869384765625,0.3499520863115787,-0.19548326300308108,0.26565672329515216
1761475988592905500,1.786905517578125,0.20039222396314144,-0.16913491591215132,0.18101853819042443
1761475988602942500,1.7969423828125,0.16096797606945037,-0.19523462200425565,0.13068857313990592
1761475988612978400,1.806978515625,0.14371522797346115,-0.2675909062281251,0.11776479415893554
1761475988623015700,1.817015625,0.09130757986605167,-0.3628225276701152,0.13438099791705607
1761475988633051600,1.8270517578125,0.1263549278497696,-0.46753034492246803,0.1799111614704132
1761475988643088600,1.837088623046875,0.14701251595318315,-0.5626305950697511,0.2354965628311038
1761475988653125600,1.847125732421875,0.15531214226484297,-0.6114855921968817,0.2785086060836911
1761475988663161600,1.85716162109375,0.16821838558912275,-0.6015455052018165,0.3076642656803131
1761475988673198300,1.8671982421875,0.12886194223463535,-0.5772453228123485,0.3210331580802798
1761475988683234600,1.877234619140625,0.039920506978034974,-0.6018422231260687,0.34446021089702844
1761475988693271600,1.887271484375,-0.029748657053709028,-0.6523756017941981,0.3396843747973442
1761475988703307500,1.8973076171875,-0.11333061110377311,-0.7138045415513217,0.3691039460271597
1761475988713344500,1.907344482421875,-0.20065818142294883,-0.7297523445285856,0.40128859805613754
1761475988723380500,1.91738037109375,-0.2483691961467266,-0.7346548026826232,0.4217763825505972
1761475988733417500,1.92741748046875,-0.28857436528503894,-0.745189786830917,0.4777449380099773
1761475988743453400,1.937453369140625,-0.3552028464466333,-0.7619287401858716,0.49559915913045405
1761475988753490400,1.947490478515625,-0.48016544315516946,-0.7298806470833719,0.4514981515973806
1761475988763526400,1.9575263671875,-0.5496329471349716,-0.56725555145666,0.2919751136392355
1761475988773563600,1.967563720703125,-0.663442281666398,-0.3368175871893763,0.13390344353318215
1761475988783599600,1.977599609375,-0.7319172674775123,-0.3123386141669005,0.11646598652005195
1761475988793636600,1.98763671875,-0.7819576019316912,-0.5860233072254807,0.21662556588351725
1761475988803672600,1.997672607421875,-0.9240186329573392,-0.8593319335132836,0.2805702147886157
1761475988813709600,2.00770947265625,-1.1273299592375754,-0.7952344321340322,0.12557897504121066
1761475988823745500,2.01774560546875,-1.2668711163967847,-0.39383820898495614,-0.13233926295638085
1761475988833782500,2.027782470703125,-1.3700906678527593,-0.005087167071178555,-0.2529685066357255
1761475988843818800,2.03781884765625,-1.4144015187442303,0.0701930783079937,-0.16772767946273087
1761475988853855500,2.04785546875,-1.4124427858918904,-0.2105858473278582,0.06498217525929212
1761475988863891700,2.0578916015625,-1.3017092055439947,-0.6275991071298718,0.3415457847550511
1761475988873928400,2.067928466796875,-1.2003624622225761,-0.932236133943498,0.6257371126502752
1761475988883964400,2.07796435546875,-1.0956418585538863,-1.0425505390312522,0.8051420781642198
1761475988894001400,2.08800146484375,-0.9246487475544214,-0.9836310978770255,0.9040472735524177
1761475988904037400,2.098037353515625,-0.6737795512855053,-0.8499278530910611,0.9168713915511966
1761475988914074600,2.10807470703125,-0.43249300687611103,-0.7449161575213075,0.8790802978172898
1761475988924110600,2.118110595703125,-0.29905951894223687,-0.720153472186625,0.8513891578152776
1761475988934147600,2.128147705078125,-0.1977571992844343,-0.7369280813768505,0.851324860407412
1761475988944184600,2.1381845703125,-0.1251858840703964,-0.738914432888478,0.8764324136570095
1761475988954220500,2.148220458984375,-0.055714288437366484,-0.6819767401359975,0.85331486518085
1761475988964257500,2.158257568359375,-0.021993220621347426,-0.556605745289661,0.7229287821188569
1761475988974293500,2.16829345703125,0.0183779527336359,-0.38864487812556325,0.5311617631599307
1761475988984330800,2.178330810546875,0.057819151762127874,-0.20534593738038093,0.3357286229088902
1761475988994366700,2.18836669921875,-0.01837152299284935,-0.01735229948032647,0.16842501407712698
1761475989004403700,2.19840380859375,-0.07477028656303882,0.12160086519047617,0.05047025030404329
1761475989014439700,2.208439697265625,-0.09085632896721363,0.2256612148521468,-0.018887948082387446
1761475989024476400,2.218476318359375,-0.10886720195412636,0.2902924212493002,-0.08860095125585794
1761475989034512600,2.2285126953125,-0.12480068414509296,0.3834080369180068,-0.14171967024207113
1761475989044549400,2.23854931640625,0.021214052942395208,0.4698039158776402,-0.2007093270882964
1761475989054585300,2.24858544921875,0.12475333787202834,0.5068734173387289,-0.21373568966090678
1761475989064622600,2.25862255859375,0.14082476722896098,0.4772412993367761,-0.158335289478302
1761475989074658600,2.268658447265625,0.22168401831686496,0.39324886478967963,-0.07524316477179527
1761475989084695600,2.278695556640625,0.26321605214476584,0.33235724677965045,0.015578969664871692
1761475989094731500,2.2887314453125,0.2384299859344959,0.32521701963618393,0.08145634019821882
1761475989104768500,2.2987685546875,0.21047405751645565,0.3554755989734083,0.09871551803499459
1761475989114804500,2.308804443359375,0.165398067471385,0.3813230838701129,0.05794862336069345
1761475989124841500,2.318841552734375,0.12787176215350626,0.4296124099384993,-0.01874795508980751
1761475989134877400,2.32887744140625,0.1585042163044214,0.4697771009359509,-0.13616495872437953
1761475989144914400,2.33891455078125,0.16810089668929576,0.5361394054420292,-0.25403613586723806
1761475989154950400,2.348950439453125,0.1558738678008318,0.6275532221615314,-0.3454460070639849
1761475989164986400,2.358986328125,0.1306944183588028,0.7063442156080156,-0.4674909627601504
1761475989175023600,2.369023681640625,0.19374328746795652,0.7878850922845304,-0.5730407107293606
1761475989185059600,2.3790595703125,0.21463059267401693,0.8697583427205682,-0.6242544728770851
1761475989195096600,2.3890966796875,0.16605857720673084,0.9781967248033732,-0.6541799478024244
1761475989205132500,2.399132568359375,0.17952596154510975,1.0930253924451767,-0.7080144138425588
1761475989215169500,2.40916943359375,0.26886545620858665,1.187424946977198,-0.7875845019027591
1761475989225205500,2.41920556640625,0.3553261805653572,1.3016229885652661,-0.8169766006037592
1761475989235242200,2.4292421875,0.38149581008851524,1.397844351696968,-0.8136129693895577
1761475989245278500,2.439278564453125,0.48435354249477386,1.4356256546892225,-0.8539557934328913
1761475989255315500,2.4493154296875,0.6191098034650087,1.4128301777742802,-0.8853326362103223
1761475989265351400,2.459351318359375,0.6890098536431789,1.3978697783991694,-0.8909911003634333
1761475989275388400,2.469388427734375,0.7202624855190515,1.4011642898999155,-0.843489928998053
1761475989285424400,2.47942431640625,0.7904542121201753,1.402844644202292,-0.7996212689161301
1761475989295461400,2.48946142578125,0.8632949919253587,1.4024253958769142,-0.7512389308020472
1761475989305497300,2.499497314453125,0.9207371270686387,1.4162582525268197,-0.7176601940661669
1761475989315534300,2.509534423828125,0.8850444669187069,1.4419414137072861,-0.7082876778259873
1761475989325570600,2.519570556640625,0.9302326851665973,1.4578554605454206,-0.7299030050456523
1761475989335607600,2.529607666015625,1.1357371375769376,1.48555186124444,-0.7492614932492375
1761475989345643500,2.5396435546875,1.2104267601191996,1.4615087223559617,-0.7060612339481711
1761475989355680500,2.549680419921875,1.2118553316175937,1.4077110811948776,-0.6513961623027921
1761475989365716500,2.559716552734375,1.215888532656431,1.3464701382905244,-0.6165946057736873
1761475989375753500,2.56975341796875,1.2831617414623497,1.2866047215230763,-0.5730135304614902
1761475989385789400,2.57978955078125,1.2825719588756561,1.2489892766170203,-0.5396548662170767
1761475989395826700,2.58982666015625,1.2189596106648444,1.2304765915878115,-0.5043681565195322
1761475989405862700,2.599862548828125,1.120821892517805,1.235638212134689,-0.4957347682088613
1761475989415899400,2.6098994140625,0.9913421106457709,1.2812829419784246,-0.5158899597480893
1761475989425935600,2.619935546875,0.9644108491003512,1.3355341721259057,-0.5496297322645783
1761475989435972400,2.629972412109375,0.9076929365783929,1.3678779602393507,-0.5647042595386504
1761475989446008300,2.64000830078125,0.7973965786039828,1.353351568367332,-0.5408066666007042
1761475989456044500,2.65004443359375,0.6899456731885671,1.295757895924151,-0.48251112949848174
1761475989466081300,2.660081298828125,0.6327262408852576,1.1923527587682008,-0.41322248921692367
1761475989476117200,2.6701171875,0.5653811358869075,1.1006696235880256,-0.33038755414187904
1761475989486154500,2.680154541015625,0.46632396480739113,1.0114499559119343,-0.22923282626122235
1761475989496190500,2.6901904296875,0.372195482301712,0.9193293060973287,-0.14881196659058332
1761475989506227500,2.7002275390625,0.3673462887048721,0.8398561025403439,-0.08329670736789703
1761475989516263400,2.710263427734375,0.3782657421261072,0.7692865556027739,-0.012763327722251415
1761475989526300400,2.720300537109375,0.3588859188735485,0.6960299615383148,0.06258125159740448
1761475989536336400,2.73033642578125,0.36186347337961194,0.621265227933228,0.1292816289514303
1761475989546373400,2.740373291015625,0.34376492210924625,0.5386338526062667,0.15090250912904737
1761475989556409300,2.750409423828125,0.39740708044767376,0.43131190733276303,0.1602814551100135
1761475989566446600,2.760446533203125,0.4518436040341854,0.3408276265483349,0.1778779020771384
1761475989576482600,2.770482666015625,0.4423112210571766,0.2232674150507897,0.25058599541336296
1761475989586519600,2.78051953125,0.40317689602077006,0.07509864173457026,0.3155716778039932
1761475989596555500,2.790555419921875,0.4025339219421148,-0.09026844607666135,0.35370559362620113
1761475989606592500,2.800592529296875,0.43653029956817624,-0.2235112337440252,0.4150763003900647
1761475989616628500,2.81062841796875,0.40216216602027416,-0.33546098494865,0.4491974734395742
1761475989626665500,2.82066552734375,0.4052928652614355,-0.4412933492515236,0.4889741880327463
1761475989636701700,2.83070166015625,0.3872767315775156,-0.5342972847066819,0.540549476969242
1761475989646737700,2.840737548828125,0.393451036298275,-0.6166646022699773,0.5695128288641572
1761475989656774400,2.8507744140625,0.4318132079184055,-0.6986040498100221,0.5630176216259598
1761475989666810600,2.860810546875,0.3899824834048748,-0.7427244196306914,0.5659647809937596
1761475989676847400,2.870847412109375,0.3372352280795574,-0.8012959971953183,0.5944783432945608
1761475989686883300,2.88088330078125,0.28286592451035975,-0.871390985423699,0.6226908768221736
1761475989696920300,2.89092041015625,0.2368663898795843,-0.9390012441642582,0.6600257512211799
1761475989706956300,2.900956298828125,0.18864391850233078,-1.0269966307424008,0.7242220367997885
1761475989716993500,2.91099365234375,0.0981166753590107,-1.1149212171066551,0.7714327007859945
1761475989727029500,2.921029541015625,-0.011044541105628013,-1.2184290839847176,0.8448311144739389
1761475989737066500,2.93106640625,-0.12099836925268173,-1.305375326836109,0.9043030018791556
1761475989747102500,2.9411025390625,-0.25412673676013947,-1.4015157336860895,0.9577847089588641
1761475989757139500,2.951139404296875,-0.4338181180000305,-1.4741190514735876,0.9962725527852773
1761475989767175400,2.961175537109375,-0.56821139087677,-1.540437736033648,1.021999114716053
1761475989777212400,2.97121240234375,-0.6480033049941063,-1.5860770590499043,1.0263263302654027
1761475989787248400,2.981248291015625,-0.7199421675235033,-1.6338072168655693,1.0437368992716074
1761475989797285600,2.99128564453125,-0.8412380584180355,-1.700477052950859,1.0603300144150853
1761475989807321600,3.001321533203125,-0.913192703038454,-1.7814342114552855,1.0936328568190337
1761475989817357600,3.011357666015625,-0.9770663325339555,-1.8309478916868567,1.1160744057297707
1761475989827394600,3.02139453125,-1.030318614771962,-1.8382599682658909,1.1120242535561322
1761475989837430500,3.031430419921875,-1.07062549071908,-1.8362473132692276,1.0983844352602958
1761475989847467500,3.041467529296875,-1.0747048689872025,-1.8575031595267355,1.0628674239382148
1761475989857503500,3.05150341796875,-1.0787532675951719,-1.8715794695436954,1.024772378821671
1761475989867540500,3.06154052734375,-1.0705430731326342,-1.858953066074103,0.9818860077753663
1761475989877576400,3.071576416015625,-1.022819783449173,-1.8174449976436793,0.9151438371062278
1761475989887613400,3.081613525390625,-1.112274428924918,-1.66993549195379,0.7856818831518292
1761475989897649400,3.0916494140625,-1.2388047133415936,-1.349714234778285,0.566592557503283
1761475989907686400,3.101686279296875,-1.337343413504958,-1.0134095655471085,0.3926850203618407
1761475989917722400,3.111722412109375,-1.5349562358826399,-0.9354862948458641,0.36535248453915115
1761475989927759400,3.12175927734375,-1.772387858429551,-1.1051445770449935,0.40002544625252484
1761475989937795300,3.13179541015625,-1.8712094671875237,-1.1931992925949395,0.3801753751397133
1761475989947832600,3.14183251953125,-1.9564701681047676,-1.016070382254198,0.3008332506164908
1761475989957868500,3.15186865234375,-2.0573159761667252,-0.7729216972347348,0.24106705643981693
1761475989967905500,3.161905517578125,-2.068428321811557,-0.7340850399706512,0.3305754779294133
1761475989977941500,3.17194140625,-1.9863836603313683,-0.8973979717310517,0.4995499425828457
1761475989987978500,3.181978515625,-1.8988450776100159,-1.1032103210467845,0.6319260304182768
1761475989998014500,3.192014404296875,-1.8097855689316986,-1.2372159828454254,0.7806979572594165
1761475990008050400,3.202050537109375,-1.6376462105065583,-1.2753197957903146,0.8795987687334418
1761475990018087400,3.21208740234375,-1.471728503075242,-1.2854016293436288,0.931061244945228
1761475990028123400,3.222123291015625,-1.3410054431438445,-1.248023646455258,0.9502110588341951
1761475990038160600,3.23216064453125,-1.161771742543578,-1.154136425359547,0.8856266507208347
1761475990048196600,3.242196533203125,-0.9558493569821118,-1.0312132255241275,0.7817252544805408
1761475990058233600,3.252233642578125,-0.8008224613994359,-0.8719455505665391,0.6861787218704819
1761475990068269600,3.26226953125,-0.6750140615165233,-0.6626689592063426,0.5525885820701718
1761475990078306600,3.272306640625,-0.49872635124027725,-0.4412436283582821,0.39189503902792927
1761475990088342500,3.282342529296875,-0.27087562698721884,-0.218543400469888,0.27152766115516425
1761475990098379300,3.292379150390625,-0.1758078178048134,-0.012909640857763588,0.17787001103162764
1761475990108415500,3.30241552734375,-0.16834113518595695,0.17549433140885085,0.09491875610053539
1761475990118452500,3.312452392578125,-0.13921324037909508,0.3254746841916814,-0.007928454911708831
1761475990128488400,3.322488525390625,-0.1931342156589031,0.47223307925332336,-0.08674743234366178
1761475990138528500,3.332528564453125,-0.31603578818440436,0.615707959132269,-0.16833163670524953
1761475990148564500,3.342564453125,-0.3827034323126077,0.7709853954099118,-0.3051800476491451
1761475990158601500,3.3526015625,-0.41493572287559505,0.9088841921895742,-0.42204423970654603
1761475990168637400,3.362637451171875,-0.47071255515515803,1.0049081330530345,-0.49882966548427937
1761475990178674400,3.37267431640625,-0.44042496891915794,1.0640410708274692,-0.5587434514380991
1761475990188710400,3.38271044921875,-0.4032219042062759,1.107976512535289,-0.5946019696742296
1761475990198747600,3.39274755859375,-0.3149702047795057,1.1769777141775934,-0.631093671247363
1761475990208783600,3.40278369140625,-0.15050737233161926,1.2652147274918852,-0.7080322417601943
1761475990218819600,3.412819580078125,-0.031629648494720455,1.3895977707467972,-0.7985271900691091
1761475990228856600,3.422856689453125,0.021322189491987227,1.5278703692749143,-0.832682119257748
1761475990238892500,3.432892578125,0.06274199511706828,1.6422902369201182,-0.8682828633405267
1761475990248929500,3.442929443359375,0.10003098454773425,1.7343778612479566,-0.9107460405386983
1761475990258965500,3.452965576171875,0.06370587171316147,1.8242156608223914,-0.9912141003519296
1761475990269002500,3.46300244140625,0.06656126114428043,1.877462097841501,-1.090368302065134
1761475990279038700,3.473038818359375,0.08452303429245948,1.927852853168547,-1.1705613443292677
1761475990289075700,3.48307568359375,0.05297697242796421,1.961443572603166,-1.2261942380934954
1761475990299111700,3.493111572265625,0.09176759859323501,1.927289666327834,-1.2746351745270192
1761475990309148700,3.503148681640625,0.15560031155645845,1.8544585311338304,-1.3171579729579388
1761475990319184600,3.5131845703125,0.1630845298320055,1.7790983158536253,-1.3401064484775065
1761475990329221400,3.523221435546875,0.14465455465018748,1.713963141989708,-1.3746997690834104
1761475990339257600,3.533257568359375,0.1877186203509569,1.6470608123227952,-1.3798612434998154
1761475990349294600,3.543294677734375,0.2561988668590784,1.6303738814160227,-1.4125931541480123
1761475990359330600,3.55333056640625,0.25828385643959045,1.6523397756390272,-1.4801763056859374
1761475990369367600,3.563367431640625,0.23564941530525682,1.6531678970262407,-1.5810628841497003
1761475990379403500,3.573403564453125,0.2772159359246492,1.6505352104350923,-1.7028686242625117
1761475990389440500,3.5834404296875,0.39211189664900303,1.6572746016927062,-1.7910988425098358
1761475990399476500,3.5934765625,0.4278074794083833,1.6742229600146412,-1.8893167862862348
1761475990409513500,3.603513427734375,0.4502209712684154,1.6615150157414376,-2.000841809272766
1761475990419549400,3.613549560546875,0.49774318542182444,1.6017996749691665,-2.1090406104460357
1761475990429586700,3.623586669921875,0.45402796233594417,1.5823488323070107,-2.212773372121155
1761475990439622700,3.63362255859375,0.47323359806537624,1.6056952211029827,-2.312061867738515
1761475990449659600,3.64365966796875,0.533063505128026,1.6351143539413808,-2.3745488651812074
1761475990459695600,3.653695556640625,0.5615647924691438,1.6869921329557895,-2.398649871736765
1761475990469732600,3.663732666015625,0.5355740266442298,1.6885371704407035,-2.415730332005769
1761475990479768600,3.6737685546875,0.5501835667550563,1.642509871020168,-2.41727639240399
1761475990489805600,3.6838056640625,0.5849544358849526,1.591088019079715,-2.3728347547397015
1761475990499841500,3.693841552734375,0.5267962614268065,1.5122572050794958,-2.2960810392744837
1761475990509877500,3.70387744140625,0.4461199656903743,1.4280710015259683,-2.2357459591686726
1761475990519914800,3.713914794921875,0.37431262058615683,1.357621646901965,-2.211025651670992
1761475990529950700,3.72395068359375,0.3124795570075512,1.3114390107892453,-2.1940002825900913
1761475990539987500,3.733987548828125,0.230880301207304,1.2902386941112578,-2.199535412624478
1761475990550023700,3.744023681640625,0.20713643752634525,1.2758341750532387,-2.2021637153014537
1761475990560060400,3.754060302734375,0.1657119557261467,1.2734781134463846,-2.1603508187055587
1761475990570096400,3.764096435546875,0.11854103922843932,1.2368617625802754,-2.0805738098964093
1761475990580133400,3.77413330078125,0.03817512461543083,1.171150250133127,-1.9729772123999894
1761475990590169600,3.784169677734375,0.004420739051699638,1.072147731850296,-1.8514451746620237
1761475990600206600,3.79420654296875,-0.02206277872622013,1.0004447239033878,-1.760210367771238
1761475990610242600,3.80424267578125,-0.11223054090738296,0.9178886057697236,-1.6469133666761218
1761475990620279600,3.814279541015625,-0.20075287396907804,0.8097387583047151,-1.5183718885675073
1761475990630315500,3.8243154296875,-0.24004092826247214,0.7483217281810939,-1.4236346265137194
1761475990640352500,3.8343525390625,-0.3474515016674995,0.7304489484906196,-1.3724484830252826
1761475990650388500,3.844388427734375,-0.3299713745564222,0.7411658650770783,-1.4064032134667037
1761475990660425700,3.85442578125,-0.32885844487845894,0.7379496795095503,-1.422257200680673
1761475990670461700,3.864461669921875,-0.3749322137892246,0.7164439501442015,-1.3533116747483611
1761475990680498700,3.874498779296875,-0.4084551286846399,0.6484609856337309,-1.2283069924637675
1761475990690534700,3.88453466796875,-0.4499386471956968,0.5410903058476746,-1.1318694292981177
1761475990700571600,3.894571533203125,-0.4610357952713966,0.4028234064079821,-1.0733831188641487
1761475990710607600,3.904607666015625,-0.3675771748512983,0.3066634180746972,-1.0252565090768038
1761475990720644400,3.914644287109375,-0.30803251447081564,0.2547955759324133,-0.9516264055248349
1761475990730680600,3.9246806640625,-0.27682722886800765,0.2326052253037691,-0.8564528709456324
1761475990740717600,3.934717529296875,-0.1491729088574648,0.24798764948323368,-0.791171858870238
1761475990750753500,3.94475341796875,-0.018686580291390417,0.30218554200828074,-0.7419850725054741
1761475990760790500,3.95479052734375,0.011412789896130562,0.3376391327053308,-0.6704601976044475
1761475990770826500,3.964826416015625,0.059256491088867186,0.34915991302058097,-0.5758297569260001
1761475990780863500,3.974863525390625,0.1647743826150894,0.34468656699880956,-0.4658855368575081
1761475990790899500,3.9848994140625,0.26449264795184135,0.34902371942028404,-0.380456347505562
1761475990800936400,3.9949365234375,0.32764731552302834,0.36103052968680854,-0.2767859470095485
1761475990810972400,4.004972412109375,0.4111410067677498,0.38961613431051373,-0.12869878756217656
1761475990821009700,4.015009765625,0.4121288487613201,0.4257273121334612,-0.02895085773952305
1761475990831045600,4.025045654296875,0.43807168379127975,0.4642087262190878,0.05037599614933133
1761475990841082600,4.03508251953125,0.5104787483543157,0.49992432885318994,0.110969727191329
1761475990851118600,4.04511865234375,0.5289397031962871,0.5439864656805992,0.1994374439889565
1761475990861155600,4.055155517578125,0.5808054995119571,0.6204319919794797,0.24873214770760385
1761475990871191600,4.065191650390625,0.6300654972434043,0.6810626940310001,0.32585908039938655
1761475990881228500,4.075228515625,0.5969108311384916,0.7038390278540552,0.4328864997057244
1761475990891264500,4.085264404296875,0.552245175459981,0.7040151150733233,0.5342393805069848
1761475990901301500,4.095301513671875,0.528721676531434,0.7105775423288345,0.6281181625679135
1761475990911337700,4.105337646484375,0.4571884721934795,0.7650615583188831,0.7079167986869812
1761475990921374500,4.11537451171875,0.36298283279836174,0.8423926352806389,0.7814495793443172
1761475990931410400,4.125410400390625,0.2657587223649025,0.9246661370806395,0.8201002855822443
1761475990941447400,4.135447509765625,0.14423369888961315,1.0019263407632708,0.8073891264386475
1761475990951483400,4.1454833984375,0.06424187828600406,1.0599097431764006,0.7737884701319039
1761475990961520400,4.155520263671875,-0.014529460611939429,1.1612732915021478,0.7292031131479889
1761475990971556600,4.165556640625,-0.141656541877985,1.2678656803920865,0.6952968980234115
1761475990981593600,4.175593505859375,-0.24851883375048636,1.348990888939798,0.6854186242181808
1761475990991629600,4.185629638671875,-0.2673176422446966,1.4378259412124752,0.6748273067727685
1761475991001666600,4.19566650390625,-0.3145657156318426,1.5354774832777678,0.651509851810336
1761475991011702500,4.20570263671875,-0.43239071554541586,1.6614456037670373,0.64925293972902
1761475991021739500,4.215739501953125,-0.5299018262267112,1.7775582468047737,0.6199893627785146
1761475991031775500,4.225775390625,-0.6088263098597526,1.9061755666285751,0.5861481391815468
1761475991041812700,4.235812744140625,-0.6530512360334396,2.0575538765758274,0.5654980402648448
1761475991051848700,4.2458486328125,-0.7054337496995925,2.176573931492865,0.5601914582893252
1761475991061885700,4.2558857421875,-0.768436441579461,2.2471523193240164,0.5645827520508319
1761475991071921700,4.265921630859375,-0.854099878078699,2.256922602710128,0.6133220138438046
1761475991081958700,4.275958740234375,-0.9813806886017322,2.219623676407337,0.7044155856329948
1761475991091994600,4.28599462890625,-1.053096263769269,2.2079963669776914,0.7490265885148197
1761475991102031400,4.29603125,-1.0996832428991794,2.226259753420949,0.769458478103578
1761475991112067600,4.306067626953125,-1.1715718365460634,2.2878449797183276,0.7990868697784841
1761475991122104600,4.3161044921875,-1.1635358296066522,2.348187512478232,0.8155496365405619
1761475991132140500,4.326140625,-1.1416308717906474,2.4366782813578842,0.8028205764140933
1761475991142174000,4.336174072265625,-1.1951128711313008,2.4990499818578362,0.7256716510862111
1761475991152210000,4.3462099609375,-1.2768003897368907,2.548357325862348,0.6570365062773227
1761475991162247000,4.356246826171875,-1.3344570444136856,2.5607778314962983,0.5353972453052178
1761475991172283000,4.366282958984375,-1.4606933143198488,2.5213828096970916,0.4184767564833164
1761475991182320000,4.376320068359375,-1.5932804145574568,2.4133500127404925,0.2951374683939852
1761475991192356000,4.386356201171875,-1.672337584659457,2.2898738551974294,0.1994925169107504
1761475991202393000,4.39639306640625,-1.7665134134382008,2.226369935797155,0.19168091157805173
1761475991212429000,4.406428955078125,-1.8873440249085425,2.1686022219613195,0.24485779049228876
1761475991222466000,4.416466064453125,-1.9347072491079569,2.0930688420712946,0.32601218860186637
1761475991232502000,4.426501953125,-1.917994599238038,1.9545286786481737,0.38624581762719895
1761475991242539300,4.436539306640625,-1.863845660421252,1.7570412362158296,0.5045389830417931
1761475991252575200,4.4465751953125,-1.806550824794173,1.488446413642168,0.7082539947520942
1761475991262612200,4.4566123046875,-1.7023679812639951,1.1742138754874467,0.9720028385993092
1761475991272648200,4.466648193359375,-1.4169137938261032,0.8652598622575401,1.2135691497981547
1761475991282685000,4.476684814453125,-1.0792097791910171,0.5872983686625957,1.3582185898818075
1761475991292721200,4.48672119140625,-0.7764327010303735,0.3689002401486039,1.4229241401568054
1761475991302758000,4.4967578125,-0.3612830431431532,0.17169556018039583,1.5073466366842387
1761475991312793900,4.5067939453125,0.0313444018125534,-0.013881664227694272,1.5217532015688717
1761475991322831000,4.5168310546875,0.48884968487024305,-0.18665347533747553,1.4976041180878876
1761475991332867000,4.5268671875,0.921212343364954,-0.27629414490461346,1.4637138311848044
1761475991342904000,4.536904052734375,1.1996546062141655,-0.4176959813691675,1.4466732645347713
1761475991352940000,4.54693994140625,1.2981354387104511,-0.5959121754899621,1.4915193913467228
1761475991362977000,4.55697705078125,1.1820581592470407,-0.787833362097293,1.7168337289899587
1761475991373013000,4.567012939453125,1.120107606768608,-1.0251499799624084,1.8506627921126781
1761475991383050000,4.577050048828125,1.078296171477437,-1.2745784759037195,1.7038719560861586
1761475991393086000,4.5870859375,0.8135311363250016,-1.505974617678672,1.3384148421287536
1761475991403123200,4.597123291015625,0.4852613049894571,-1.7581788619436323,0.9614123248714953
1761475991413159200,4.6071591796875,0.13793664457201957,-1.5224794700168072,0.6827486012913286
1761475991423196200,4.617196044921875,-0.07755261075794696,-1.1373331745967268,0.36576493779756125
1761475991433232100,4.627232177734375,0.1490203486442566,-1.7545254540026187,0.03762314415532164
1761475991443268000,4.63726806640625,0.34228549720644946,-2.0660732831180093,-0.1824960633970797
1761475991453305000,4.64730517578125,0.2585328627645969,-2.1254021087907256,-0.42471572393812235
1761475991463341800,4.657341796875,-0.1405278301090002,-1.8909787281490862,-0.558740638426505
1761475991473378000,4.6673779296875,-0.39518706631064415,-1.4988386283189057,-0.6282805865880101
1761475991483415000,4.6774150390625,-0.4711404251784086,-1.3325982648044823,-0.6572877045594155
1761475991493451000,4.687450927734375,-0.5291168133288622,-1.400863699518144,-0.631349399574101
1761475991503487200,4.6974873046875,-0.4013537722468376,-1.4896369386009871,-0.6430980703610927
1761475991513524000,4.70752392578125,-0.3875321676433086,-1.5223013369709253,-0.6984884606063365
1761475991523560000,4.717559814453125,-0.37668168780505656,-1.4358843056254087,-0.8137276818104088
1761475991533597000,4.727596923828125,-0.27639000649452206,-1.3009445047818124,-1.045640540935844
1761475991543633000,4.7376328125,-0.11589958480894565,-1.1800662547774612,-1.338111036876589
1761475991553670100,4.747670166015625,0.04652618885338306,-1.068007563305646,-1.5800981307707727
1761475991563706000,4.7577060546875,0.07538169645965098,-1.0218334027603269,-1.6805733519546686
1761475991573743000,4.7677431640625,0.08908639668524265,-1.069156441079825,-1.5679272159837185
1761475991583779000,4.777779052734375,0.10517243908941745,-1.168369094981998,-1.3969590932950378
1761475991593816000,4.787816162109375,0.028373277047276494,-1.2927945160739123,-1.3120206100694833
1761475991603852000,4.79785205078125,-0.02611702255308628,-1.3566091088585555,-1.2591753011971711
1761475991613889000,4.807888916015625,-0.09847264918982981,-1.311125268664956,-1.2004117081917822
1761475991623925000,4.817925048828125,0.07033493446409701,-1.1707581820756197,-1.2291394977651535
1761475991633962200,4.827962158203125,0.3698509650021791,-0.9924839741572737,-1.355813574566692
1761475991643998200,4.837998291015625,0.5272025041401386,-0.83856270172894,-1.477806653945148
1761475991654035200,4.84803515625,0.4941869542449712,-0.7722050003327429,-1.5191525175511835
1761475991664071200,4.8580712890625,0.4375000213831663,-0.8344887302882968,-1.542454044292122
1761475991674108000,4.86810791015625,0.5413567016988993,-0.9235969004139304,-1.5541417056068778
1761475991684144000,4.87814404296875,0.6865127761304378,-0.9748073015607893,-1.499223097591847
1761475991694180900,4.888180908203125,0.7669687071144581,-0.9362048914439975,-1.4136382792867719
1761475991704216800,4.898216796875,0.9077297614574432,-0.8416849254027009,-1.3830673460647462
1761475991714254000,4.908254150390625,1.0479127236515282,-0.7535026379503309,-1.3865657095745205
1761475991724290000,4.9182900390625,1.1126824252039194,-0.6821335381329059,-1.346762106974423
1761475991734327000,4.9283271484375,1.1355839928418396,-0.6349535615459084,-1.3187142624892294
1761475991744363000,4.938363037109375,1.1295657554656267,-0.6486629379466176,-1.2637146981924772
1761475991754400000,4.94839990234375,1.2520593317121267,-0.6372440105706453,-1.2124250943295658
1761475991764436000,4.95843603515625,1.1680050839751959,-0.6174789873927832,-1.1777256830006837
1761475991774473000,4.968472900390625,1.1346703851282596,-0.6214017137944698,-1.1119077875696122
1761475991784509000,4.978509033203125,1.3594915324270724,-0.6244857974149286,-1.030297425853461
1761475991794546200,4.988546142578125,1.5662299105465411,-0.5900421144127845,-0.9735551095426082
1761475991804582100,4.99858203125,1.6637304998338223,-0.5108827991105616,-0.8778538978274911
1761475991814619100,5.008619140625,1.7068693843364715,-0.455351466024667,-0.754164974316582
1761475991824655000,5.018655029296875,1.8084470138043165,-0.5673898453608155,-0.6333909884043037
1761475991834692000,5.028692138671875,1.9040707033038138,-0.5793794122315943,-0.4828352468863129
1761475991844728000,5.03872802734375,1.9712223315566777,-0.4956543964490294,-0.3379253657681867
1761475991854765000,5.04876513671875,1.9616303273469209,-0.4308221510544419,-0.24374935432635247
1761475991864801300,5.05880126953125,1.9578169065386055,-0.4237894759386778,-0.2184738423650153
1761475991874838000,5.068838134765625,2.002199069100618,-0.4089195313259959,-0.17982563861142842
1761475991884874000,5.0788740234375,1.9087918866068123,-0.3861576644197106,-0.10609180069034918
1761475991894911000,5.088910888671875,1.6771411855489016,-0.3600944178804755,0.013766367284953594
1761475991904947000,5.098947021484375,1.520789178842306,-0.38072336441129445,0.12476440725531428
1761475991914984000,5.10898388671875,1.447391934198141,-0.3945844242423773,0.214876676389575
1761475991925020000,5.11902001953125,1.358175773653388,-0.38375294136554,0.25637473488263784
1761475991935057200,5.12905712890625,1.3467998086363075,-0.3283434810936451,0.24854732919260858
1761475991945093000,5.139093017578125,1.3041355559080838,-0.2426025954440236,0.27146990308593955
1761475991955130000,5.149130126953125,1.16611357114017,-0.15599924774616955,0.2864220826219767
1761475991965166000,5.159166015625,1.0384235952943563,-0.10979337688833475,0.3020531478002667
1761475991975203000,5.169203125,0.9830179344147443,-0.13728490266501903,0.32550716168917715
1761475991985239000,5.179239013671875,0.9590040216207504,-0.22283172704726456,0.3862072757150978
1761475991995276000,5.189276123046875,0.8161790204852819,-0.2929392824962735,0.5179933617681265
1761475992005312000,5.19931201171875,0.6682254242897033,-0.3339502150595188,0.6640988458789885
1761475992015348000,5.209347900390625,0.6189782860398292,-0.3408668625801802,0.7666735966254026
1761475992025385200,5.21938525390625,0.5567401487916708,-0.3164405695930123,0.8368626928780227
1761475992035421200,5.229421142578125,0.4815250410705805,-0.2737774859085679,0.9083836953215301
1761475992045458200,5.239458251953125,0.38812253475189207,-0.2681260360181332,0.9769635297466069
1761475992055494100,5.249494140625,0.3056915043026209,-0.3407362219378352,1.0191071926668285
1761475992065531100,5.25953125,0.1702852549910545,-0.4734565931662917,1.0892548609305173
1761475992075567000,5.269567138671875,0.2298170558899641,-0.5971399637192487,1.1462576548084615
1761475992085603800,5.279603759765625,0.35848785946667194,-0.7078796815469861,1.2453358686760068
1761475992095640000,5.28964013671875,0.3949661170363426,-0.8108946503415704,1.3614385748416185
1761475992105677000,5.299677001953125,0.519760371440649,-0.9199541599974036,1.472083453992754
1761475992115713000,5.309713134765625,0.7516904739618301,-1.0204854952827096,1.5390733158126473
1761475992125750000,5.31975,0.9571604395806789,-1.088132213576138,1.504405322535336
1761475992135786000,5.329785888671875,1.1758815164387226,-1.0596876248583198,1.3910156747207045
1761475992145828600,5.33982861328125,1.3419663971304894,-0.9085109749630093,1.2582888737514615
1761475992155864800,5.34986474609375,1.3858230745136737,-0.7368208216100931,1.1602082926191388
1761475992165901600,5.359901611328125,1.240547757616639,-0.6509907963722944,1.0701134495437146
1761475992175937500,5.3699375,1.0022446129322051,-0.6599611615523695,0.9783104873761534
1761475992185974500,5.379974609375,0.8023316969186067,-0.6914981633275747,0.8671109700169414
1761475992196010800,5.3900107421875,0.5380892243355512,-0.6023474692344665,0.6865237359158695
1761475992206047700,5.4000478515625,0.041105917370319364,-0.43614802225232124,0.535692976848781
1761475992216083700,5.410083740234375,-0.5698135653764009,-0.43148675244301554,0.519556227170676
1761475992226119700,5.42011962890625,-1.184275250774622,-0.7486477452650666,0.6453820165798068
1761475992236156700,5.43015673828125,-1.6199726066499947,-1.174239302189648,0.8597296275939792
1761475992246192600,5.440192626953125,-1.8265438115090131,-1.4622107331454752,1.151081348637864
1761475992256229600,5.450229736328125,-1.9756354718238114,-1.503797127509117,1.331590695197135
1761475992266265600,5.460265625,-1.9446476283639669,-1.2886542013987898,1.3547452146828174
1761475992276302800,5.470302734375,-1.4505126965671777,-0.8857543687537311,1.2303823374330998
1761475992286338800,5.4803388671875,-0.9421417341470718,-0.4481669613480568,0.9127334149636328
1761475992296375800,5.490375732421875,-0.6188479376584292,-0.08928191925734281,0.607204480811581
1761475992306411800,5.500411865234375,-0.47788814587295053,0.05685878229737282,0.42784116248227655
1761475992316448800,5.51044873046875,-0.3916010245174169,0.025968261732161043,0.30446123185530305
1761475992326484700,5.520484619140625,-0.29223814848959445,-0.08237140921652317,0.19242226799726486
1761475992336521700,5.530521728515625,-0.3230535579919815,-0.13969576319903135,0.1607256917461753
1761475992346557700,5.5405576171875,-0.4902192196577787,-0.11310820052474736,0.15809592776447534
1761475992356594700,5.5505947265625,-0.6461907026141882,-0.07234072132855654,0.15036840225234627
1761475992366631000,5.560630859375,-0.9511743509083985,-0.027495909690856933,0.10175050181671977
1761475992376667600,5.570667724609375,-1.2986118240505455,0.04385594673082232,-0.05490399496778845
1761475992386703600,5.58070361328125,-1.5218687907725572,0.11255392764285206,-0.2124173736039549
1761475992396740600,5.59074072265625,-1.7250632126748562,0.15588921150043605,-0.3039807548619807
1761475992406776600,5.600776611328125,-1.7178583958625793,0.17088877384215592,-0.42938188911825415
1761475992416813600,5.6108134765625,-1.6898299867302178,0.09645049571245908,-0.5598157568447292
1761475992426849500,5.620849609375,-1.6447551657289265,-0.021904665555059908,-0.6141104608077556
1761475992436886800,5.63088671875,-1.5774755271822214,-0.14317922140061853,-0.533115819837153
1761475992446922800,5.6409228515625,-1.3920967479556798,-0.23006094764843582,-0.4139083525892347
1761475992456958700,5.650958740234375,-1.2179179926574228,-0.21912015917822716,-0.3501247394647449
1761475992466995700,5.66099560546875,-1.0395148976624011,-0.12661577074304223,-0.32169030681475996
1761475992477031700,5.67103173828125,-0.854049609196186,0.010912731419503689,-0.32996224140189584
1761475992487068700,5.681068603515625,-0.5817845736771822,0.15630743691250681,-0.33592041915394366
1761475992497104600,5.691104736328125,-0.28526655591130257,0.2746769189663231,-0.2972268236223608
1761475992507142000,5.701141845703125,-0.13189911797344683,0.32331162440627814,-0.26087957202121614
1761475992517177900,5.711177734375,-0.1021808560580015,0.3040736938424408,-0.2245722871042788
1761475992527214800,5.72121484375,-0.043462709629535676,0.26924349574074147,-0.1879826050493866
1761475992537250800,5.731250732421875,0.09750584998428821,0.30330972373262044,-0.2154796837840229
1761475992547287800,5.741287841796875,0.2713198636233806,0.419154509614408,-0.2705179726559669
1761475992557323800,5.75132373046875,0.2460948214739561,0.5485388682879507,-0.24369872011765836
1761475992567360500,5.761360595703125,0.1264414370894432,0.6523971560388803,-0.2431130291841924
1761475992577396700,5.771396728515625,0.1559469330370426,0.6866821413479745,-0.28154220162592825
1761475992587433700,5.781433837890625,0.2163496715515852,0.6986519806049764,-0.2969980563677847
1761475992597469700,5.7914697265625,0.23306115237772462,0.7410470610029996,-0.29237755696028467
1761475992607506700,5.801506591796875,0.20990707128345965,0.8095191242046654,-0.2480351418867707
1761475992617542700,5.811542724609375,0.242961784145236,0.8589879423812031,-0.1726706888228655
1761475992627579600,5.82157958984375,0.30348727225661276,0.858777514500916,-0.09215067962668835
1761475992637615600,5.83161572265625,0.4047001600652933,0.8590117616482078,-0.04087883061617613
1761475992647652600,5.841652587890625,0.4998521403998136,0.9228514888741075,-0.025150296412780878
1761475992657688600,5.8516884765625,0.5104658888727426,0.995497184498608,-0.07154745205901562
1761475992667724500,5.861724609375,0.5597048438161611,1.0084960745424032,-0.17116437591314315
1761475992677761800,5.87176171875,0.6663128686666488,0.9681266547530889,-0.26176884901113806
1761475992687797800,5.8817978515625,0.758798260140419,0.9022463616102934,-0.2749813087403774
1761475992697834800,5.891834716796875,0.7383440856546163,0.9001219168022274,-0.2570757958240807
1761475992707870700,5.90187060546875,0.7308242115437984,0.8969526391163468,-0.25355909294001755
1761475992717907700,5.91190771484375,0.5904343286007643,0.862894448300451,-0.2759825216721743
1761475992727943700,5.921943603515625,0.5597054283380508,0.8298797751881182,-0.26574498610049485
1761475992737980700,5.931980712890625,0.5849661263227462,0.8493718266434968,-0.21651808692105112
1761475992748017000,5.942016845703125,0.5462216773867606,0.8804327353395521,-0.21211882904879747
1761475992758054000,5.952053955078125,0.43900165811777114,0.8067787394553423,-0.24749058668129145
1761475992768089900,5.96208984375,0.28118308598995206,1.200179799132049,-0.2733795726321637
1761475992778126600,5.972126708984375,0.35076515626013277,1.2208977391205726,-0.36137547066695985
1761475992788162800,5.982162841796875,0.5065677123904228,0.8535942666441202,-0.3773728849396109
1761475992798199600,5.992199462890625,0.4829565351784229,0.5911437920443713,-0.3201475343521684
1761475992808235500,6.002235595703125,0.3020037557005882,0.4187902063466608,-0.20950265520103276
1761475992818272800,6.012272705078125,0.10744564471840858,0.3918757498055696,-0.003983955069631338
1761475992828308700,6.022308837890625,0.034061844077706335,0.4462956145182252,0.17919724104739723
1761475992838345700,6.032345703125,-0.03337853798866272,0.4643303067721426,0.2273443821661174
1761475992848381700,6.042381591796875,-0.08902268379926681,0.4453336376182735,0.17130962960273027
1761475992858418700,6.052418701171875,-0.10136486349999904,0.45969928597062826,0.11336962793990969
1761475992868454700,6.06245458984375,-0.16859423316419123,0.5208249319322407,0.06530366229861974
1761475992878491600,6.07249169921875,-0.14813362893760204,0.5213076008826494,0.015482085161656141
1761475992888527600,6.082527587890625,-0.155763393163681,0.4562994143992662,0.04355667152330279
1761475992898563600,6.0925634765625,-0.12138999891877174,0.35866350829452276,0.10135565728023647
1761475992908600800,6.102600830078125,-0.06265373231172561,0.2617636613793671,0.14994228579476473
1761475992918636800,6.11263671875,-0.028463293418288228,0.17599734902754424,0.1614569286301732
1761475992928673800,6.122673828125,-0.007157470539212226,0.07924597067236899,0.12910510334074496
1761475992938709800,6.132709716796875,0.010092354947328568,0.006557020428031682,0.10318345722928643
1761475992948746800,6.142746826171875,0.05831541084647178,-0.024441782817244528,0.05586275699734688
1761475992958782700,6.15278271484375,0.03848024504184722,-0.03747311382591724,0.004575929613411426
1761475992968819700,6.16281982421875,-0.04338087656497955,-0.035191724890470504,0.0014089900150895118
1761475992978855700,6.172855712890625,0.13143266950547694,-0.05713599180355668,0.009574614683538674
1761475992988892700,6.182892578125,0.3114776864886284,-0.1446532394759357,-0.0433973893083632
1761475992998929000,6.192928955078125,0.29401801764369007,-0.23494755064621567,-0.06482318530529738
1761475993008965600,6.202965576171875,0.2547591894447803,-0.334835765722394,-0.07991451758369802
1761475993019001600,6.213001708984375,0.3433656936585903,-0.45176907749325035,-0.12399170584976672
1761475993029038600,6.22303857421875,0.40799043378233907,-0.5256345241710544,-0.16535875837430358
1761475993039074600,6.233074462890625,0.4255979866653681,-0.5483223029278218,-0.23674290963038802
1761475993049111600,6.243111572265625,0.4826882396310568,-0.5993718144245446,-0.2882407494165003
1761475993059147800,6.253147705078125,0.5252835187762975,-0.6762943105854093,-0.2975730797767639
1761475993069184800,6.263184814453125,0.5194330391824246,-0.7630345825359225,-0.30994039391875267
1761475993079220700,6.273220703125,0.4698042081385851,-0.9025226943336426,-0.30598785690069197
1761475993089257700,6.2832578125,0.39317572648823257,-1.0664407523803412,-0.2673677649967372
1761475993099293700,6.293293701171875,0.22626550088822842,-1.2396318118155,-0.22417992678582668
1761475993109330700,6.30333056640625,0.07260755557119845,-1.336465169365704,-0.23506956959068773
1761475993119366700,6.31336669921875,0.10298924983143806,-1.347647657637298,-0.27102906398326154
1761475993129402600,6.323402587890625,0.10172492898404598,-1.3507181511238218,-0.2869448643870652
1761475993139434000,6.33343408203125,0.06668225717544556,-1.4057356894686817,-0.27081279088407756
1761475993149470000,6.343469970703125,0.09088029436469078,-1.4953412877224386,-0.2280098603375256
1761475993159506700,6.353506591796875,0.15827449920177458,-1.553583779463172,-0.1902272421710193
1761475993169543000,6.36354296875,0.23011808466315267,-1.5802598972037434,-0.13352087395638226
1761475993179579600,6.37357958984375,0.24371289477348326,-1.6333811004079877,-0.0396959044419229
1761475993189615600,6.38361572265625,0.2470394088476896,-1.6666702065475285,0.07375643334537745
1761475993199652900,6.39365283203125,0.25681553745269775,-1.6952390061669051,0.15793679168000815
1761475993209688800,6.403688720703125,0.2565291217267513,-1.7261917783133685,0.20463336866423487
1761475993219725800,6.413725830078125,0.22971301099359986,-1.7463129214525221,0.23044030235484242
1761475993229761800,6.42376171875,0.19886603730916977,-1.7626251738280057,0.27180487066134806
1761475993239798800,6.433798828125,0.16282909376621246,-1.7790449782311915,0.3239879162326455
1761475993249834800,6.443834716796875,0.03821370306015014,-1.7982794016636907,0.37022184414118525
1761475993259872000,6.4538720703125,-0.0428863710463047,-1.782199935130775,0.39565307638719677
1761475993269908000,6.463907958984375,-0.13752046498656273,-1.743322653595358,0.4236281478971243
1761475993279945000,6.473945068359375,-0.1969248401135206,-1.6962927530035377,0.4419062935180962
1761475993289981000,6.48398095703125,-0.23687223509848115,-1.5737665896616875,0.46409679027721285
1761475993300018000,6.494017822265625,-0.2814963897228241,-1.2825249048635363,0.3882800634011626
1761475993310054000,6.504053955078125,-0.30239480084478854,-0.984236370293796,0.3015897680722177
1761475993320091000,6.5140908203125,-0.412058121612668,-0.9033486237637698,0.34763854867219923
1761475993330126800,6.524126953125,-0.7748655978441238,-1.1172630309924483,0.4809102701731026
1761475993340163800,6.534163818359375,-1.1896224570214748,-1.4274442479297518,0.5825191715620458
1761475993350200000,6.544199951171875,-1.4302391393452882,-1.43530387538895,0.5409162644550204
1761475993360236800,6.55423681640625,-1.6250743137031793,-1.1428643591083585,0.43437078344672914
1761475993370272800,6.564272705078125,-1.717107285234332,-0.7611560753129423,0.3872857916668057
1761475993380309000,6.57430908203125,-1.7250421698868275,-0.5486210666786879,0.42791824630647896
1761475993390345700,6.584345703125,-1.7415023063004016,-0.5799023401271551,0.5328089458450674
1761475993400381700,6.594381591796875,-1.664894867438078,-0.7350508162628859,0.6717308020621537
1761475993410418700,6.604418701171875,-1.6005074432015418,-0.9063145608972758,0.825503898191452
1761475993420454700,6.61445458984375,-1.3936708654046057,-1.0213217999763786,0.9472720827728509
1761475993430492000,6.624491943359375,-1.069502624168992,-1.02949509649463,1.0179507161080836
1761475993440528000,6.63452783203125,-0.6723334441304206,-0.9352278631053864,0.9889122531503438
1761475993450564900,6.64456494140625,-0.1961503486096859,-0.7801026217147707,0.9035846244767308
1761475993460600800,6.654600830078125,0.24443302574157713,-0.557420897597447,0.8219590651914477
1761475993470637800,6.664637939453125,0.5229898548811673,-0.2477671386003494,0.7296408469781279
1761475993480673800,6.674673828125,0.9363421079576015,-0.26158319024592636,0.6809758925303816
1761475993490710800,6.684710693359375,1.1029238322556019,-0.2801754433173686,0.6322624227657914
1761475993500746800,6.694746826171875,1.0365700763821601,-0.15717998196333646,0.5996098609641194
1761475993510784000,6.704783935546875,1.0981529645919799,0.029753406294062732,0.5419600744195282
1761475993520820000,6.714820068359375,1.2402806311130523,0.19624723311290143,0.4082894167289138
1761475993530857000,6.72485693359375,1.2905980289429426,0.3569885608196258,0.23717048739269375
1761475993540893000,6.734892822265625,1.2693711165189743,0.46164369803667066,0.07847294047325849
1761475993550929700,6.7449296875,1.1342150425761937,0.5167286025293171,0.01471943022608757
1761475993560966000,6.7549658203125,0.8156564579159021,0.5491947018481791,-0.02249181779325008
1761475993571003000,6.7650029296875,0.6909113033503294,0.6064839114520698,-0.12291267844140528
1761475993581038800,6.775038818359375,0.6698270142674446,0.7283462040577083,-0.25618220798522234
1761475993591075800,6.785075927734375,0.5805833811938762,0.8718122065104543,-0.3687774905517697
1761475993601111800,6.79511181640625,0.4919231009662151,0.9358817239042371,-0.38604046778082846
1761475993611148800,6.805148681640625,0.4895411742657423,0.8328106410082429,-0.26007337020486593
1761475993621184800,6.815184814453125,0.3601940788626671,0.5915864212453364,-0.143681910225749
1761475993631221800,6.8252216796875,0.23420097006261348,0.39315921374484897,-0.07372823016420006
1761475993641257700,6.8352578125,0.2829296373963356,0.3739461984265596,-0.060254269954562185
1761475993651295000,6.845294921875,0.2710638430356979,0.4914053607024252,-0.06395166316777467
1761475993661331000,6.8553310546875,0.09531973811686038,0.5791332554508001,-0.08985913462340832
1761475993671368000,6.865367919921875,-0.01656593487560749,0.6114448217950761,-0.19906316731646656
1761475993681404000,6.87540380859375,-0.019230185648798942,0.6701528852209448,-0.3799377669915557
1761475993691439900,6.88543994140625,0.019992986714839935,0.8325543281596154,-0.6069761519484221
1761475993701476900,6.895476806640625,0.09434943177998065,1.0402747030537576,-0.7685954315334558
1761475993711512800,6.905512939453125,0.08236673304140567,1.2000232203308492,-0.883759103283286
1761475993721549800,6.9155498046875,0.06005202538073062,1.2686635527715087,-0.9733892514564096
1761475993731585800,6.925585693359375,0.09907178412675857,1.2867981982685626,-1.0636946685425936
1761475993741623000,6.935623046875,0.18882862741947173,1.324816524887085,-1.1908009992815554
1761475993751659000,6.945658935546875,0.28912615394890306,1.4063709186322986,-1.319618663983047
1761475993761695700,6.95569580078125,0.3513531852811575,1.4923083497673273,-1.4034925867170094
1761475993771732000,6.96573193359375,0.3909790932267904,1.547943727749586,-1.4392935295470057
1761475993781768700,6.975768798828125,0.35884850947260855,1.5505812366463243,-1.4534490422800181
1761475993791804700,6.9858046875,0.4248492141246795,1.5319288508854805,-1.4768587055705487
1761475993801841700,6.995841552734375,0.5116401933491229,1.5607954644076525,-1.4570640179067849
1761475993811877600,7.005877685546875,0.5553904877483844,1.610234764228761,-1.4511996559180318
1761475993821915000,7.015914794921875,0.6588871025800704,1.63218341505602,-1.4007701760157942
1761475993831950800,7.025950927734375,0.7049708083629608,1.5793527192309498,-1.2678174573361873
1761475993841987800,7.03598779296875,0.7534253349304199,1.5007240036740899,-1.143930527035147
1761475993852023800,7.04602392578125,0.9047130439847707,1.4451545305348932,-1.0814081660181283
1761475993862060800,7.056060791015625,1.043633438897133,1.3876421066343783,-1.039505837573111
1761475993872096800,7.0660966796875,1.0752923134863377,1.3147488659895956,-0.9529520281054079
1761475993882134000,7.076134033203125,1.0977502290099859,1.195239712381363,-0.8530288878463208
1761475993892170000,7.086169921875,1.0930582718014716,1.0622753032639622,-0.7625177190549671
1761475993902207000,7.09620703125,1.080645949473977,0.9579141805574297,-0.6766768801622093
1761475993912243000,7.106242919921875,1.04473935431242,0.8689201383307575,-0.5998512685045599
1761475993922280000,7.116280029296875,0.929028570073843,0.8059158390156924,-0.5131878611825407
1761475993932316000,7.12631591796875,0.790915399891138,0.7669137620568275,-0.4553324690632522
1761475993942352000,7.136351806640625,0.7520587227523327,0.7585118444144725,-0.4858883508466184
1761475993952388900,7.146388916015625,0.6978864030599594,0.7737142358519137,-0.5012471018895507
1761475993962424800,7.1564248046875,0.6598667612671851,0.7201235154397785,-0.4823778585076332
1761475993972461800,7.1664619140625,0.6910270386844873,0.5797969069913029,-0.38987697720378633
1761475993982498000,7.176498046875,0.6381757384628057,0.40966932677999135,-0.2723445304960012
1761475993992534800,7.18653466796875,0.540398670321703,0.265442130696401,-0.1861860039561987
1761475994002570800,7.19657080078125,0.4809568857938051,0.13931567784026264,-0.09328925520256161
1761475994012607700,7.206607666015625,0.38648528893887996,0.024752602332085368,-0.012543547491729258
1761475994022643700,7.216643798828125,0.24884675053060054,-0.07199599954411387,0.07781228460744023
1761475994032680700,7.2266806640625,0.11324994708299636,-0.179226613272354,0.1851693742595613
1761475994042716700,7.236716552734375,0.0037491234004497524,-0.3339495574723929,0.31980595437288284
1761475994052754000,7.24675390625,-0.1030880340307951,-0.5162878730244934,0.5007330148875713
1761475994062790000,7.256789794921875,-0.24894611925184726,-0.6792943691842258,0.6549018323361874
1761475994072827000,7.266826904296875,-0.3041711628675461,-0.7835993047241121,0.7378767604038119
1761475994082862800,7.27686279296875,-0.3546393673449755,-0.8789755953337997,0.8405934769041836
1761475994092899800,7.28689990234375,-0.4361450996428728,-0.99964078710936,0.988936218547821
1761475994102935800,7.296935791015625,-0.4251443976789713,-1.1700761911608277,1.1180879375092685
1761475994112971800,7.3069716796875,-0.41812312074005603,-1.3653759142905473,1.2495019023142755
1761475994123008800,7.3170087890625,-0.4468219764798879,-1.5637877780914307,1.3687430526360869
1761475994133045000,7.327044921875,-0.4482628229379654,-1.7411628452129662,1.4448153617084025
1761475994143082500,7.33708251953125,-0.4474760564744472,-1.8516328061886131,1.490449570158124
1761475994153118500,7.347118408203125,-0.4017360495626926,-1.920133657093346,1.5352464510008692
1761475994163155200,7.3571552734375,-0.3891659063249826,-1.9634816543020306,1.564382967505604
1761475994173191400,7.36719140625,-0.38456688809692857,-2.0324514378927647,1.5926757266625762
1761475994183228200,7.377228271484375,-0.38889819529950614,-2.100956234320253,1.6624978892989455
1761475994193264000,7.38726416015625,-0.5146224240303039,-2.16018013831377,1.7348589227631688
1761475994203301000,7.397301025390625,-0.5486357527911663,-2.188529888354987,1.7323459170289337
1761475994213337000,7.407337158203125,-0.47808454522788524,-2.1901580740787088,1.703709605131298
1761475994223374300,7.417374267578125,-0.4565823229938745,-2.168173767416179,1.665763466966152
1761475994233410300,7.427410400390625,-0.5126426483899355,-2.175611223940551,1.6737996200360357
1761475994243447300,7.437447265625,-0.5050467864334584,-2.1842554259061813,1.7031624926425515
1761475994253483300,7.447483154296875,-0.5109907895296811,-2.184754753730446,1.6865926122441888
1761475994263519200,7.457519287109375,-0.7465437587231397,-2.2026598282553254,1.6076605298265814
1761475994273556200,7.46755615234375,-0.8736883756458759,-2.197943321127444,1.553258054640144
1761475994283592200,7.47759228515625,-0.9760562787085771,-2.1418172370187936,1.5037975659005343
1761475994293629400,7.48762939453125,-1.1703279739648103,-2.036577139520645,1.4105229237452148
1761475994303665400,7.49766552734375,-1.2645014646559953,-1.864935209223628,1.2504505813412368
1761475994313702400,7.507702392578125,-1.3290496324121952,-1.6405438316442071,1.0724823706321418
1761475994323738400,7.51773828125,-1.3749725946754217,-1.411132287815213,0.8634887609317898
1761475994333775400,7.527775390625,-1.4264882623791695,-1.212363135009259,0.7502437822848558
1761475994343811300,7.537811279296875,-1.5554127484560012,-1.0548415000014006,0.6282390124686063
1761475994353848300,7.547848388671875,-1.6133219165891408,-0.9088130266495048,0.47574295053780075
1761475994363884300,7.55788427734375,-1.7215426373332738,-0.7237118953205645,0.29153131539449095
1761475994373921300,7.56792138671875,-1.8662422001689671,-0.5131071971617639,0.11222893347218632
1761475994383957500,7.57795751953125,-2.0341589724630116,-0.39322811426259574,-0.0007958265528082847
1761475994393994200,7.587994140625,-2.2398183231741187,-0.4669406354010105,-0.03230930132195353
1761475994404030200,7.5980302734375,-2.375333293557167,-0.6650374419033527,-0.010486030440032481
1761475994414066400,7.60806640625,-2.5239322019189596,-0.8302527732189744,0.015747311969101428
1761475994424103200,7.618103271484375,-2.597279762202501,-0.7631697532229125,-0.00012377251014113424
1761475994434139100,7.62813916015625,-2.4471926611095665,-0.4899585228949785,-0.05592193983867764
1761475994444176100,7.638176025390625,-2.2498434581041336,-0.11543269794955849,-0.09614040684998035
1761475994454212000,7.648212158203125,-1.89934075217247,0.2523416069090366,-0.21481033315509557
1761475994464249300,7.658249267578125,-1.4036568373680114,0.4987549928128719,-0.3432185402728617
1761475994474285300,7.668285400390625,-0.8668407017081975,0.5857375490866601,-0.4127965188898146
1761475994484322300,7.678322265625,-0.43434827935397624,0.5650610370870679,-0.3630012452378869
1761475994494358300,7.688358154296875,-0.12073474988043308,0.4881952395495027,-0.24844576851427555
1761475994504395300,7.698395263671875,0.1415074887961149,0.45066374659985303,-0.25607728630602355
1761475994514431200,7.70843115234375,0.43043490530252454,0.5267847901847214,-0.31618411061391233
1761475994524468200,7.71846826171875,0.6222808347165584,0.7028785122588277,-0.3770829620823264
1761475994534504400,7.72850439453125,0.7360685419380665,0.8954542903173714,-0.47340004067346453
1761475994544541400,7.73854150390625,0.8307815463334322,1.052977094369009,-0.5104648659594356
1761475994554577400,7.748577392578125,0.9677531452655792,1.1880194057390092,-0.48988326570168134
1761475994564613400,7.75861328125,1.1171733068823815,1.3507390477813779,-0.48033670806884765
1761475994574650400,7.768650390625,1.1432687021255492,1.484710734245181,-0.4552889221824705
1761475994584686300,7.778686279296875,1.165664073807001,1.5804504513397812,-0.41120515804514285
1761475994594723300,7.788723388671875,1.1086854645222424,1.590725907769054,-0.32864275630116463
1761475994604759300,7.79875927734375,1.0182049831300972,1.5525034368805586,-0.31315248783305283
1761475994614796300,7.80879638671875,0.9712205291152,1.5202427970059216,-0.3517638119086623
1761475994624832500,7.81883251953125,0.8788122945308685,1.49772073020488,-0.36684637635871764
1761475994634869200,7.828869140625,0.6727297499716282,1.462880887492001,-0.3550330428376794
1761475994644905200,7.8389052734375,0.5324164393961429,1.4477660282075404,-0.3639735974013805
1761475994654942200,7.848942138671875,0.5277653987199068,1.429734112432599,-0.330247853410244
1761475994664978200,7.858978271484375,0.4378957427024841,1.4326744036681949,-0.2525885674074292
1761475994675015200,7.86901513671875,0.33179157572090623,1.4215918686397373,-0.17785846672430633
1761475994685051100,7.879051025390625,0.3028857992321253,1.4100889162421226,-0.17550255124792455
1761475994695088400,7.88908837890625,0.36114392693340774,1.4589413560859859,-0.22314225430116055
1761475994705124400,7.899124267578125,0.4117968403279781,1.5187098883502184,-0.22570129113420842
1761475994715160300,7.909160400390625,0.4370750739693641,1.5563393617816268,-0.13520078986734152
1761475994725197300,7.919197265625,0.43938393543362614,1.550190922154486,-0.05006751472204923
1761475994735233300,7.9292333984375,0.43785365712642665,1.505452347370237,0.019175825113058088
1761475994745270300,7.939270263671875,0.40459786873459813,1.4509963884308934,0.069696198169142
1761475994755306200,7.94930615234375,0.19992460645139215,1.4013785171724855,0.10599807625859975
1761475994765343200,7.95934326171875,0.028209610918164253,1.3686480678290127,0.07154211829677223
1761475994775379500,7.96937939453125,0.022605799561738967,1.3166080839902161,-0.020556611946970223
1761475994785416400,7.97941650390625,-0.013884732967615127,1.267199033176899,-0.06264920226708054
1761475994795452400,7.989452392578125,-0.08451602002978324,1.2325155500695109,-0.039000469523668285
1761475994805489400,7.999489501953125,-0.12112345693707466,1.1924283082224427,0.012607844899594782
1761475994815525400,8.009525390625,-0.10652677630782127,1.112772733835876,0.03913929347246885
1761475994825562000,8.01956201171875,-0.05704582930207252,1.003652287773043,0.044456396842002865
1761475994835598300,8.029598388671875,-0.048908115553855894,0.8898410535454749,0.06677066611126065
1761475994845635300,8.03963525390625,-0.15964286494553087,0.7956859752938151,0.07400543967038392
1761475994855671300,8.04967138671875,-0.12232874107360839,0.6947428443372249,0.054389761835336684
1761475994865708300,8.059708251953126,-0.007140519404411316,0.6115167179875075,0.05155673036649823
1761475994875744300,8.069744140625,-0.042991584986448284,0.5178362715102732,0.053625353334099055
1761475994885780200,8.0797802734375,0.02785071447789669,0.4380915575355291,0.04869666476026177
1761475994895817200,8.089817138671876,0.14270458962619303,0.38326632689237594,0.03285743672400713
1761475994905853200,8.099853271484376,0.22299510091543195,0.38248394434303046,-0.019484452670812606
1761475994915890200,8.10989013671875,0.28871289697289465,0.41656814638301726,-0.06268865749463438
1761475994925926100,8.119926025390624,0.36219489729106424,0.42685076320543885,-0.10643763671964407
1761475994935963400,8.12996337890625,0.37954701410830016,0.4160167961105704,-0.14399331426247952
1761475994945999400,8.139999267578125,0.42700259276628494,0.39683717160522936,-0.18125278533771633
1761475994956036400,8.150036376953125,0.49778877812921996,0.38281507599353787,-0.2123053645968437
1761475994966072300,8.160072265625,0.5146592489093542,0.3906529300123453,-0.2390827507548034
1761475994976109300,8.170109375,0.5474275460451841,0.4268478405959904,-0.27610373689904805
1761475994986145300,8.180145263671875,0.5746598363637924,0.4534045697405934,-0.30883754724338647
1761475994996182300,8.190182373046875,0.5577087015628814,0.45402723168358206,-0.332068054574728
1761475995006218200,8.20021826171875,0.5035264449983835,0.45574923317059873,-0.34796515027806163
1761475995016255500,8.21025537109375,0.4215963498085737,0.43772856944203375,-0.3591906009085476
1761475995026291500,8.22029150390625,0.30313188294768334,0.43062341361194845,-0.40805794606059786
1761475995036328200,8.230328125,0.23463000912964344,0.4121034220591187,-0.46684375089779495
1761475995046364400,8.240364501953126,0.10436638340353965,0.42810865431204437,-0.47226826016455886
1761475995056400400,8.250400390625,0.03061608753800392,0.40790027128085493,-0.4785312660820782
1761475995066437000,8.26043701171875,0.01656768844127655,0.35311011195108294,-0.4619214920647442
1761475995076473300,8.270473388671874,-0.0897901610404253,0.2915405216142535,-0.426253674095124
1761475995086510000,8.280510009765624,-0.1746791060358286,0.26339900749623774,-0.43692675153985616
1761475995096546300,8.29054638671875,-0.2181792250663042,0.26273396771624685,-0.4922584704004228
1761475995106583300,8.300583251953125,-0.30133856979012485,0.23745485729202626,-0.5145069809570908
1761475995116619300,8.310619384765625,-0.4319061468988657,0.20174159274548292,-0.49993002794161434
1761475995126656300,8.32065625,-0.566851792961359,0.13867080406546592,-0.4866960139676928
1761475995136692200,8.330692138671875,-0.584988922676444,0.07009542661979794,-0.4586285879991948
1761475995146728400,8.340728515625,-0.6114911451548337,0.004315671242028475,-0.44280061200931664
1761475995156764400,8.350764404296875,-0.6175310098409652,-0.025074527762830257,-0.4381953101709485
1761475995166801400,8.360801513671875,-0.5686632262974978,-0.04985723297223448,-0.4437650731272995
1761475995176837400,8.37083740234375,-0.5227057772427797,-0.10337255006060003,-0.43279009012654424
1761475995186874600,8.38087451171875,-0.48197278483808037,-0.16557736956104635,-0.4090668308421969
1761475995196910600,8.39091064453125,-0.4486965381801128,-0.24279022697061298,-0.38159634785354135
1761475995206947600,8.400947509765626,-0.38734395159482954,-0.3239886468850076,-0.34526962758377194
1761475995216983600,8.410983642578126,-0.3345990343570709,-0.34295638220533725,-0.3335430955633521
1761475995227020500,8.4210205078125,-0.16815291913747787,-0.32054552069380876,-0.34591581653282044
1761475995237056500,8.431056396484376,0.01969955672621727,-0.2827791230097413,-0.3737525024853647
1761475995247093500,8.441093505859374,0.10301730688214301,-0.25881708653345703,-0.3648153089225292
1761475995257129700,8.451129638671874,0.1498036079764366,-0.28222324269264937,-0.3043915276199579
1761475995267166700,8.461166748046875,0.16322247699797152,-0.3830924316301942,-0.21802491128742693
1761475995277202700,8.47120263671875,0.1605740083158016,-0.487219745580852,-0.1316254155986011
1761475995287238700,8.48123876953125,0.13833236589133738,-0.504787112583965,-0.09026640025004744
1761475995297275600,8.491275634765625,0.37510757035613057,-0.47819516599550843,-0.08854030710980296
1761475995307311600,8.5013115234375,0.5596060596168041,-0.45427287700772284,-0.11427125295475124
1761475995317348600,8.5113486328125,0.576124648219347,-0.45920141945108767,-0.14956643821969628
1761475995327384600,8.521384521484375,0.6353326239913701,-0.521107840526849,-0.12375672805011272
1761475995337421600,8.531421630859375,0.6722223849713802,-0.5995926175683737,-0.0635804917678237
1761475995347457500,8.54145751953125,0.6741577369481325,-0.6774420193158089,-0.03871478445008397
1761475995357494500,8.55149462890625,0.6898959888279438,-0.7605576710283756,-0.021580402036756277
1761475995367530500,8.561530517578126,0.6234317583173513,-0.8278824638910591,-0.008664660231769084
1761475995377567500,8.5715673828125,0.6334118850618601,-0.8597023742608726,0.031034605211019514
1761475995387603500,8.581603515625,0.5916939732730389,-0.8785061511911452,0.12533216067329048
1761475995397640400,8.591640380859374,0.5306716415554285,-0.8818865874096751,0.17954466624557971
1761475995407676400,8.601676513671874,0.48831367829740047,-0.8976762772157788,0.21198519273176789
1761475995417714700,8.611714599609375,0.5035416425675153,-0.9081099929466843,0.20860475651323795
1761475995427751400,8.62175146484375,0.43482992539107795,-0.9037329469062387,0.16060586475878952
1761475995437787600,8.63178759765625,0.3072457480072975,-0.8335331831291317,0.10991656487658619
1761475995447824400,8.641824462890625,0.3215297094255686,-0.7224773850895464,0.06021832185834646
1761475995457860400,8.6518603515625,0.4363970285773277,-0.5824633497215808,0.00704684977158904
1761475995467897600,8.661897705078125,0.5037590847104787,-0.4785334580391645,-0.03390387703701853
1761475995477933600,8.67193359375,0.4073801929295063,-0.4848569619722664,0.009224924463033676
1761475995487970600,8.681970458984376,0.33487551321089265,-0.541913897190243,0.08780570922493934
1761475995498006500,8.692006591796876,0.32082828315794465,-0.5876305232264101,0.11262743127048015
1761475995508043500,8.70204345703125,0.2447486675620079,-0.5833174823328853,0.11417407619059085
1761475995518079500,8.71207958984375,0.14707389075160027,-0.5344722028821707,0.12629632953032852
1761475995528116500,8.722116455078124,0.10536065513789653,-0.4916340548917651,0.12357654917761683
1761475995538152400,8.73215234375,-0.00822656107544899,-0.47486996709555385,0.07091901796236634
1761475995548189700,8.742189697265625,-0.11499123779237269,-0.4541499812804162,-0.006590922697633505
1761475995558225700,8.7522255859375,-0.18917349533438682,-0.4183808948934078,-0.07184183189570903
1761475995568262700,8.7622626953125,-0.24716332748830316,-0.3828758662700653,-0.1307248134970665
1761475995578298600,8.772298583984375,-0.335687998637557,-0.28495193700417876,-0.19259382517188786
1761475995588334600,8.78233447265625,-0.3764408647865057,-0.020481354753673076,-0.3623907121241092
1761475995598371600,8.79237158203125,-0.42608547792136664,0.398098569843173,-0.4942161803394556
1761475995608407600,8.802407470703125,-0.6947235551148653,0.6590211042232811,-0.4746868656136095
1761475995618444500,8.812444580078125,-1.066723807105422,0.5432638504944741,-0.3958956529714167
1761475995628480500,8.82248046875,-1.2830091812491415,0.35747868242412806,-0.43236002814620733
1761475995638517500,8.832517578125,-1.365311032360792,0.5093753171570599,-0.5715963571399449
1761475995648553700,8.8425537109375,-1.5949872184753418,0.8390097148440778,-0.5906413954801857
1761475995658590500,8.852590576171876,-1.8880746772706507,0.9266587722025811,-0.45163887524232266
1761475995668626400,8.86262646484375,-2.035885065603256,0.6622253070920705,-0.21227321589291095
1761475995678663400,8.872663330078124,-1.8789999749332664,0.28433380510583517,0.0033725451730191704
1761475995688699400,8.882699462890624,-1.5753320854127406,0.09058131141811608,0.17781550436541438
1761475995698736600,8.892736572265624,-1.1657564282655715,0.1535759661220014,0.2471817399278283
1761475995708772600,8.902772705078124,-0.7002630690634251,0.3453397702105343,0.2698931918211281
1761475995718809600,8.9128095703125,-0.4043348338842392,0.4849465399518609,0.27469752336293457
1761475995728845600,8.922845458984375,-0.16828502108454704,0.4624049647327512,0.20984233548417686
1761475995738882600,8.932882568359375,0.06418985583782195,0.262540637101233,0.1838422173090279
1761475995748918500,8.94291845703125,0.23942951836585996,0.030541999388486146,0.2768881652750075
1761475995758955500,8.95295556640625,0.27519232114255426,-0.17383461803570388,0.4236500674679875
1761475995768991500,8.962991455078125,0.1623871952176094,-0.237843272087723,0.4679568267062306
1761475995779028700,8.97302880859375,0.12095803724229336,-0.12431238917149602,0.34726518531516193
1761475995789064700,8.983064697265625,0.3307861980706453,0.05077756268754601,0.09218597013577819
1761475995799101700,8.993101806640626,0.5233838226348161,0.23066249373815953,-0.23684505483061075
1761475995809137700,9.0031376953125,0.7058160270154475,0.41001894393526017,-0.513395220322907
1761475995819174700,9.013174560546876,0.7512538361102342,0.5757919091336429,-0.5913607957959175
1761475995829210600,9.023210693359376,0.6891413710683584,0.6829138748556375,-0.5718232977636158
1761475995839247400,9.033247314453124,0.7163093639791012,0.7079933710545301,-0.48019583829343315
1761475995849283600,9.04328369140625,0.8301379877328873,0.6870474675290286,-0.389125135923177
1761475995859320600,9.053320556640625,0.8623112415850162,0.6564547608666121,-0.3422553943291306
1761475995869356500,9.0633564453125,0.8482640115320682,0.6556096883445978,-0.3409258992910385
1761475995879393500,9.0733935546875,0.8823819697111844,0.6493829958494752,-0.3383659856751561
1761475995889429500,9.083429443359375,0.8827122245788573,0.6114916566114872,-0.3241309779651463
1761475995899466500,9.093466552734375,0.8621049053579568,0.566135461385548,-0.37297479611113665
1761475995909502500,9.10350244140625,0.7744464956492185,0.5102657631907612,-0.4366190007649362
1761475995919539500,9.11353955078125,0.5552706607609987,0.4376313926778733,-0.5101441095724701
1761475995929575400,9.123575439453125,0.42783436741530895,0.38004451530165967,-0.6485821277953684
1761475995939611400,9.133611328125,0.4894803839892149,0.3778904060076922,-0.8163350878298282
1761475995949648600,9.143648681640625,0.46959319573640823,0.39911351903937753,-0.9505268467850982
1761475995959684600,9.1536845703125,0.3293289849996567,0.418396896180138,-1.0048701391302048
1761475995969721600,9.1637216796875,0.21262685163617132,0.3982210271790623,-1.0337928667537868
1761475995979757600,9.173757568359376,0.14358020341694355,0.36006563017740845,-1.045226699437946
1761475995989794600,9.183794677734374,0.04065291290581226,0.37007768643014133,-1.0546442238636313
1761475995999830500,9.19383056640625,-0.05456570292413234,0.41780952474623917,-1.135314820511639
1761475996009867800,9.20386767578125,-0.10172668254971504,0.4864109864812344,-1.242881169000268
1761475996019903700,9.21390380859375,-0.20933599339723585,0.5937747250698506,-1.3607424092710017
1761475996029940500,9.2239404296875,-0.24564824675023555,0.6736169080697,-1.505185513127595
1761475996039976700,9.233976806640625,-0.2618856803238392,0.7258815675098449,-1.6735297170534729
1761475996050013400,9.244013427734375,-0.24416180758476255,0.7591054263934492,-1.8150925892986356
1761475996060049400,9.25404931640625,-0.21149404821395873,0.7961846455309539,-1.870688950444758
1761475996070086400,9.26408642578125,-0.2552215462595224,0.8099287279188633,-1.8570755817644298
1761475996080122400,9.274122314453125,-0.33301264194846153,0.8039436621598899,-1.7854361405730246
1761475996090159600,9.28415966796875,-0.28976386733055115,0.7773456511568277,-1.726135810342431
1761475996100195600,9.294195556640625,-0.33082828364670275,0.7561854472935199,-1.7207710684388875
1761475996110232600,9.304232666015626,-0.40537236023843287,0.7782046060737222,-1.7870025131069123
1761475996120268500,9.3142685546875,-0.37701720336973665,0.7993208246648311,-1.8574563977755605
1761475996130305500,9.324305419921876,-0.4050608100712299,0.7921057056542485,-1.9362202840194105
1761475996140341500,9.334341552734376,-0.42850364497900006,0.7617341674618423,-1.9521544968627391
1761475996150379300,9.344379150390624,-0.41165187889933585,0.7027056399099528,-1.9483052740886806
1761475996160415200,9.354415283203124,-0.3390279567152262,0.6574811813049019,-1.9922947840712963
1761475996170452200,9.3644521484375,-0.24849603739678858,0.6661011256121099,-2.053746300986409
1761475996180488200,9.37448828125,-0.21129297268390654,0.7093367484875023,-2.07257112070471
1761475996190525000,9.38452490234375,-0.27605975162684915,0.7358114984370767,-2.0680654798485336
1761475996200561200,9.39456103515625,-0.32695524160563944,0.7759810117401182,-2.0997269847862423
1761475996210598000,9.404597900390625,-0.3001356237411499,0.8518883395090698,-2.176635306291282
1761475996220633900,9.4146337890625,-0.25353403156399723,0.9445561018124222,-2.272199520688504
1761475996230671000,9.424671142578125,-0.25288579678833484,0.9900932796284556,-2.291648171393573
1761475996240707000,9.43470703125,-0.24234219094216822,0.9954768723629415,-2.2832421620979906
1761475996250744000,9.444744140625,-0.29198972668647766,0.9875586465843021,-2.2504864321827887
1761475996260780000,9.454780029296876,-0.22631284716129302,1.004102808019519,-2.2596236783623693
1761475996270817000,9.464817138671876,-0.21816753462851046,1.0496864553257823,-2.319774780203402
1761475996280853000,9.47485302734375,-0.30643033997118474,1.0897561615161597,-2.3689561597406863
1761475996290890000,9.484889892578124,-0.3202472683995962,1.1302128211975098,-2.3952549686014653
1761475996300926200,9.49492626953125,-0.33776831204295155,1.1530644122138618,-2.405389409124851
1761475996310963200,9.504963134765624,-0.2851607574492693,1.1975206629253923,-2.359015342093259
1761475996320999200,9.514999267578125,-0.13309972593486308,1.26422717775926,-2.269256160712987
1761475996331036200,9.5250361328125,-0.12787819189429284,1.3454234057165682,-2.087944484794885
1761475996341072100,9.535072021484375,-0.12970657636523247,1.4233723223157226,-1.9711675326295195
1761475996351109000,9.545109130859375,-0.013510054436326026,1.4779215124964713,-1.9513963719718157
1761475996361145000,9.55514501953125,0.07350947284698486,1.5104269209124146,-1.8994015424489974
1761475996371182000,9.56518212890625,0.10995791980028152,1.5530881049007177,-1.7729349709182978
1761475996381218300,9.57521826171875,0.14155717315673827,1.5907541109502314,-1.6218039137303828
1761475996391255000,9.585255126953125,0.13489888431131838,1.6147849748790264,-1.4418467211611568
1761475996401291000,9.595291015625,0.17276187423765657,1.6440303585857152,-1.288922496946156
1761475996411328000,9.605327880859376,0.2229974390029907,1.6936078978337346,-1.2298641587778925
1761475996421364000,9.615364013671876,0.31262159582674504,1.7788515014857054,-1.1951911970645188
1761475996431401000,9.62540087890625,0.31386604292988773,1.873068246796727,-1.1198302511319518
1761475996441437000,9.63543701171875,0.24680384652614593,1.9528131069019437,-1.0154007393643258
1761475996451474200,9.64547412109375,0.313569105809927,1.9562547717884182,-0.9166709736082702
1761475996461510100,9.65551025390625,0.35235973197519777,1.9414327579706907,-0.7982147631190717
1761475996471547100,9.665547119140625,0.3113566904574632,1.9247630704596637,-0.6664306498274206
1761475996481583000,9.6755830078125,0.2757955477327108,1.9355434076711535,-0.5471526015613227
1761475996491620000,9.6856201171875,0.2858534158885479,1.916603144879639,-0.4717022237796336
1761475996501656000,9.695656005859375,0.3514040386855602,1.9030217787727712,-0.39901042399108405
1761475996511693000,9.705693115234375,0.395271237462759,1.8714099581956862,-0.3133466952309012
1761475996521729000,9.71572900390625,0.37489188177883626,1.8382564611345529,-0.21078655753172934
1761475996531766300,9.725766357421875,0.43426118559241295,1.809788783802092,-0.13361381293684244
1761475996541802200,9.73580224609375,0.5914654252141713,1.7756439376160502,-0.06587203677110373
1761475996551839200,9.745839111328126,0.6670265698939561,1.7439058603107929,-0.002696472542360425
1761475996561875200,9.755875244140626,0.7181722352415323,1.6895608144000172,0.06306194778643548
1761475996571912000,9.765911865234376,0.8668073839604854,1.59529789185971,0.18526969282887876
1761475996581948200,9.7759482421875,0.9353039970815181,1.4832657961338758,0.29294425093233584
1761475996591985000,9.78598486328125,0.9005202684700488,1.3363994106531143,0.35706038394682105
1761475996602020900,9.796020751953124,0.892884659025073,1.1652496477872132,0.4364524850916117
1761475996612058000,9.80605810546875,0.9022592210918664,1.025350470970571,0.48102615163773293
1761475996622094000,9.816093994140624,0.8990420126110314,0.9343471347481012,0.4576845120821148
1761475996632131000,9.826131103515625,0.8259376134335994,0.9174021374270319,0.37513087816648183
1761475996642167000,9.8361669921875,0.7046855616807938,0.9099488988116383,0.25579167429767546
1761475996652204000,9.8462041015625,0.8095832754820584,0.8871429005026816,0.15699359254576264
1761475996662240000,9.856239990234375,0.8988637334346771,0.8424871816962957,0.058069984718039626
1761475996672277000,9.866277099609375,0.8695634046703576,0.8132952817425131,-0.008726984878256917
1761475996682313200,9.876313232421875,0.772602913609147,0.816035228100419,0.007702756397053599
1761475996692350200,9.88635009765625,0.7318921330362558,0.8388561317175627,0.02788805081360042
1761475996702386200,9.89638623046875,0.7376648712188005,0.8173200072139502,0.01155460951961577
1761475996712423200,9.906423095703126,0.7343383571445942,0.7931202164590359,0.01708886277116835
1761475996722459100,9.916459228515626,0.6859598184227943,0.7559814491540193,0.011203896385803817
1761475996732496100,9.92649609375,0.6513017620176077,0.7291323129341006,0.011411620852351189
1761475996742532000,9.936531982421876,0.6139332776099443,0.7248062664285302,0.036068873051181435
1761475996752569000,9.946569091796874,0.5681956087857485,0.7216235447391868,0.08029664876908063
1761475996762605300,9.956605224609374,0.4858148472189903,0.6338610901340842,0.19967954564914106
1761475996772642000,9.96664208984375,0.3319330300182104,0.4753010519891977,0.373677756748721
1761475996782678000,9.976677978515625,0.3175567141413688,0.2669870951160788,0.5366056347142905
1761475996792715000,9.986715087890625,0.24452128854691982,0.051582887721061704,0.6914695948202163
1761475996802751000,9.9967509765625,0.26668460503816604,-0.12244272284209727,0.853366522302851
1761475996812788000,10.0067880859375,0.3682745094656944,-0.2438791912510991,1.0038934030525386
1761475996822824000,10.016823974609375,0.45171910087168216,-0.3839350199341774,1.1532185798622667
1761475996832861200,10.026861083984375,0.57026306270957,-0.49410862831175323,1.2634468410365283
1761475996842897200,10.036897216796875,0.6209791044682264,-0.5788888522356749,1.3468819339618086
1761475996852934100,10.04693408203125,0.6825637462437153,-0.6432318528085946,1.3977350461035967
1761475996862970000,10.05697021484375,0.8100082228958606,-0.6239224644437432,1.3816997109733522
1761475996873007000,10.067007080078126,0.8346750466406345,-0.476449345241487,1.3224018649607896
1761475996883043000,10.07704296875,0.6270873582154513,-0.31615795325934887,1.2901475086964667
1761475996893080000,10.087080078125,0.3216115424901247,-0.23230741140097377,1.311457277098298
1761475996903116000,10.097115966796874,0.05380582446753979,-0.26482027247101064,1.2916951765298843
1761475996913153300,10.1071533203125,-0.2566951259434223,-0.3881044145733118,1.3479223829254507
1761475996923189200,10.117189208984374,-0.47930210432410236,-0.578577009807527,1.4649761062055826
1761475996933226000,10.12722607421875,-0.678634590101242,-0.7694831741534173,1.5839818403363226
1761475996943262200,10.13726220703125,-0.7847334963858127,-0.805815885772556,1.6399208774402736
1761475996953299000,10.147298828125,-0.7600199108898639,-0.6918848245576024,1.5743704007737338
1761475996963335000,10.1573349609375,-0.47285775049030776,-0.44844095598384737,1.3890253776863217
1761475996973372000,10.167371826171875,-0.03099427320063114,-0.16536197324469684,1.1577818691898136
1761475996983407900,10.177407958984375,0.20635084010660648,0.023943770167231558,1.038765905926004
1761475996993445000,10.187445068359375,0.27914544268250463,0.08067147343084216,1.0203648645777255
1761475997003481000,10.197481201171875,0.3880892170041799,0.04131152294501662,1.001819665518403
1761475997013518000,10.20751806640625,0.4171428775310516,-0.014838672691583633,0.961971931515634
1761475997023554000,10.217553955078126,0.3757552206099033,-0.03687923958599567,0.9221228823386132
1761475997033591000,10.227591064453126,0.25701135228574273,0.08741977864727378,0.8127974152229726
1761475997043627000,10.237626953125,0.06183773975372314,0.3203907685235142,0.6351653776656836
1761475997053664300,10.247664306640624,0.11991232758164405,0.5302485938377678,0.42411417784839867
1761475997063700200,10.2577001953125,0.04432546393871307,0.6242655787929892,0.2826932713571936
1761475997073737200,10.2677373046875,-0.23976444940865038,0.6420422046326101,0.23078348976932464
1761475997083773200,10.277773193359375,-0.5541285049885512,0.5823159040749073,0.23533486946336923
1761475997093810200,10.28781005859375,-0.9093424573510884,0.49851037040203805,0.2389788519889116
1761475997103847000,10.297846923828125,-1.0922376030683516,0.4311731564491987,0.23347784341983496
1761475997113883100,10.307883056640625,-1.2625263651907443,0.4369553931124508,0.2548950177188963
1761475997123919000,10.317919189453125,-1.3886644354194402,0.47010158364996313,0.27954715535119173
1761475997133956000,10.3279560546875,-1.3687076890617609,0.4742524197191,0.29719825511500236
1761475997143993000,10.3379931640625,-1.2313859615176916,0.4557976023569703,0.33388438328169284
1761475997154029000,10.348029052734375,-1.1245341910392046,0.43724253949075936,0.3911564956203103
1761475997164066000,10.358066162109376,-1.0516536637455225,0.393766093596816,0.42992892854176457
1761475997174102000,10.36810205078125,-1.0725731176555156,0.3206051419265568,0.4203168313920498
1761475997184139300,10.37813916015625,-1.1320949816823005,0.275834418438375,0.40464857600852844
1761475997194175200,10.38817529296875,-1.1538497173726558,0.2673129660695791,0.3531046320583671
1761475997204212200,10.398212158203124,-1.1795505603402852,0.32574747325107456,0.2350031532909721
1761475997214248200,10.408248291015624,-1.0896043319553137,0.4538170960642397,0.11482859457656741
1761475997224285200,10.41828515625,-0.8804951330512761,0.6298104995690286,0.02379668984673917
1761475997234321200,10.428321044921875,-0.612229396301508,0.7911224667705595,-0.01627827704064548
1761475997244358100,10.438358154296875,-0.5155225877404213,0.8970470394015312,0.009832023510709404
1761475997254394400,10.448394287109375,-0.4929933605462312,0.9237785405911505,0.07471651054918765
1761475997264431400,10.458431396484375,-0.41846097439229485,0.8854812509007751,0.16493176513388752
1761475997274467300,10.46846728515625,-0.42291795380115504,0.8441755731746554,0.21659012924395502
1761475997284504000,10.478504150390625,-0.34746669923663137,0.7615759081602096,0.17687646994963288
1761475997294540300,10.488540283203125,-0.30427228515446186,0.7047935520999133,0.12420812507942318
1761475997304577000,10.498576904296876,-0.27247838600873947,0.7010388757415116,0.02799209570996463
1761475997314613000,10.508613037109376,-0.28777240125238895,0.66003963361606,-0.011706146819517016
1761475997324650200,10.518650146484376,-0.4871218381643295,0.6783997584320605,0.06560403348468244
1761475997334686200,10.528686279296876,-0.5977724164038897,0.7045370931208134,0.030777927036210892
1761475997344723200,10.53872314453125,-0.3293418444812298,0.6023075756154954,0.02430332419462502
1761475997354759200,10.54875927734375,-0.14512217216193676,0.5490652302496135,-0.025808541125804184
1761475997364796200,10.558796142578124,-0.09852408711612223,0.5793690369680523,-0.0954798240493983
1761475997374832000,10.56883203125,-0.10723638588190078,0.6181140704259276,-0.03684884444773197
1761475997384869000,10.578869140625,-0.16408990748226643,0.6492335774414241,0.0811969586096704
1761475997394905000,10.588905029296875,-0.19255670803189276,0.6199938928231596,0.26524193194918333
1761475997404942300,10.5989423828125,-0.18754677091538904,0.5593604142926633,0.40677060966379935
1761475997414978300,10.608978271484375,-0.17276304328143596,0.5296291467651725,0.4761794422589242
1761475997425015300,10.619015380859375,-0.21123159788548945,0.5416717589974404,0.4974707251559943
1761475997435051300,10.62905126953125,-0.3145961107701063,0.6055595631487667,0.43204219436869024
1761475997445088300,10.639088134765625,-0.1445540168851614,0.6610612317487597,0.38942046560794114
1761475997455124200,10.649124267578125,-0.07674187889695167,0.6682572807326912,0.4057643552307039
1761475997465161000,10.659160888671876,0.015312719944119452,0.6526856175914406,0.4647806078229099
1761475997475197200,10.669197265625,0.15879180107414723,0.579751898805797,0.49955461875796314
1761475997485234200,10.679234130859374,0.2580412798553705,0.4630607252277434,0.4900578916162252
1761475997495270100,10.689270263671874,0.270733588168025,0.37272432848140596,0.4394399764697999
1761475997505307100,10.69930712890625,0.3497171085119247,0.3529733338288963,0.49250886496491725
1761475997515343000,10.709343017578124,0.38430736037790775,0.4262177259989083,0.5659347511816769
1761475997525380000,10.719380126953125,0.3521446279197931,0.5124721141286194,0.5958752044804394
1761475997535417000,10.7294169921875,0.3556213641196489,0.5389518325142562,0.599768777852878
1761475997545453000,10.739453125,0.31619770074784753,0.47128275625854726,0.5721545024793595
1761475997555490300,10.749490234375,0.2943868509560823,0.3710286304794252,0.4949005824070424
1761475997565526300,10.7595263671875,0.10107727873027324,0.2963997982136905,0.4557873732239008
1761475997575563300,10.769563232421875,-0.26253274605572224,0.20715835709720848,0.482961430549249
1761475997585599200,10.77959912109375,-0.23499007461369037,0.13853592563942074,0.41669162663221354
1761475997595636200,10.78963623046875,-0.17932430149316786,0.1159093755505979,0.29692155706547196
1761475997605672200,10.799672119140626,-0.001402268013358116,0.1447599147208035,0.23160730030760168
1761475997615709200,10.809709228515626,0.026230419799685475,0.16763035656809805,0.2797061453051865
1761475997625745200,10.8197451171875,-0.07140636308789253,0.1701804794423282,0.35790012270659205
1761475997635782100,10.8297822265625,-0.007682371196150779,0.17110095528811214,0.44844913929030294
1761475997645818000,10.839818115234374,0.04713818327188492,0.11949001051634549,0.47796603341475125
1761475997655855000,10.849855224609374,0.11560615482032298,0.0011503390789031982,0.4160455838136375
1761475997665891000,10.85989111328125,-0.24403145920336244,-0.14599837047457695,0.35257980446666476
1761475997675928000,10.869927978515625,-0.5536199709445238,-0.25006679384484887,0.28072072917520996
1761475997685964000,10.879964111328125,-0.16842355277240276,-0.313966288433969,0.14187413015142084
1761475997696001300,10.890001220703125,0.21761165431141852,-0.2782018782220781,-0.006745236476510763
1761475997706037200,10.900037353515625,0.18522855710089206,-0.15488397998064757,0.0035005554668605327
1761475997716074200,10.91007421875,-0.0180991357922554,-0.10334960757642984,0.23080592079684137
1761475997726110200,10.920110107421875,0.005165419939160347,-0.12212576584741472,0.4452765006035566
1761475997736147200,10.930147216796875,0.1990466545730829,-0.18071093354597687,0.471110760692507
1761475997746183200,10.94018310546875,0.2860743651628494,-0.2570041918925941,0.36406624412089583
1761475997756220200,10.95022021484375,0.3005173165351152,-0.33081220929473637,0.27106808081939815
1761475997766256000,10.960256103515626,0.3556400688201189,-0.3772857911780476,0.24440964486598968
1761475997776293400,10.97029345703125,0.43413902051746844,-0.39742856162711976,0.255480635587126
1761475997786329300,10.980329345703124,0.4588789094984531,-0.40902357622236013,0.29177170002162456
1761475997796366300,10.990366455078124,0.3216881148576736,-0.4418387812398374,0.38767216063588855
1761475997806403000,11.000403076171875,0.2794341964960098,-0.4522907632797956,0.37597412405759095
1761475997816439000,11.01043896484375,0.30804245134294034,-0.4296690354965627,0.3197733672775328
1761475997826476000,11.02047607421875,0.32115619993805883,-0.43284576583653683,0.2982167845077813
1761475997836512000,11.030511962890625,0.33850890127718447,-0.4238591801740229,0.2625780465021729
1761475997846549200,11.04054931640625,0.41191257566213607,-0.4506755831681192,0.25579949227795
1761475997856585200,11.050585205078125,0.467778839790821,-0.4998519942693412,0.3018485651388764
1761475997866622200,11.060622314453125,0.48422787028849124,-0.5708551833838225,0.3206792300760746
1761475997876658200,11.070658203125,0.4268909490853548,-0.665709203685075,0.31592122189402577
1761475997886695200,11.080695068359375,0.39560967563688754,-0.6989137733463198,0.3822203249707818
1761475997896731100,11.090731201171875,0.31908582340478897,-0.650800023040548,0.4918661100819707
1761475997906768100,11.10076806640625,0.262115397426486,-0.5572004597797989,0.5513862205430865
1761475997916804000,11.11080419921875,0.2125105317801237,-0.5412176585543901,0.5588841750830411
1761475997926841300,11.12084130859375,0.2049117472141981,-0.6345194079123437,0.5198198465429246
1761475997936877300,11.130877197265624,0.2502040103584528,-0.7850973612621426,0.3724114631399512
1761475997946914300,11.140914306640624,0.3362204980790615,-0.8328660244572907,0.21507366026639937
1761475997956950300,11.1509501953125,0.34075814150869843,-0.7989650700297206,0.18798501620218155
1761475997966987000,11.160987060546875,0.29658932943642136,-0.7298243868514895,0.29188188239783047
1761475997977023200,11.171023193359375,0.2351888120561838,-0.6442530856151133,0.32597514452710746
1761475997987060000,11.18106005859375,0.07591185781359672,-0.6416534975759685,0.31234526310339567
1761475997997096000,11.191095947265625,0.035496260794997216,-0.7009176605146378,0.3648739072419703
1761475998007133200,11.20113330078125,0.10848667820394038,-0.6970940836384892,0.46729748601466414
1761475998017169200,11.211169189453125,0.0183387897670269,-0.684624039774388,0.5848353395499288
1761475998027206100,11.2212060546875,-0.09589724574387073,-0.704322792783007,0.6438111140012741
1761475998037242000,11.2312421875,-0.027386019575595853,-0.7938862323954701,0.5533410078726708
1761475998047279000,11.241279052734376,-0.6498685143440961,-0.7890634884141385,0.4451128344744444
1761475998057315000,11.251315185546876,-0.6143704999834299,-0.4176281768299639,0.06522212149500846
1761475998067352000,11.26135205078125,-0.4283271193683147,0.010389511262997985,-0.25105638940408825
1761475998077388300,11.27138818359375,-0.6947387526839971,0.19589498560912905,-0.024219372238218784
1761475998087425300,11.28142529296875,-0.8747311626970767,0.012607771834358572,0.3584609714597463
