time,seconds_elapsed,z,y,x
1761476024594101800,0.120101806640625,-0.1485992670059204,0.035171911120414734,-0.1318836510181427
1761476024604137700,0.1301376953125,-0.12746840715408325,0.013864494860172272,-0.12920105457305908
1761476024614173700,0.140173583984375,-0.1091327890753746,-0.010738328099250793,-0.11690756678581238
1761476024624209700,0.150209716796875,-0.09021209925413132,-0.019124355167150497,-0.09672585874795914
1761476024634247000,0.160246826171875,-0.08100087940692902,-0.009611622430384159,-0.07451262325048447
1761476024644283000,0.170282958984375,-0.07881522178649902,0.0007874881848692894,-0.04678032919764519
1761476024654318800,0.18031884765625,-0.07845612615346909,0.02186702750623226,-0.014243043959140778
1761476024664354800,0.190354736328125,-0.0711074024438858,0.045720696449279785,0.012172850780189037
1761476024674391800,0.200391845703125,-0.05724024772644043,0.0534341000020504,0.027425076812505722
1761476024684427800,0.210427734375,-0.03893767297267914,0.047868892550468445,0.03439883142709732
1761476024694463700,0.220463623046875,-0.017083968967199326,0.055512942373752594,0.037579141557216644
1761476024704499700,0.230499755859375,0.003936627879738808,0.03966313973069191,0.0508803054690361
1761476024714536700,0.24053662109375,0.023947618901729584,0.03649504482746124,0.08554906398057938
1761476024724572700,0.25057275390625,0.036718275398015976,0.03184782713651657,0.12793034315109253
1761476024734608600,0.260608642578125,0.04867488145828247,0.045264776796102524,0.1793385148048401
1761476024744644600,0.27064453125,0.04972975701093674,0.04318751394748688,0.21957142651081085
1761476024754681900,0.280681884765625,0.04445672035217285,0.007419535890221596,0.2403813749551773
1761476024764717800,0.2907177734375,0.03561662510037422,-0.061536092311143875,0.23017054796218872
1761476024774753800,0.30075390625,0.021044043824076653,-0.12340782582759857,0.21147340536117554
1761476024784789800,0.310789794921875,0.004144956357777119,-0.16991114616394043,0.1767503172159195
1761476024794826800,0.32082666015625,-0.01099433470517397,-0.2268771082162857,0.13425637781620026
1761476024804862700,0.33086279296875,-0.021953508257865906,-0.31281518936157227,0.0931243896484375
1761476024814898700,0.340898681640625,-0.03358794003725052,-0.3962942957878113,0.07416659593582153
1761476024824935700,0.350935791015625,-0.05171554535627365,-0.43342700600624084,0.0762486606836319
1761476024834971600,0.3609716796875,-0.08104031533002853,-0.44066154956817627,0.10184129327535629
1761476024845007600,0.371007568359375,-0.12939293682575226,-0.3824983835220337,0.1419767141342163
1761476024855043600,0.381043701171875,-0.19019006192684174,-0.25133016705513,0.18705320358276367
1761476024865080600,0.39108056640625,-0.262330561876297,-0.09370458871126175,0.21267227828502655
1761476024875116800,0.40111669921875,-0.33227112889289856,0.026553701609373093,0.20743267238140106
1761476024885152800,0.41115283203125,-0.3896428048610687,0.10361040383577347,0.17073804140090942
1761476024895188700,0.421188720703125,-0.43357330560684204,0.12918144464492798,0.12352573871612549
1761476024905224700,0.431224609375,-0.45925283432006836,0.11099472641944885,0.07597526162862778
1761476024915261700,0.44126171875,-0.4732457399368286,0.055801425129175186,0.032736603170633316
1761476024925297700,0.451297607421875,-0.47190403938293457,-0.006779134273529053,0.004243709146976471
1761476024935333600,0.461333740234375,-0.4596989154815674,-0.07189177721738815,-0.006982848513871431
1761476024945369600,0.47136962890625,-0.438654363155365,-0.12484606355428696,-0.000695924274623394
1761476024955406600,0.481406494140625,-0.41988232731819153,-0.14313702285289764,0.01536609511822462
1761476024965442600,0.491442626953125,-0.4065830409526825,-0.15020665526390076,0.0395079143345356
1761476024975478500,0.501478515625,-0.4042966067790985,-0.16810083389282227,0.06430651247501373
1761476024985514800,0.5115146484375,-0.4160906672477722,-0.2128312885761261,0.08567172288894653
1761476024995551700,0.5215517578125,-0.4321224093437195,-0.2724694609642029,0.0974220484495163
1761476025005587700,0.531587646484375,-0.45234352350234985,-0.3589406907558441,0.0973389595746994
1761476025015623700,0.541623779296875,-0.47189170122146606,-0.46035850048065186,0.09629563987255096
1761476025025660000,0.551659912109375,-0.4816444516181946,-0.5523379445075989,0.08832933008670807
1761476025035696600,0.561696533203125,-0.485026478767395,-0.6132209300994873,0.07853551208972931
1761476025045732900,0.57173291015625,-0.4843904972076416,-0.6379108428955078,0.07257429510354996
1761476025055768800,0.581768798828125,-0.49094027280807495,-0.6068149209022522,0.06908099353313446
1761476025065804800,0.5918046875,-0.5131550431251526,-0.5590932369232178,0.06518318504095078
1761476025075841800,0.601841796875,-0.5436493158340454,-0.5054516792297363,0.06396171450614929
1761476025085877800,0.611877685546875,-0.5819244980812073,-0.44809144735336304,0.05525370314717293
1761476025095913700,0.621913818359375,-0.6163873076438904,-0.4064839780330658,0.04784791171550751
1761476025105949700,0.63194970703125,-0.6424742937088013,-0.39092713594436646,0.03787091374397278
1761476025115987000,0.641987060546875,-0.6640051007270813,-0.39596015214920044,0.016069818288087845
1761476025126023000,0.65202294921875,-0.6754849553108215,-0.4167935252189636,-0.010773780755698681
1761476025136059000,0.662058837890625,-0.677636981010437,-0.4577375054359436,-0.044984444975852966
1761476025146094800,0.6720947265625,-0.6871623396873474,-0.5106968283653259,-0.07692373543977737
1761476025156131800,0.6821318359375,-0.6973703503608704,-0.5603870153427124,-0.10211164504289627
1761476025166167800,0.692167724609375,-0.7155434489250183,-0.5852899551391602,-0.10010814666748047
1761476025176208400,0.70220849609375,-0.7403022646903992,-0.553118884563446,-0.08389730006456375
1761476025186244600,0.71224462890625,-0.7615430951118469,-0.48052430152893066,-0.05871311575174332
1761476025196281300,0.72228125,-0.7690161466598511,-0.4110960066318512,-0.04882582277059555
1761476025206317300,0.7323173828125,-0.7694402933120728,-0.3682827651500702,-0.055836860090494156
1761476025216353500,0.742353515625,-0.7550948858261108,-0.3420249819755554,-0.07934953272342682
1761476025226389800,0.7523896484375,-0.72803795337677,-0.332946240901947,-0.11173783242702484
1761476025236426500,0.762426513671875,-0.699196994304657,-0.3442973792552948,-0.13635127246379852
1761476025246462500,0.77246240234375,-0.6731182336807251,-0.35832637548446655,-0.15647970139980316
1761476025256498700,0.782498779296875,-0.6517650485038757,-0.3808249235153198,-0.16554689407348633
1761476025266534700,0.79253466796875,-0.6283779740333557,-0.4184793531894684,-0.16450080275535583
1761476025276571400,0.8025712890625,-0.6106308698654175,-0.46112433075904846,-0.1482733190059662
1761476025286607600,0.812607666015625,-0.5952615141868591,-0.48859643936157227,-0.12127365916967392
1761476025296643600,0.8226435546875,-0.5781903862953186,-0.49382126331329346,-0.08887040615081787
1761476025306679600,0.832679443359375,-0.555292010307312,-0.5062388181686401,-0.06347290426492691
1761476025316716500,0.842716552734375,-0.5289735794067383,-0.5302207469940186,-0.0510614737868309
1761476025326752500,0.85275244140625,-0.4998753070831299,-0.5464532375335693,-0.05575849115848541
1761476025336788700,0.862788818359375,-0.4713994264602661,-0.5521767735481262,-0.065095454454422
1761476025346824700,0.87282470703125,-0.4563690721988678,-0.55167156457901,-0.07697288691997528
1761476025356861700,0.88286181640625,-0.45288679003715515,-0.5354821085929871,-0.084191232919693
1761476025366897700,0.892897705078125,-0.45580190420150757,-0.5142452716827393,-0.08341652154922485
1761476025376933600,0.90293359375,-0.4571761190891266,-0.5000024437904358,-0.07640049606561661
1761476025386969600,0.912969482421875,-0.45576223731040955,-0.509101390838623,-0.06918040663003922
1761476025397006600,0.923006591796875,-0.45159316062927246,-0.506985068321228,-0.05088779702782631
1761476025407042600,0.93304248046875,-0.4519476294517517,-0.4960552155971527,-0.027795791625976562
1761476025417078500,0.94307861328125,-0.45276427268981934,-0.4718968868255615,0.00865427777171135
1761476025427114500,0.953114501953125,-0.46367472410202026,-0.44031447172164917,0.040343496948480606
1761476025437151500,0.9631513671875,-0.47704318165779114,-0.4100332260131836,0.06498779356479645
1761476025447187700,0.973187744140625,-0.4859333634376526,-0.3872687816619873,0.07861492037773132
1761476025457223700,0.9832236328125,-0.4931972026824951,-0.3637354373931885,0.08547218143939972
1761476025467259600,0.993259765625,-0.49706730246543884,-0.354952871799469,0.08981019258499146
1761476025477295600,1.003295654296875,-0.49207714200019836,-0.3726966977119446,0.07997351139783859
1761476025487332600,1.01333251953125,-0.48660194873809814,-0.39264988899230957,0.07022740691900253
1761476025497368600,1.02336865234375,-0.48373377323150635,-0.3882472515106201,0.061728570610284805
1761476025507404500,1.033404541015625,-0.48541420698165894,-0.36428573727607727,0.06492383033037186
1761476025517440500,1.0434404296875,-0.48471495509147644,-0.3483104705810547,0.07035984098911285
1761476025527477500,1.0534775390625,-0.4862268269062042,-0.33398693799972534,0.08248308300971985
1761476025537513500,1.063513427734375,-0.49586576223373413,-0.3096425533294678,0.08768186718225479
1761476025547549400,1.073549560546875,-0.510751485824585,-0.2956194281578064,0.0804537832736969
1761476025557585400,1.08358544921875,-0.5257288217544556,-0.32944628596305847,0.04494263231754303
1761476025567622700,1.09362255859375,-0.531222403049469,-0.4239131510257721,-0.003572174347937107
1761476025577658600,1.10365869140625,-0.5202530026435852,-0.5481593012809753,-0.04986194893717766
1761476025587694600,1.113694580078125,-0.5121405124664307,-0.6280490756034851,-0.06496021151542664
1761476025597730600,1.12373046875,-0.510375440120697,-0.6494123339653015,-0.07043775916099548
1761476025607767600,1.133767578125,-0.5208874344825745,-0.6722396016120911,-0.07682215422391891
1761476025617803500,1.143803466796875,-0.5368748903274536,-0.7204798460006714,-0.10491108894348145
1761476025627839500,1.153839599609375,-0.5491478443145752,-0.75898677110672,-0.1374565064907074
1761476025637875500,1.16387548828125,-0.5482591390609741,-0.7245612144470215,-0.1594441831111908
1761476025647912400,1.173912353515625,-0.5481603145599365,-0.5925413966178894,-0.16120320558547974
1761476025657948400,1.183948486328125,-0.5392903089523315,-0.3957999646663666,-0.15627147257328033
1761476025667984400,1.193984375,-0.5287777185440063,-0.18841561675071716,-0.14986391365528107
1761476025678020400,1.204020263671875,-0.5097051858901978,0.00036159344017505646,-0.15609660744667053
1761476025688057600,1.2140576171875,-0.4850597381591797,0.19038479030132294,-0.1772889792919159
1761476025698093600,1.224093505859375,-0.4375780522823334,0.32134392857551575,-0.21283617615699768
1761476025708129500,1.234129638671875,-0.37374475598335266,0.32618582248687744,-0.24846741557121277
1761476025718165800,1.244165771484375,-0.29947957396507263,0.26224076747894287,-0.28384798765182495
1761476025728201700,1.25420166015625,-0.24300271272659302,0.16328836977481842,-0.294646292924881
1761476025738238500,1.264238525390625,-0.2167925238609314,0.0629301443696022,-0.280852347612381
1761476025748274700,1.274274658203125,-0.2035701870918274,-0.053022027015686035,-0.2304094284772873
1761476025758310700,1.284310546875,-0.18902447819709778,-0.18015114963054657,-0.1557137668132782
1761476025768346600,1.2943466796875,-0.15986712276935577,-0.2770039439201355,-0.07017676532268524
1761476025778383600,1.304383544921875,-0.11208416521549225,-0.3585759997367859,0.023811891674995422
1761476025788419600,1.314419677734375,-0.06251820921897888,-0.39468100666999817,0.10562100261449814
1761476025798455600,1.32445556640625,-0.02646747976541519,-0.39012956619262695,0.1636166274547577
1761476025808491500,1.334491455078125,-0.012306652963161469,-0.36012452840805054,0.20447830855846405
1761476025818528800,1.34452880859375,-0.023353222757577896,-0.31644201278686523,0.2146812528371811
1761476025828564700,1.354564697265625,-0.03355579450726509,-0.28472936153411865,0.1983337104320526
1761476025838600700,1.3646005859375,-0.0468023344874382,-0.28952786326408386,0.16053633391857147
1761476025848636700,1.37463671875,-0.051345422863960266,-0.29806220531463623,0.11183404922485352
1761476025858673700,1.384673583984375,-0.049840785562992096,-0.3105567991733551,0.057967659085989
1761476025868709600,1.394709716796875,-0.047625571489334106,-0.3419498801231384,0.018660467118024826
1761476025878745600,1.40474560546875,-0.0547088086605072,-0.32980382442474365,-0.0003056572750210762
1761476025888781600,1.414781494140625,-0.06405197083950043,-0.29692763090133667,0.0006959578022360802
1761476025898817500,1.424817626953125,-0.0787350982427597,-0.2758621275424957,0.011588324792683125
1761476025908854500,1.4348544921875,-0.0943010151386261,-0.26807263493537903,0.03807932138442993
1761476025918890500,1.444890380859375,-0.11386045813560486,-0.2598884105682373,0.06732988357543945
1761476025928926500,1.454926513671875,-0.1262875646352768,-0.2520723044872284,0.0938621535897255
1761476025938962400,1.46496240234375,-0.14334988594055176,-0.25798842310905457,0.118427574634552
1761476025948999700,1.474999755859375,-0.16130757331848145,-0.26407691836357117,0.13360652327537537
1761476025959035600,1.48503564453125,-0.18080423772335052,-0.25895893573760986,0.1446230709552765
1761476025969071600,1.495071533203125,-0.20908807218074799,-0.24191762506961823,0.15193797647953033
1761476025979107600,1.505107666015625,-0.2507402002811432,-0.2155512571334839,0.15919095277786255
1761476025989144600,1.51514453125,-0.3084133565425873,-0.18105772137641907,0.1659838855266571
1761476025999180500,1.5251806640625,-0.36930614709854126,-0.14208649098873138,0.1650284379720688
1761476026009216500,1.535216552734375,-0.4304744303226471,-0.09825699031352997,0.16182731091976166
1761476026019252500,1.54525244140625,-0.4748264253139496,-0.050369035452604294,0.14549385011196136
1761476026029289500,1.55528955078125,-0.5036476850509644,-0.012322849594056606,0.13832436501979828
1761476026039325400,1.565325439453125,-0.526366651058197,0.03210592269897461,0.13162699341773987
1761476026049361400,1.575361328125,-0.5365076661109924,0.07788486778736115,0.13696636259555817
1761476026059397400,1.5853974609375,-0.5421087741851807,0.10621897131204605,0.144245445728302
1761476026069434600,1.5954345703125,-0.5399412512779236,0.09835172444581985,0.1478084921836853
1761476026079470600,1.605470703125,-0.5303388237953186,0.07548964023590088,0.15265953540802002
1761476026089506600,1.615506591796875,-0.5161705017089844,0.05484108626842499,0.15440204739570618
1761476026099542500,1.62554248046875,-0.5051564574241638,0.03932363539934158,0.15778867900371552
1761476026109579500,1.63557958984375,-0.4974900186061859,0.01956590823829174,0.14952248334884644
1761476026119615500,1.645615478515625,-0.4936234652996063,0.004403797909617424,0.13735279440879822
1761476026129651500,1.6556513671875,-0.4890020787715912,0.009084036573767662,0.12666447460651398
1761476026139687400,1.6656875,-0.4954449236392975,0.04497873783111572,0.12782499194145203
1761476026149724400,1.675724365234375,-0.5049500465393066,0.07626475393772125,0.11677367240190506
1761476026159760400,1.685760498046875,-0.5116982460021973,0.07262960076332092,0.10698386281728745
1761476026169796400,1.69579638671875,-0.5137270092964172,0.045034993439912796,0.08460212498903275
1761476026179832300,1.705832275390625,-0.5034487247467041,0.005966668017208576,0.06497246026992798
1761476026189868300,1.715868408203125,-0.48604416847229004,-0.04416866973042488,0.05226358771324158
1761476026199905300,1.7259052734375,-0.47660017013549805,-0.07684372365474701,0.054113760590553284
1761476026209941500,1.73594140625,-0.47987639904022217,-0.08876456320285797,0.055405393242836
1761476026219977500,1.7459775390625,-0.5020501017570496,-0.07004538178443909,0.05366772040724754
1761476026230013400,1.756013427734375,-0.5300430655479431,-0.046557631343603134,0.041343141347169876
1761476026240050400,1.766050537109375,-0.5596883296966553,-0.018078045919537544,0.01500227116048336
1761476026250086400,1.77608642578125,-0.5823130011558533,0.007579645607620478,-0.022507287561893463
1761476026260122400,1.786122314453125,-0.5932981967926025,0.006949907168745995,-0.06838027387857437
1761476026270158300,1.796158447265625,-0.5821747183799744,-0.028419800102710724,-0.1099809780716896
1761476026280195300,1.8061953125,-0.5531355738639832,-0.07641435414552689,-0.13718022406101227
1761476026290231300,1.816231201171875,-0.5101105570793152,-0.08943720906972885,-0.13433730602264404
1761476026300267300,1.826267333984375,-0.459966778755188,-0.07293868064880371,-0.12187226116657257
1761476026310303200,1.83630322265625,-0.404074490070343,-0.055087242275476456,-0.10188443958759308
1761476026320340500,1.846340576171875,-0.35834968090057373,-0.04342345520853996,-0.07777149230241776
1761476026330376400,1.85637646484375,-0.31559979915618896,-0.023348281159996986,-0.05835678428411484
1761476026340412400,1.866412353515625,-0.2848106026649475,-0.020387833938002586,-0.04237036406993866
1761476026350448400,1.876448486328125,-0.2502813935279846,-0.03790877386927605,-0.02618713118135929
1761476026360485400,1.8864853515625,-0.21488678455352783,-0.04521549865603447,-0.01402047835290432
1761476026370521300,1.896521240234375,-0.1741630584001541,-0.05184170976281166,-0.0018983017653226852
1761476026380557300,1.906557373046875,-0.12247220426797867,-0.045322585850954056,0.004453069530427456
1761476026390593300,1.91659326171875,-0.07586847990751266,-0.014494098722934723,0.01145398709923029
1761476026400630300,1.92663037109375,-0.04442623630166054,0.01980641670525074,0.010622094385325909
1761476026410666200,1.936666259765625,-0.0287785641849041,0.02443872019648552,0.00395167525857687
1761476026420702200,1.9467021484375,-0.02988521009683609,0.012232987210154533,-0.006058007013052702
1761476026430738200,1.95673828125,-0.038498405367136,-0.002418926451355219,-0.019466755911707878
1761476026440774100,1.966774169921875,-0.05635957792401314,-0.011452287435531616,-0.0315282866358757
1761476026450811400,1.976811279296875,-0.0739486888051033,-0.012174803763628006,-0.03772120177745819
1761476026460847400,1.986847412109375,-0.0895189568400383,-0.0192841999232769,-0.05946815758943558
1761476026470883300,1.99688330078125,-0.09085825830698013,-0.030928872525691986,-0.0890689268708229
1761476026480919300,2.006919189453125,-0.08235824853181839,-0.05958634614944458,-0.11972671002149582
1761476026490956300,2.016956298828125,-0.07285981625318527,-0.07817068696022034,-0.142678365111351
1761476026500992300,2.0269921875,-0.06301175802946091,-0.062306441366672516,-0.14991840720176697
1761476026511028200,2.0370283203125,-0.06420432031154633,-0.00975668616592884,-0.14770717918872833
1761476026521064200,2.047064208984375,-0.07018551230430603,0.05401410907506943,-0.13256295025348663
1761476026531101200,2.05710107421875,-0.07134904712438583,0.11581701785326004,-0.11406649649143219
1761476026541137200,2.06713720703125,-0.07016128301620483,0.16844576597213745,-0.09701994806528091
1761476026551173000,2.077173095703125,-0.05652483552694321,0.20394757390022278,-0.08686211705207825
1761476026561209000,2.087208984375,-0.035654764622449875,0.22066162526607513,-0.08040612190961838
1761476026571246300,2.097246337890625,-0.013547863811254501,0.22234340012073517,-0.07835682481527328
1761476026581282300,2.1072822265625,0.011574178002774715,0.20889154076576233,-0.08489970862865448
1761476026591318300,2.117318359375,0.03720657154917717,0.1802593618631363,-0.09163776785135269
1761476026601354200,2.127354248046875,0.06221816688776016,0.13455697894096375,-0.10646172612905502
1761476026611391200,2.13739111328125,0.09387489408254623,0.06727220863103867,-0.11930695176124573
1761476026621427200,2.14742724609375,0.11384296417236328,0.004717119969427586,-0.12432164698839188
1761476026631463200,2.157463134765625,0.130582794547081,-0.02748316153883934,-0.13000084459781647
1761476026641499400,2.16749951171875,0.13238674402236938,-0.0213024765253067,-0.1310921609401703
1761476026651536100,2.1775361328125,0.12099293619394302,0.01204136572778225,-0.13399261236190796
1761476026661572000,2.187572021484375,0.10376426577568054,0.054472945630550385,-0.14117024838924408
1761476026671608300,2.1976083984375,0.07758992165327072,0.09276041388511658,-0.14427974820137024
1761476026681644300,2.207644287109375,0.05412594974040985,0.11495555937290192,-0.14269113540649414
1761476026691681300,2.217681396484375,0.037117406725883484,0.1315329372882843,-0.13407288491725922
1761476026701717500,2.227717529296875,0.03203507885336876,0.16317404806613922,-0.11610298603773117
1761476026711753500,2.23775341796875,0.04540840908885002,0.20002633333206177,-0.08923568576574326
1761476026721789400,2.24778955078125,0.07209494709968567,0.23555342853069305,-0.05324868857860565
1761476026731825400,2.257825439453125,0.09426390379667282,0.26766741275787354,-0.0032544974237680435
1761476026741862400,2.2678623046875,0.10011456906795502,0.32618361711502075,0.04399169236421585
1761476026751898400,2.2778984375,0.06240500882267952,0.41979745030403137,0.06820835173130035
1761476026761934300,2.287934326171875,0.0012650080025196075,0.48263484239578247,0.048859916627407074
1761476026771970300,2.29797021484375,-0.05900312215089798,0.47292813658714294,-0.01898011937737465
1761476026782007300,2.30800732421875,-0.0962454229593277,0.40473437309265137,-0.1205735132098198
1761476026792043300,2.318043212890625,-0.10119224339723587,0.2910509407520294,-0.22748452425003052
1761476026802079200,2.328079345703125,-0.0971057340502739,0.16359077394008636,-0.31979966163635254
1761476026812115200,2.338115234375,-0.10105440765619278,0.027384189888834953,-0.39038142561912537
1761476026822152400,2.34815234375,-0.10904498398303986,-0.11452086269855499,-0.42354723811149597
1761476026832188400,2.3581884765625,-0.1097232848405838,-0.22749800980091095,-0.3969190716743469
1761476026842224400,2.368224365234375,-0.11357289552688599,-0.26006340980529785,-0.3201766312122345
1761476026852260400,2.37826025390625,-0.11862410604953766,-0.21129614114761353,-0.2084311991930008
1761476026862297300,2.38829736328125,-0.14223413169384003,-0.10035868734121323,-0.08693714439868927
1761476026872333300,2.398333251953125,-0.1764962375164032,0.03779146447777748,0.030436353757977486
1761476026882369300,2.408369384765625,-0.21931102871894836,0.18456624448299408,0.11253456771373749
1761476026892405200,2.4184052734375,-0.2555907368659973,0.2991114854812622,0.14420834183692932
1761476026902442200,2.428442138671875,-0.27801522612571716,0.35592007637023926,0.13303619623184204
1761476026912478200,2.438478271484375,-0.2759685814380646,0.3814786970615387,0.09088873863220215
1761476026922514200,2.44851416015625,-0.25211644172668457,0.37584608793258667,0.03690722957253456
1761476026932550100,2.458550048828125,-0.21614006161689758,0.3367340862751007,-0.0005155112594366074
1761476026942587400,2.46858740234375,-0.17690090835094452,0.29262208938598633,-0.010013336315751076
1761476026952623400,2.478623291015625,-0.14421594142913818,0.2544856369495392,0.00897287204861641
1761476026962659300,2.488659423828125,-0.12392651289701462,0.22819538414478302,0.05530168488621712
1761476026972695300,2.4986953125,-0.1142461895942688,0.22668138146400452,0.10975480079650879
1761476026982732300,2.508732177734375,-0.1160053238272667,0.26086270809173584,0.16919611394405365
1761476026992768300,2.518768310546875,-0.1349041759967804,0.2971954345703125,0.20290108025074005
1761476027002804200,2.52880419921875,-0.15224477648735046,0.30937376618385315,0.20525705814361572
1761476027012840200,2.538840087890625,-0.1641637533903122,0.2899790108203888,0.17763394117355347
1761476027022877200,2.548877197265625,-0.15615145862102509,0.24668414890766144,0.12442855536937714
1761476027032913200,2.5589130859375,-0.12484892457723618,0.19173595309257507,0.05806417390704155
1761476027042949000,2.56894921875,-0.07821010053157806,0.12916900217533112,-0.0022155651822686195
1761476027052985000,2.578985107421875,-0.02089541032910347,0.07461494207382202,-0.04709196090698242
1761476027063022300,2.589022216796875,0.02332957088947296,0.03429951146245003,-0.07312051206827164
1761476027073058300,2.599058349609375,0.0486929826438427,0.020974919199943542,-0.07628274708986282
1761476027083094300,2.60909423828125,0.05682547762989998,0.03588462620973587,-0.059811629354953766
1761476027093130200,2.619130126953125,0.04517335072159767,0.0430876798927784,-0.03208199515938759
1761476027103166500,2.62916650390625,0.03330386057496071,0.049243852496147156,-0.0019591357558965683
1761476027113203200,2.639203125,0.02379903942346573,0.0651402622461319,0.025494592264294624
1761476027123239200,2.6492392578125,0.024255942553281784,0.061419207602739334,0.038815878331661224
1761476027133275400,2.659275390625,0.04150709882378578,0.049626998603343964,0.02819039672613144
1761476027143311400,2.669311279296875,0.06758786737918854,0.02707275189459324,-0.0033413534983992577
1761476027153348000,2.67934814453125,0.10932039469480515,0.0048068612813949585,-0.04484618455171585
1761476027163384300,2.68938427734375,0.1530877947807312,-0.026461679488420486,-0.09413167834281921
1761476027173415700,2.699415771484375,0.20120126008987427,-0.06685011833906174,-0.13078288733959198
1761476027183451600,2.70945166015625,0.2485382854938507,-0.10603632032871246,-0.14857687056064606
1761476027193488600,2.719488525390625,0.28729552030563354,-0.13757719099521637,-0.13553005456924438
1761476027203524600,2.729524658203125,0.3206822872161865,-0.1212024912238121,-0.09516870975494385
1761476027213560600,2.739560546875,0.34666353464126587,-0.10225170105695724,-0.04468369483947754
1761476027223596500,2.749596435546875,0.3761475086212158,-0.08211736381053925,0.005796521902084351
1761476027233633500,2.759633544921875,0.4107550084590912,-0.07216699421405792,0.04549013823270798
1761476027243669500,2.76966943359375,0.45735254883766174,-0.07765092700719833,0.0630246177315712
1761476027253705500,2.77970556640625,0.5063341856002808,-0.09690078347921371,0.0664592981338501
1761476027263741400,2.789741455078125,0.5490204691886902,-0.12219671905040741,0.056544315069913864
1761476027273778400,2.7997783203125,0.5802081823348999,-0.13918103277683258,0.049269624054431915
1761476027283814400,2.809814453125,0.5972797870635986,-0.15784882009029388,0.039415620267391205
1761476027293850600,2.8198505859375,0.6077697277069092,-0.1864844560623169,0.04389026388525963
1761476027303886600,2.829886474609375,0.6095314025878906,-0.1928330361843109,0.06469407677650452
1761476027313923600,2.839923583984375,0.6031140089035034,-0.16495107114315033,0.09964008629322052
1761476027323959600,2.84995947265625,0.5867933630943298,-0.10638833791017532,0.1455201804637909
1761476027333995500,2.85999560546875,0.5557790398597717,-0.03619246929883957,0.18955634534358978
1761476027344031500,2.870031494140625,0.5202457308769226,0.031244421377778053,0.21929602324962616
1761476027354068500,2.880068359375,0.46813857555389404,0.0899127945303917,0.24376168847084045
1761476027364104400,2.8901044921875,0.41834622621536255,0.1363777369260788,0.24283532798290253
1761476027374140400,2.900140380859375,0.36456766724586487,0.15147066116333008,0.23121169209480286
1761476027384176400,2.91017626953125,0.326611191034317,0.13007785379886627,0.2023848295211792
1761476027394213400,2.92021337890625,0.2971675395965576,0.09190117567777634,0.1763702780008316
1761476027404249300,2.930249267578125,0.2836066484451294,0.06315290182828903,0.14800871908664703
1761476027414285600,2.94028564453125,0.2769729793071747,0.03210204094648361,0.13026966154575348
1761476027424321500,2.950321533203125,0.2778359055519104,-0.002246520482003689,0.11845831573009491
1761476027434358500,2.960358642578125,0.27070343494415283,-0.011459726840257645,0.11933663487434387
1761476027444394500,2.97039453125,0.25574791431427,-0.008597205393016338,0.12580856680870056
1761476027454430500,2.980430419921875,0.22731360793113708,-0.010872344486415386,0.1357293725013733
1761476027464466700,2.990466796875,0.20070309937000275,-0.02201693132519722,0.14356817305088043
1761476027474503400,3.00050341796875,0.17508748173713684,-0.044016238301992416,0.14857277274131775
1761476027484539400,3.010539306640625,0.165586456656456,-0.08123727887868881,0.1382589191198349
1761476027494575600,3.02057568359375,0.16437391936779022,-0.12659038603305817,0.12952667474746704
1761476027504611600,3.030611572265625,0.16209885478019714,-0.15505027770996094,0.11664706468582153
1761476027514648300,3.0406484375,0.15816828608512878,-0.17003294825553894,0.09552659839391708
1761476027524684500,3.0506845703125,0.14378434419631958,-0.18202117085456848,0.07301078736782074
1761476027534720800,3.060720703125,0.11868591606616974,-0.19630850851535797,0.04833393916487694
1761476027544756700,3.0707568359375,0.09458253532648087,-0.20789305865764618,0.027167323976755142
1761476027554793500,3.08079345703125,0.06585341691970825,-0.20409725606441498,0.0158504880964756
1761476027564829700,3.09082958984375,0.046594537794589996,-0.19493906199932098,0.00948408804833889
1761476027574865700,3.10086572265625,0.04181735962629318,-0.1972227245569229,0.00785716250538826
1761476027584901600,3.110901611328125,0.04540429264307022,-0.2090398073196411,0.0038120485842227936
1761476027594938600,3.120938720703125,0.053679272532463074,-0.22069886326789856,0.012023905292153358
1761476027604974600,3.130974609375,0.0583379827439785,-0.23308762907981873,0.018050525337457657
1761476027615010600,3.141010498046875,0.05887674167752266,-0.24865089356899261,0.02998468279838562
1761476027625046500,3.151046630859375,0.045583952218294144,-0.23737509548664093,0.04162467271089554
1761476027635083500,3.16108349609375,0.022842686623334885,-0.22523294389247894,0.05249010771512985
1761476027645119500,3.171119384765625,-0.003965862561017275,-0.23755531013011932,0.0510408841073513
1761476027655155700,3.18115576171875,-0.03510886803269386,-0.2643882632255554,0.04188493639230728
1761476027665191700,3.191191650390625,-0.06129523366689682,-0.29396626353263855,0.02046825923025608
1761476027675228700,3.201228759765625,-0.08411985635757446,-0.3278406262397766,-0.005097821354866028
1761476027685264600,3.2112646484375,-0.103976309299469,-0.3688737154006958,-0.03040607087314129
1761476027695300600,3.221300537109375,-0.11601140350103378,-0.40731483697891235,-0.05401818826794624
1761476027705336600,3.231336669921875,-0.12888309359550476,-0.42210036516189575,-0.06723751127719879
1761476027715373600,3.24137353515625,-0.1480831503868103,-0.4135686755180359,-0.07086367905139923
1761476027725409500,3.251409423828125,-0.1628378927707672,-0.3993000090122223,-0.08084333688020706
1761476027735445500,3.261445556640625,-0.17445993423461914,-0.3885270059108734,-0.0894557312130928
1761476027745481500,3.2714814453125,-0.18904687464237213,-0.379851371049881,-0.09715486317873001
1761476027755518500,3.2815185546875,-0.19845901429653168,-0.38213637471199036,-0.0981879010796547
1761476027765554400,3.291554443359375,-0.2047940194606781,-0.38332992792129517,-0.08878141641616821
1761476027775590700,3.301590576171875,-0.21090757846832275,-0.37157073616981506,-0.0691286250948906
1761476027785626600,3.311626708984375,-0.21445582807064056,-0.3478260636329651,-0.04057333990931511
1761476027795663600,3.32166357421875,-0.22362402081489563,-0.32167330384254456,-0.01485226396471262
1761476027805699600,3.331699462890625,-0.2398087978363037,-0.30437421798706055,-0.004947545938193798
1761476027815735600,3.341735595703125,-0.2630544602870941,-0.3240123391151428,-0.03156663849949837
1761476027825771500,3.351771484375,-0.27800461649894714,-0.3615168631076813,-0.08573491871356964
1761476027835808500,3.36180859375,-0.2796696126461029,-0.4013071358203888,-0.16601590812206268
1761476027845844500,3.371844482421875,-0.2870207726955414,-0.42372429370880127,-0.2531677484512329
1761476027855880400,3.38188037109375,-0.30847254395484924,-0.4437675178050995,-0.33704984188079834
1761476027865916400,3.39191650390625,-0.3560361862182617,-0.4792748689651489,-0.4087028503417969
1761476027875953400,3.401953369140625,-0.4212152063846588,-0.5066700577735901,-0.4565744996070862
1761476027885989400,3.4119892578125,-0.48429885506629944,-0.45817700028419495,-0.4599953889846802
1761476027896025600,3.422025634765625,-0.5425621867179871,-0.31417959928512573,-0.42391860485076904
1761476027906061600,3.4320615234375,-0.5800058245658875,-0.10356408357620239,-0.3761568069458008
1761476027916098600,3.4420986328125,-0.5812287926673889,0.09782575815916061,-0.3284215033054352
1761476027926134500,3.452134521484375,-0.536868691444397,0.22348392009735107,-0.2917434275150299
1761476027936170500,3.46217041015625,-0.4473510682582855,0.25520697236061096,-0.26015034317970276
1761476027946206500,3.47220654296875,-0.327138751745224,0.22133572399616241,-0.21880994737148285
1761476027956243500,3.482243408203125,-0.19489867985248566,0.13430441915988922,-0.15481366217136383
1761476027966279400,3.492279541015625,-0.07599636167287827,0.029841840267181396,-0.059936266392469406
1761476027976315400,3.5023154296875,0.009851700626313686,-0.03875293210148811,0.05236603692173958
1761476027986351600,3.5123515625,0.06405516713857651,-0.0699574202299118,0.18196332454681396
1761476027996388400,3.522388427734375,0.08154121041297913,-0.11184734106063843,0.3017030358314514
1761476028006424300,3.53242431640625,0.07883268594741821,-0.1738656461238861,0.40403321385383606
1761476028016460500,3.54246044921875,0.05346580594778061,-0.2234015017747879,0.45559415221214294
1761476028026496800,3.552496826171875,0.01965484768152237,-0.2506006360054016,0.4581928551197052
1761476028036533500,3.562533447265625,-0.022538412362337112,-0.2594042420387268,0.4113454818725586
1761476028046569500,3.572569580078125,-0.059509336948394775,-0.24831369519233704,0.3356166183948517
1761476028056605700,3.582605712890625,-0.09389660507440567,-0.20820888876914978,0.24002590775489807
1761476028066641700,3.5926416015625,-0.115646593272686,-0.16537557542324066,0.14912818372249603
1761476028076678400,3.602678466796875,-0.13761954009532928,-0.036205075681209564,0.08679024875164032
1761476028086714600,3.612714599609375,-0.161754310131073,0.09155677258968353,0.03852485865354538
1761476028096750600,3.62275048828125,-0.18855315446853638,0.1810579001903534,0.014833644032478333
1761476028106786600,3.63278662109375,-0.21193844079971313,0.23360560834407806,0.0007333578541874886
1761476028116823600,3.642823486328125,-0.21921472251415253,0.23175311088562012,0.01090956386178732
1761476028126859500,3.652859619140625,-0.21061767637729645,0.18139894306659698,0.04734811559319496
1761476028136895700,3.662895751953125,-0.18496344983577728,0.11089149117469788,0.09178322553634644
1761476028146931700,3.672931640625,-0.16399912536144257,0.027804207056760788,0.13796566426753998
1761476028156968700,3.68296875,-0.15128760039806366,-0.04530861973762512,0.17993468046188354
1761476028167004700,3.693004638671875,-0.15072160959243774,-0.09497182816267014,0.22013813257217407
1761476028177044700,3.703044677734375,-0.1744716763496399,-0.0937931165099144,0.2398897260427475
1761476028187080700,3.713080810546875,-0.21427582204341888,-0.055060338228940964,0.2546837031841278
1761476028197117700,3.72311767578125,-0.26297545433044434,-0.024924006313085556,0.23979906737804413
1761476028207154000,3.73315380859375,-0.32002267241477966,0.006655700970441103,0.21638572216033936
1761476028217190000,3.74318994140625,-0.37249574065208435,0.042509038001298904,0.1780385971069336
1761476028227226600,3.7532265625,-0.413228303194046,0.05109923332929611,0.13396544754505157
1761476028237262800,3.763262939453125,-0.4456762671470642,0.038714468479156494,0.07924653589725494
1761476028247298800,3.773298828125,-0.47116315364837646,0.04201660305261612,0.027929138392210007
1761476028257334800,3.783334716796875,-0.48881298303604126,0.04545367881655693,-0.02241472899913788
1761476028267371800,3.793371826171875,-0.4991834759712219,0.04462045803666115,-0.06715564429759979
1761476028277407700,3.80340771484375,-0.49907323718070984,0.030461493879556656,-0.09700275212526321
1761476028287443700,3.813443603515625,-0.4863644540309906,0.011407289654016495,-0.1086917445063591
1761476028297479700,3.823479736328125,-0.46832019090652466,0.014109332114458084,-0.09916561841964722
1761476028307517000,3.833516845703125,-0.43600213527679443,0.03894378989934921,-0.07616112381219864
1761476028317553000,3.843552978515625,-0.3989817798137665,0.05264042690396309,-0.05435436591506004
1761476028327588900,3.8535888671875,-0.3589767813682556,0.044493261724710464,-0.04209746792912483
1761476028337624800,3.863624755859375,-0.31902244687080383,0.026384029537439346,-0.04141170531511307
1761476028347661800,3.873661865234375,-0.2790191173553467,0.008040975779294968,-0.05606388300657272
1761476028357697800,3.88369775390625,-0.2464289367198944,-0.0031256587244570255,-0.07873936742544174
1761476028367733800,3.893733642578125,-0.22929778695106506,-0.001603723969310522,-0.11062175035476685
1761476028377769700,3.903769775390625,-0.22732758522033691,0.008703242056071758,-0.1414816677570343
1761476028387806700,3.913806640625,-0.24028293788433075,0.048314910382032394,-0.15971480309963226
1761476028397842700,3.9238427734375,-0.26193150877952576,0.10095389187335968,-0.16914531588554382
1761476028407878700,3.933878662109375,-0.2913872003555298,0.1549168825149536,-0.17619794607162476
1761476028417914600,3.94391455078125,-0.3162821829319,0.1901654303073883,-0.18695232272148132
1761476028427951900,3.953951904296875,-0.33518412709236145,0.19693487882614136,-0.1953715831041336
1761476028437987800,3.96398779296875,-0.3482179045677185,0.16831469535827637,-0.2076261192560196
1761476028448023800,3.97402392578125,-0.354518324136734,0.13477519154548645,-0.228042334318161
1761476028458060800,3.984060791015625,-0.3712056875228882,0.10536617040634155,-0.2501431107521057
1761476028468096800,3.9940966796875,-0.40496209263801575,0.07059074938297272,-0.2734679579734802
1761476028478132700,4.0041328125,-0.44526851177215576,0.03064786083996296,-0.2892666161060333
1761476028488168700,4.014168701171875,-0.4954262673854828,-0.008585389703512192,-0.2998277246952057
1761476028498200600,4.02420068359375,-0.5374962091445923,-0.04586325213313103,-0.30917060375213623
1761476028508236500,4.034236572265625,-0.561297595500946,-0.08521442860364914,-0.3153369426727295
1761476028518273500,4.0442734375,-0.58110511302948,-0.08163833618164062,-0.31413692235946655
1761476028528309800,4.054309814453125,-0.6000269055366516,-0.042465925216674805,-0.3095378279685974
1761476028538345700,4.064345703125,-0.6092454195022583,0.004449916072189808,-0.3037553131580353
1761476028548381700,4.074381591796875,-0.5998607277870178,0.0514424592256546,-0.29557275772094727
1761476028558418700,4.084418701171875,-0.5609804391860962,0.10768841952085495,-0.28605061769485474
1761476028568454700,4.09445458984375,-0.49009090662002563,0.14532533288002014,-0.2637990415096283
1761476028578490600,4.10449072265625,-0.3973492383956909,0.17124241590499878,-0.22415043413639069
1761476028588526800,4.11452685546875,-0.31515687704086304,0.19369670748710632,-0.1734788417816162
1761476028598563600,4.1245634765625,-0.24998584389686584,0.204983189702034,-0.11940496414899826
1761476028608599600,4.134599609375,-0.21791943907737732,0.18945734202861786,-0.07097993791103363
1761476028618635800,4.1446357421875,-0.208062544465065,0.15083298087120056,-0.040915779769420624
1761476028628671700,4.154671630859375,-0.2259238064289093,0.10453324019908905,-0.042057327926158905
1761476028638708500,4.16470849609375,-0.2571243345737457,0.05266551300883293,-0.06681753695011139
1761476028648744700,4.17474462890625,-0.29534798860549927,0.006771822925657034,-0.11570362746715546
1761476028658781000,4.184781005859375,-0.33010542392730713,-0.025684921070933342,-0.18219557404518127
1761476028668817000,4.19481689453125,-0.35666802525520325,-0.04860181361436844,-0.261196106672287
1761476028678853600,4.204853515625,-0.3689934015274048,-0.05798093229532242,-0.33327242732048035
1761476028688889900,4.214889892578125,-0.36864930391311646,-0.04492255300283432,-0.3929446041584015
1761476028698925800,4.22492578125,-0.35066282749176025,-0.03125015273690224,-0.42428094148635864
1761476028708961800,4.2349619140625,-0.33619505167007446,-0.014639036729931831,-0.42193078994750977
1761476028718998800,4.244998779296875,-0.31403622031211853,0.020594583824276924,-0.39280837774276733
1761476028729034800,4.25503466796875,-0.2992190718650818,0.05198108032345772,-0.34369388222694397
1761476028739070700,4.26507080078125,-0.2869216501712799,0.08161327242851257,-0.2904362380504608
1761476028749107700,4.275107666015625,-0.2745116651058197,0.1281411349773407,-0.23488381505012512
1761476028759143700,4.285143798828125,-0.2625247836112976,0.17750228941440582,-0.18334153294563293
1761476028769180000,4.295179931640625,-0.24999994039535522,0.2270488291978836,-0.14361555874347687
1761476028779216000,4.3052158203125,-0.23909403383731842,0.2603175640106201,-0.11257216334342957
1761476028789252900,4.3152529296875,-0.22726093232631683,0.27558642625808716,-0.1013171523809433
1761476028799288800,4.325288818359375,-0.21730123460292816,0.2689783275127411,-0.10386952757835388
1761476028809324800,4.33532470703125,-0.20645663142204285,0.24532976746559143,-0.11296691745519638
1761476028819360800,4.34536083984375,-0.19266758859157562,0.2163143754005432,-0.11892121285200119
1761476028829397800,4.355397705078125,-0.18543373048305511,0.19454549252986908,-0.11987295001745224
1761476028839433700,4.365433837890625,-0.17995747923851013,0.17862431704998016,-0.11272130161523819
1761476028849469700,4.3754697265625,-0.17586801946163177,0.15881586074829102,-0.09393692761659622
1761476028859505700,4.385505615234375,-0.17488504946231842,0.1324513703584671,-0.06600809097290039
1761476028869542700,4.395542724609375,-0.1789148598909378,0.1184491291642189,-0.0259539894759655
1761476028879579000,4.405578857421875,-0.1818922758102417,0.12405454367399216,0.014984920620918274
1761476028889614800,4.41561474609375,-0.18926972150802612,0.1364378035068512,0.047322582453489304
1761476028899650800,4.42565087890625,-0.19374597072601318,0.1355493813753128,0.06359636038541794
1761476028909687800,4.435687744140625,-0.19673432409763336,0.1256742775440216,0.06485135853290558
1761476028919723800,4.445723876953125,-0.19877244532108307,0.09944026917219162,0.052004531025886536
1761476028929759700,4.455759765625,-0.20738212764263153,0.07161875069141388,0.03002801537513733
1761476028939795700,4.465795654296875,-0.21772292256355286,0.03796597942709923,-0.0013493476435542107
1761476028949832700,4.475832763671875,-0.22907981276512146,0.00907820649445057,-0.02909807860851288
1761476028959868700,4.48586865234375,-0.23312649130821228,-0.0018386230804026127,-0.048391617834568024
1761476028969904600,4.495904541015625,-0.2381936013698578,0.013969726860523224,-0.05945568159222603
1761476028979940600,4.505940673828125,-0.2512012720108032,0.05840829759836197,-0.06885317713022232
1761476028989977600,4.5159775390625,-0.2877083718776703,0.13083648681640625,-0.08631595224142075
1761476029000013800,4.526013916015625,-0.34837865829467773,0.2155628353357315,-0.12388382852077484
1761476029010049800,4.5360498046875,-0.42323604226112366,0.2522553503513336,-0.18685226142406464
1761476029020085800,4.546085693359375,-0.48218855261802673,0.2025386393070221,-0.2666051387786865
1761476029030122800,4.556122802734375,-0.5108333230018616,0.1048634722828865,-0.34580257534980774
1761476029040158700,4.56615869140625,-0.5213357210159302,-0.00008611520752310753,-0.41157758235931396
1761476029050194700,4.576194580078125,-0.528285026550293,-0.10967423766851425,-0.45401281118392944
1761476029060230700,4.586230712890625,-0.5468419194221497,-0.19060556590557098,-0.47518226504325867
1761476029070267600,4.596267578125,-0.5747153759002686,-0.22078335285186768,-0.46783286333084106
1761476029080303600,4.6063037109375,-0.6138867139816284,-0.19715896248817444,-0.4359114170074463
1761476029090342000,4.616341796875,-0.6619387865066528,-0.11565390229225159,-0.3824038505554199
1761476029100377900,4.6263779296875,-0.7156885862350464,0.018709495663642883,-0.30711016058921814
1761476029110413800,4.636413818359375,-0.778425395488739,0.203115776181221,-0.2247433066368103
1761476029120450800,4.646450927734375,-0.8328337669372559,0.4034629762172699,-0.14220714569091797
1761476029130486800,4.65648681640625,-0.8765233159065247,0.5681172609329224,-0.07947477698326111
1761476029140522800,4.666522705078125,-0.8966179490089417,0.6678729057312012,-0.04253806173801422
1761476029150558700,4.676558837890625,-0.8945480585098267,0.7057669758796692,-0.036864958703517914
1761476029160595700,4.686595703125,-0.8591794371604919,0.6803202033042908,-0.05503251403570175
1761476029170631700,4.696631591796875,-0.8099234700202942,0.599534809589386,-0.08710043132305145
1761476029180663800,4.706663818359375,-0.7526711225509644,0.4899558424949646,-0.11422659456729889
1761476029190699800,4.71669970703125,-0.7117026448249817,0.3703322410583496,-0.1344730108976364
1761476029200737000,4.726737060546875,-0.6858521103858948,0.2786475718021393,-0.13308897614479065
1761476029210773000,4.73677294921875,-0.6759591698646545,0.21613560616970062,-0.12794677913188934
1761476029220809000,4.74680908203125,-0.6637568473815918,0.1741175800561905,-0.12058819830417633
1761476029230845000,4.756844970703125,-0.6380859017372131,0.1405850350856781,-0.11766991019248962
1761476029240882000,4.7668818359375,-0.5914403200149536,0.12282228469848633,-0.12431503087282181
1761476029250918000,4.77691796875,-0.5370363593101501,0.11553595960140228,-0.13143372535705566
1761476029260953900,4.786953857421875,-0.4793805181980133,0.11136971414089203,-0.13517147302627563
1761476029270989800,4.79698974609375,-0.4364878535270691,0.11835330724716187,-0.1328357309103012
1761476029281026800,4.80702685546875,-0.40291738510131836,0.11858180165290833,-0.11532199382781982
1761476029291062800,4.817062744140625,-0.39254462718963623,0.11176300048828125,-0.0941096842288971
1761476029301098800,4.8270986328125,-0.3862172067165375,0.11699371039867401,-0.057831838726997375
1761476029311134700,4.837134765625,-0.3752788007259369,0.11604121327400208,-0.005883270408958197
1761476029321172000,4.847171875,-0.3590382933616638,0.14624358713626862,0.053273528814315796
1761476029331208000,4.8572080078125,-0.34622979164123535,0.21187308430671692,0.1093655601143837
1761476029341244000,4.867243896484375,-0.345431923866272,0.26428407430648804,0.1433296650648117
1761476029351279900,4.87727978515625,-0.35661056637763977,0.273133248090744,0.15646082162857056
1761476029361316900,4.88731689453125,-0.36371028423309326,0.2579284608364105,0.14864206314086914
1761476029371352800,4.897352783203125,-0.37308812141418457,0.2216929793357849,0.11777579039335251
1761476029381388800,4.907388916015625,-0.36835888028144836,0.17915430665016174,0.08071283996105194
1761476029391424800,4.9174248046875,-0.35454416275024414,0.12021677196025848,0.038308583199977875
1761476029401461800,4.927461669921875,-0.3386533558368683,0.060575276613235474,0.004389761947095394
1761476029411497700,4.937497802734375,-0.3181875944137573,0.005991336423903704,-0.016745805740356445
1761476029421533700,4.94753369140625,-0.2972644567489624,-0.021031225100159645,-0.01977914571762085
1761476029431570000,4.95756982421875,-0.2693740129470825,-0.03539165481925011,-0.004310861229896545
1761476029441607000,4.96760693359375,-0.2523849308490753,-0.039592526853084564,0.02075161412358284
1761476029451643000,4.977642822265625,-0.2469961792230606,-0.016141977161169052,0.05034557729959488
1761476029461679000,4.98767919921875,-0.25954553484916687,0.013689689338207245,0.07266952097415924
1761476029471715800,4.9977158203125,-0.2823076546192169,-0.0030628941021859646,0.07083190232515335
1761476029481751800,5.007751708984375,-0.30285900831222534,-0.06367430835962296,0.04496648162603378
1761476029491788000,5.0177880859375,-0.29792484641075134,-0.14527827501296997,0.01232057809829712
1761476029501824000,5.027823974609375,-0.271087110042572,-0.2265065461397171,-0.03062715381383896
1761476029511860700,5.03786083984375,-0.22114627063274384,-0.3122568130493164,-0.06531227380037308
1761476029521897000,5.04789697265625,-0.1621713638305664,-0.3742019534111023,-0.07357393205165863
1761476029531933000,5.057932861328125,-0.1213175356388092,-0.38808679580688477,-0.0614917054772377
1761476029541969000,5.067968994140625,-0.10748934000730515,-0.37845227122306824,-0.019219880923628807
1761476029552006000,5.078005859375,-0.12704986333847046,-0.34442007541656494,0.03983811289072037
1761476029562042000,5.0880419921875,-0.17071717977523804,-0.2635076642036438,0.11103639006614685
1761476029572078000,5.098078125,-0.21895651519298553,-0.19583387672901154,0.171812042593956
1761476029582114000,5.108114013671875,-0.2632211744785309,-0.158478781580925,0.2171531617641449
1761476029592151000,5.118151123046875,-0.30041563510894775,-0.13313093781471252,0.23034708201885223
1761476029602187000,5.12818701171875,-0.32433080673217773,-0.12293556332588196,0.21891678869724274
1761476029612223000,5.138222900390625,-0.3313388228416443,-0.13070207834243774,0.18973465263843536
1761476029622259000,5.148259033203125,-0.3108484745025635,-0.13958105444908142,0.16357895731925964
1761476029632296000,5.1582958984375,-0.27372848987579346,-0.15214960277080536,0.15819980204105377
1761476029642332000,5.168331787109375,-0.23862695693969727,-0.17072436213493347,0.1794305145740509
1761476029652368000,5.178367919921875,-0.2178380936384201,-0.18597516417503357,0.2303163707256317
1761476029662403800,5.18840380859375,-0.22504007816314697,-0.2004326730966568,0.2938290238380432
1761476029672441000,5.198441162109375,-0.26622021198272705,-0.20736625790596008,0.3588853180408478
1761476029682477000,5.20847705078125,-0.3223191797733307,-0.2188950777053833,0.39936110377311707
1761476029692513000,5.218512939453125,-0.3917180299758911,-0.23619906604290009,0.4193480610847473
1761476029702549000,5.228549072265625,-0.4485834538936615,-0.25392213463783264,0.4150491952896118
1761476029712586000,5.2385859375,-0.49566805362701416,-0.27248772978782654,0.39301058650016785
1761476029722622000,5.2486220703125,-0.5239683985710144,-0.28192731738090515,0.35175690054893494
1761476029732658000,5.258657958984375,-0.5491105318069458,-0.28253674507141113,0.30932700634002686
1761476029742694000,5.26869384765625,-0.5816360116004944,-0.28278812766075134,0.2642442286014557
1761476029752731000,5.27873095703125,-0.6201032400131226,-0.28864508867263794,0.21946798264980316
1761476029762766800,5.288766845703125,-0.6715787053108215,-0.28909462690353394,0.18335631489753723
1761476029772802800,5.298802734375,-0.7248560786247253,-0.2938104271888733,0.15907327830791473
1761476029782838800,5.3088388671875,-0.7757781147956848,-0.2997356951236725,0.14457768201828003
1761476029792876000,5.3188759765625,-0.8265953660011292,-0.3168245851993561,0.13849902153015137
1761476029802912000,5.328912109375,-0.8753516674041748,-0.3240039348602295,0.14699742197990417
1761476029812948000,5.338947998046875,-0.9229629635810852,-0.3237024247646332,0.1613243967294693
1761476029822984000,5.34898388671875,-0.9752242565155029,-0.3228161334991455,0.17671215534210205
1761476029833021000,5.35902099609375,-1.0255297422409058,-0.3126576244831085,0.18321247398853302
1761476029843057000,5.369056884765625,-1.072946548461914,-0.3091297447681427,0.17611408233642578
1761476029853092900,5.3790927734375,-1.1058845520019531,-0.3147912621498108,0.15457695722579956
1761476029863128800,5.38912890625,-1.1289438009262085,-0.32956409454345703,0.12313034385442734
1761476029873165800,5.399165771484375,-1.1477696895599365,-0.3533428907394409,0.07906122505664825
1761476029883201800,5.409201904296875,-1.153555154800415,-0.3756988048553467,0.038506340235471725
1761476029893237800,5.41923779296875,-1.159475564956665,-0.40143948793411255,0.009010613895952702
1761476029903273700,5.429273681640625,-1.1628657579421997,-0.42081746459007263,-0.013020653277635574
1761476029913311000,5.43931103515625,-1.1769038438796997,-0.4271976053714752,-0.009866595268249512
1761476029923347000,5.449346923828125,-1.206200122833252,-0.4308876693248749,-0.004391136579215527
1761476029933383000,5.4593828125,-1.238970160484314,-0.44363725185394287,0.007013891823589802
1761476029943419000,5.4694189453125,-1.2647322416305542,-0.4458271861076355,0.006302027963101864
1761476029953455900,5.479455810546875,-1.2831529378890991,-0.4460380971431732,-0.00847763940691948
1761476029963491800,5.489491943359375,-1.288225531578064,-0.44844186305999756,-0.03243623673915863
1761476029973527800,5.49952783203125,-1.2775977849960327,-0.46846744418144226,-0.07460997998714447
1761476029983563800,5.509563720703125,-1.2629011869430542,-0.4873913526535034,-0.1216544508934021
1761476029993600800,5.519600830078125,-1.2370476722717285,-0.4980827271938324,-0.1580299586057663
1761476030003636700,5.52963671875,-1.2037131786346436,-0.5071265697479248,-0.1855369508266449
1761476030013672700,5.539672607421875,-1.1734215021133423,-0.5174475312232971,-0.19605761766433716
1761476030023709000,5.549708984375,-1.1398065090179443,-0.5212957859039307,-0.186075821518898
1761476030033746000,5.559745849609375,-1.107670545578003,-0.5191755890846252,-0.16245032846927643
1761476030043782000,5.569781982421875,-1.0768558979034424,-0.5110135078430176,-0.12865453958511353
1761476030053818000,5.579818115234375,-1.0356706380844116,-0.5245671272277832,-0.09303517639636993
1761476030063854000,5.58985400390625,-0.9917140603065491,-0.5384589433670044,-0.054274462163448334
1761476030073890800,5.599890869140625,-0.9439846873283386,-0.5439258217811584,-0.014962893910706043
1761476030083927000,5.609927001953125,-0.892931342124939,-0.5383694171905518,0.028373394161462784
1761476030093963000,5.619962890625,-0.8553739786148071,-0.528725802898407,0.06717492640018463
1761476030103999700,5.629999755859375,-0.8360713720321655,-0.5175163149833679,0.10286501049995422
1761476030114036000,5.640035888671875,-0.8491342663764954,-0.5126968026161194,0.12441956996917725
1761476030124072000,5.650072021484375,-0.8909720182418823,-0.5337954163551331,0.12804999947547913
1761476030134108000,5.66010791015625,-0.9532544016838074,-0.5921865701675415,0.11635452508926392
1761476030144145000,5.670144775390625,-1.0241518020629883,-0.6644676923751831,0.08003567159175873
1761476030154181000,5.68018115234375,-1.0876082181930542,-0.7385035753250122,0.03624763339757919
1761476030164217000,5.690217041015625,-1.1445269584655762,-0.7949902415275574,-0.014645637944340706
1761476030174253000,5.700253173828125,-1.2049970626831055,-0.8263563513755798,-0.06075827032327652
1761476030184288800,5.710288818359375,-1.2760818004608154,-0.8339277505874634,-0.1049819216132164
1761476030194324700,5.72032470703125,-1.3480644226074219,-0.8267165422439575,-0.14411555230617523
1761476030204360700,5.730360595703125,-1.4280927181243896,-0.7733427882194519,-0.16713139414787292
1761476030214396700,5.740396728515625,-1.5097646713256836,-0.6443445086479187,-0.17749713361263275
1761476030224434000,5.750433837890625,-1.6069215536117554,-0.47520312666893005,-0.19269633293151855
1761476030234470000,5.760469970703125,-1.698936104774475,-0.33480677008628845,-0.22477707266807556
1761476030244505900,5.770505859375,-1.7751730680465698,-0.26442262530326843,-0.2721797227859497
1761476030254541800,5.780541748046875,-1.811704397201538,-0.23981504142284393,-0.3124332129955292
1761476030264578800,5.790578857421875,-1.8144704103469849,-0.21490676701068878,-0.3495374321937561
1761476030274614800,5.80061474609375,-1.789945125579834,-0.19472293555736542,-0.37316542863845825
1761476030284650800,5.810650634765625,-1.7542939186096191,-0.1727055162191391,-0.39849475026130676
1761476030294686700,5.820686767578125,-1.712597370147705,-0.17534755170345306,-0.41994208097457886
1761476030304723700,5.8307236328125,-1.6606374979019165,-0.2085941880941391,-0.4211311936378479
1761476030314759700,5.840759765625,-1.5872315168380737,-0.26805928349494934,-0.3973585367202759
1761476030324795600,5.850795654296875,-1.4980193376541138,-0.3290017545223236,-0.3482458293437958
1761476030334831600,5.86083154296875,-1.404093623161316,-0.3724990487098694,-0.27801477909088135
1761476030344868900,5.870868896484375,-1.3187440633773804,-0.40025079250335693,-0.19706347584724426
1761476030354904800,5.88090478515625,-1.2505085468292236,-0.446428507566452,-0.1409512311220169
1761476030364940800,5.89094091796875,-1.2083265781402588,-0.4926082491874695,-0.1083940863609314
1761476030374976800,5.900976806640625,-1.1783815622329712,-0.5454910397529602,-0.10283469408750534
1761476030385013800,5.911013671875,-1.157011866569519,-0.6106799244880676,-0.11917079240083694
1761476030395049700,5.9210498046875,-1.1353236436843872,-0.6704311966896057,-0.14909958839416504
1761476030405085700,5.931085693359375,-1.1074020862579346,-0.7277147173881531,-0.17834162712097168
1761476030415122000,5.941121826171875,-1.0666258335113525,-0.7803837060928345,-0.19652159512043
1761476030425158700,5.95115869140625,-1.0351425409317017,-0.8141235709190369,-0.19782839715480804
1761476030435194600,5.961194580078125,-1.0237685441970825,-0.8062243461608887,-0.17999625205993652
1761476030445230800,5.97123095703125,-1.0375676155090332,-0.7652257680892944,-0.1619722545146942
1761476030455266800,5.981266845703125,-1.073999047279358,-0.7271569967269897,-0.1589498519897461
1761476030465303800,5.9913037109375,-1.1134159564971924,-0.6949787735939026,-0.16231104731559753
1761476030475339800,6.00133984375,-1.1521953344345093,-0.6584105491638184,-0.18065869808197021
1761476030485376000,6.0113759765625,-1.1766005754470825,-0.6237529516220093,-0.2044985145330429
1761476030495412700,6.021412841796875,-1.2024832963943481,-0.6050962209701538,-0.23024089634418488
1761476030505448700,6.03144873046875,-1.216536283493042,-0.5840258002281189,-0.24816849827766418
1761476030515485000,6.04148486328125,-1.2391773462295532,-0.5328325033187866,-0.25912487506866455
1761476030525521000,6.05152099609375,-1.2705937623977661,-0.4820047616958618,-0.27389129996299744
1761476030535557600,6.0615576171875,-1.3177895545959473,-0.4292480945587158,-0.28429365158081055
1761476030545593900,6.07159375,-1.3649884462356567,-0.382647842168808,-0.3042638897895813
1761476030555629800,6.0816298828125,-1.4124404191970825,-0.34779092669487,-0.31724220514297485
1761476030565665800,6.091665771484375,-1.4377988576889038,-0.31189844012260437,-0.3225746750831604
1761476030575702800,6.101702880859375,-1.440246343612671,-0.2670665681362152,-0.3179531991481781
1761476030585739000,6.111739013671875,-1.4372007846832275,-0.2081041932106018,-0.29987832903862
1761476030595775000,6.12177490234375,-1.4373537302017212,-0.14875899255275726,-0.27958109974861145
1761476030605811000,6.13181103515625,-1.443824052810669,-0.12987878918647766,-0.2594470679759979
1761476030615848000,6.141847900390625,-1.4552240371704102,-0.13623538613319397,-0.2364325225353241
1761476030625884000,6.1518837890625,-1.460682988166809,-0.15037807822227478,-0.2104448676109314
1761476030635920000,6.161919921875,-1.4528448581695557,-0.1753762811422348,-0.1867636889219284
1761476030645955800,6.171955810546875,-1.4309722185134888,-0.21468186378479004,-0.16647225618362427
1761476030655992800,6.181992919921875,-1.3943631649017334,-0.2462373971939087,-0.14373643696308136
1761476030666028800,6.19202880859375,-1.3520081043243408,-0.267208993434906,-0.11971259117126465
1761476030676064800,6.202064697265625,-1.3091167211532593,-0.27181297540664673,-0.0898650735616684
1761476030686100700,6.212100830078125,-1.2757177352905273,-0.2656559944152832,-0.06420259177684784
1761476030696138000,6.222137939453125,-1.2621140480041504,-0.2541520893573761,-0.03906329721212387
1761476030706174000,6.232174072265625,-1.2694180011749268,-0.24075451493263245,-0.02352321892976761
1761476030716210000,6.2422099609375,-1.2887520790100098,-0.22749042510986328,-0.013582427985966206
1761476030726247000,6.252246826171875,-1.3154484033584595,-0.225288525223732,-0.015385122038424015
1761476030736283000,6.262282958984375,-1.338257908821106,-0.2214079350233078,-0.02407870814204216
1761476030746318800,6.27231884765625,-1.3535068035125732,-0.22202923893928528,-0.0473020076751709
1761476030756354800,6.282354736328125,-1.3536707162857056,-0.23179222643375397,-0.07720836997032166
1761476030766391800,6.292391845703125,-1.3440202474594116,-0.2458406686782837,-0.1077771931886673
1761476030776427800,6.302427734375,-1.3269957304000854,-0.27271395921707153,-0.1364874690771103
1761476030786463700,6.312463623046875,-1.3118904829025269,-0.299691766500473,-0.15131434798240662
1761476030796499700,6.322499755859375,-1.3083218336105347,-0.3185701370239258,-0.14986616373062134
1761476030806536700,6.33253662109375,-1.3196789026260376,-0.3125647008419037,-0.13788087666034698
1761476030816573000,6.342572998046875,-1.3429229259490967,-0.2788805663585663,-0.12273098528385162
1761476030826609000,6.35260888671875,-1.3721060752868652,-0.23535649478435516,-0.1097845584154129
1761476030836644900,6.362644775390625,-1.3921892642974854,-0.1699262410402298,-0.10019771754741669
1761476030846681900,6.372681884765625,-1.397078514099121,-0.08782258629798889,-0.0969739556312561
1761476030856717800,6.3827177734375,-1.3876166343688965,-0.014028890989720821,-0.10037291049957275
1761476030866753800,6.39275390625,-1.3585487604141235,0.020420696586370468,-0.10969983041286469
1761476030876790800,6.402790771484375,-1.3237812519073486,0.02613929472863674,-0.11393187940120697
1761476030886826800,6.41282666015625,-1.2834783792495728,0.0017410116270184517,-0.11722221225500107
1761476030896862700,6.42286279296875,-1.2482985258102417,-0.04452204331755638,-0.10797369480133057
1761476030906898700,6.432898681640625,-1.2193057537078857,-0.07270068675279617,-0.0987333282828331
1761476030916935700,6.442935791015625,-1.2017326354980469,-0.07009916007518768,-0.0856117382645607
1761476030926972000,6.452971923828125,-1.1868263483047485,-0.08377689123153687,-0.07570211589336395
1761476030937007900,6.4630078125,-1.1719424724578857,-0.0991770550608635,-0.07626879215240479
1761476030947043800,6.4730439453125,-1.163094401359558,-0.10841076821088791,-0.09165147691965103
1761476030957080800,6.483080810546875,-1.159998893737793,-0.1152382418513298,-0.11415845900774002
1761476030967116800,6.49311669921875,-1.1549484729766846,-0.12418220192193985,-0.14420557022094727
1761476030977152800,6.50315283203125,-1.1568026542663574,-0.1282501518726349,-0.17514082789421082
1761476030987188700,6.513188720703125,-1.1536436080932617,-0.12620723247528076,-0.20297245681285858
1761476030997225700,6.523225830078125,-1.1520910263061523,-0.12601596117019653,-0.2252425253391266
1761476031007261700,6.53326171875,-1.1538394689559937,-0.12829110026359558,-0.24574913084506989
1761476031017297700,6.543297607421875,-1.1497654914855957,-0.11233599483966827,-0.2667834162712097
1761476031027334700,6.553334716796875,-1.1499927043914795,-0.08279114961624146,-0.2901039123535156
1761476031037370600,6.56337060546875,-1.1463009119033813,-0.057976655662059784,-0.3106237053871155
1761476031047406800,6.57340673828125,-1.1223305463790894,-0.05663841962814331,-0.33661776781082153
1761476031057442800,6.58344287109375,-1.0807852745056152,-0.05465368553996086,-0.34873852133750916
1761476031067479800,6.593479736328125,-1.029761791229248,-0.04970979318022728,-0.33982065320014954
1761476031077515800,6.603515869140625,-0.9770830869674683,-0.05312804877758026,-0.3145090341567993
1761476031087551700,6.6135517578125,-0.9245884418487549,-0.067082479596138,-0.2728867530822754
1761476031097587700,6.623587646484375,-0.8694211840629578,-0.0676770731806755,-0.22031636536121368
1761476031107624700,6.633624755859375,-0.8224864602088928,-0.06344291567802429,-0.17024974524974823
1761476031117660700,6.64366064453125,-0.7844903469085693,-0.04758409038186073,-0.13047069311141968
1761476031127696600,6.653696533203125,-0.7645435333251953,-0.02608119323849678,-0.11219500750303268
1761476031137733600,6.663733642578125,-0.7520426511764526,-0.0026738420128822327,-0.11522217094898224
1761476031147769600,6.67376953125,-0.7372370958328247,0.007941251620650291,-0.13183070719242096
1761476031157805600,6.6838056640625,-0.7169151902198792,0.030879676342010498,-0.14788226783275604
1761476031167841800,6.693841796875,-0.6896046996116638,0.0586247518658638,-0.16304630041122437
1761476031177878800,6.703878662109375,-0.6590647101402283,0.08074593544006348,-0.16694140434265137
1761476031187919000,6.713919189453125,-0.6348224878311157,0.1018110066652298,-0.16456347703933716
1761476031197955000,6.723955078125,-0.6120172739028931,0.12885525822639465,-0.15549099445343018
1761476031207991000,6.733990966796875,-0.5931826233863831,0.16395944356918335,-0.1513143628835678
1761476031218028000,6.744028076171875,-0.575407087802887,0.1825774759054184,-0.15935823321342468
1761476031228064000,6.75406396484375,-0.5480785369873047,0.13446055352687836,-0.19942495226860046
1761476031238100000,6.764099853515625,-0.49722597002983093,-0.046894900500774384,-0.27649813890457153
1761476031248137200,6.77413720703125,-0.403633177280426,-0.38048112392425537,-0.3575546443462372
1761476031258173200,6.784173095703125,-0.28534501791000366,-0.7480548620223999,-0.3991778790950775
1761476031268209200,6.794209228515625,-0.19141584634780884,-1.014783501625061,-0.36086058616638184
1761476031278245000,6.8042451171875,-0.1735425740480423,-1.1220688819885254,-0.24748548865318298
1761476031288282000,6.8142822265625,-0.23532737791538239,-1.0629949569702148,-0.08825188875198364
1761476031298318000,6.824318115234375,-0.35001423954963684,-0.8300526142120361,0.0842367559671402
1761476031308354000,6.83435400390625,-0.48039886355400085,-0.4617329239845276,0.23067067563533783
1761476031318391000,6.84439111328125,-0.5888647437095642,-0.0747501403093338,0.3126746118068695
1761476031328427000,6.854427001953125,-0.6468254923820496,0.2122611254453659,0.3197498321533203
1761476031338463000,6.864462890625,-0.6584033966064453,0.3354091942310333,0.25531312823295593
1761476031348499000,6.8744990234375,-0.637729823589325,0.3412364721298218,0.15318383276462555
1761476031358536200,6.8845361328125,-0.6027895212173462,0.26590126752853394,0.035763684660196304
1761476031368572200,6.894572265625,-0.5690746903419495,0.1294555515050888,-0.060023028403520584
1761476031378608000,6.904608154296875,-0.552489697933197,-0.023449666798114777,-0.11384448409080505
1761476031388645000,6.91464501953125,-0.5543698668479919,-0.13355593383312225,-0.12785165011882782
1761476031398681000,6.92468115234375,-0.5862035155296326,-0.20466652512550354,-0.11304119229316711
1761476031408717000,6.934717041015625,-0.6421785950660706,-0.2534386217594147,-0.08764848858118057
1761476031418753000,6.9447529296875,-0.7060614228248596,-0.2652556300163269,-0.07860447466373444
1761476031428790000,6.9547900390625,-0.766261100769043,-0.24713975191116333,-0.09669186174869537
1761476031438826000,6.964825927734375,-0.8047035932540894,-0.23266053199768066,-0.14823371171951294
1761476031448862000,6.974862060546875,-0.8195735812187195,-0.21601231396198273,-0.21242094039916992
1761476031458898200,6.984898193359375,-0.8051303029060364,-0.1748415231704712,-0.2788006663322449
1761476031468935200,6.99493505859375,-0.7644587755203247,-0.14343778789043427,-0.3310050368309021
1761476031478971100,7.00497119140625,-0.7173182964324951,-0.1312752366065979,-0.36865997314453125
1761476031489007400,7.01500732421875,-0.6651692986488342,-0.12082019448280334,-0.3861052691936493
1761476031499044000,7.025044189453125,-0.6205872893333435,-0.10512520372867584,-0.3871009349822998
1761476031509080000,7.035080078125,-0.5797298550605774,-0.09670748561620712,-0.37149906158447266
1761476031519116300,7.0451162109375,-0.5297574996948242,-0.12689641118049622,-0.3420168161392212
1761476031529152300,7.05515234375,-0.47245773673057556,-0.12895449995994568,-0.2839183509349823
1761476031539189000,7.06518896484375,-0.40377071499824524,-0.09946588426828384,-0.21538887917995453
1761476031549225200,7.07522509765625,-0.3401360809803009,-0.0641116201877594,-0.1452939510345459
1761476031559261200,7.08526123046875,-0.29206225275993347,-0.04906107857823372,-0.09082286804914474
1761476031569298200,7.095298095703125,-0.26304659247398376,-0.04118610918521881,-0.04999688267707825
1761476031579334100,7.105334228515625,-0.2512727677822113,-0.041538968682289124,-0.035011351108551025
1761476031589370400,7.115370361328125,-0.25201472640037537,-0.038895782083272934,-0.040484149008989334
1761476031599406300,7.12540625,-0.24724502861499786,-0.060243405401706696,-0.05966458097100258
1761476031609443000,7.135443115234375,-0.23468077182769775,-0.08125894516706467,-0.07761082053184509
1761476031619479300,7.145479248046875,-0.2147839516401291,-0.09955435246229172,-0.08965073525905609
1761476031629515300,7.155515380859375,-0.19802041351795197,-0.1079648807644844,-0.09948951750993729
1761476031639552000,7.165552001953125,-0.20276805758476257,-0.12259175628423691,-0.10324039310216904
1761476031649588200,7.175588134765625,-0.23863685131072998,-0.12538035213947296,-0.11606777459383011
1761476031659624200,7.185624267578125,-0.29840192198753357,-0.11305084824562073,-0.1377498358488083
1761476031669660200,7.19566015625,-0.3583110570907593,-0.10192868858575821,-0.16250738501548767
1761476031679697200,7.205697265625,-0.4042890965938568,-0.09778207540512085,-0.18562954664230347
1761476031689733400,7.2157333984375,-0.43472981452941895,-0.10989813506603241,-0.2046373337507248
1761476031699769300,7.225769287109375,-0.4520109295845032,-0.15196773409843445,-0.21873989701271057
1761476031709806000,7.23580615234375,-0.4723236858844757,-0.18077275156974792,-0.23389221727848053
1761476031719842300,7.24584228515625,-0.4945790469646454,-0.21406927704811096,-0.2521243095397949
1761476031729878300,7.255878173828125,-0.5187187194824219,-0.23803159594535828,-0.2745262682437897
1761476031739915000,7.2659150390625,-0.5389568209648132,-0.23170369863510132,-0.3021795153617859
1761476031749951200,7.275951171875,-0.5458751916885376,-0.23659034073352814,-0.3268531560897827
1761476031759987200,7.2859873046875,-0.5330324769020081,-0.2956050932407379,-0.3182160556316376
1761476031770023200,7.296023193359375,-0.4968523681163788,-0.3224889039993286,-0.2767053544521332
1761476031780060200,7.30606005859375,-0.4509052038192749,-0.25171616673469543,-0.19070275127887726
1761476031790096400,7.316096435546875,-0.39599400758743286,-0.11118195205926895,-0.07681746780872345
1761476031800132400,7.32613232421875,-0.3640334904193878,0.05344831943511963,0.06528764218091965
1761476031810169300,7.33616943359375,-0.33475232124328613,0.1659381091594696,0.1933063268661499
1761476031820205300,7.346205322265625,-0.3097996115684509,0.22954797744750977,0.28863954544067383
1761476031830241300,7.3562412109375,-0.2836524248123169,0.2655983865261078,0.3466416001319885
1761476031840277200,7.36627734375,-0.25860217213630676,0.28623828291893005,0.3620241582393646
1761476031850314200,7.376314208984375,-0.2396572232246399,0.2918221354484558,0.34997761249542236
1761476031860350200,7.38635009765625,-0.24088439345359802,0.2834547162055969,0.3224768340587616
1761476031870386200,7.39638623046875,-0.252239853143692,0.2635560929775238,0.281085729598999
1761476031880423200,7.406423095703125,-0.2673659920692444,0.2165178805589676,0.22969400882720947
1761476031890459100,7.416459228515625,-0.28000056743621826,0.17263378202915192,0.1890898495912552
1761476031900495000,7.4264951171875,-0.29240158200263977,0.16637402772903442,0.1639247089624405
1761476031910532400,7.436532470703125,-0.30724310874938965,0.19235555827617645,0.15450191497802734
1761476031920568300,7.446568359375,-0.33022525906562805,0.20986495912075043,0.15110012888908386
1761476031930604300,7.456604248046875,-0.3513140380382538,0.1978311985731125,0.15041011571884155
1761476031940640300,7.46664013671875,-0.37172701954841614,0.1665164828300476,0.1505507379770279
1761476031950677200,7.47667724609375,-0.39112573862075806,0.121025949716568,0.1477341651916504
1761476031960713200,7.486713134765625,-0.40657392144203186,0.07249104976654053,0.1358441561460495
1761476031970749200,7.496749267578125,-0.41769129037857056,0.021375663578510284,0.12212488055229187
1761476031980786200,7.5067861328125,-0.42696458101272583,-0.04040798917412758,0.0941556766629219
1761476031990822100,7.516822265625,-0.43327760696411133,-0.1006404384970665,0.058831244707107544
1761476032000858000,7.526858154296875,-0.4349833130836487,-0.1794925481081009,0.025749683380126953
1761476032010895400,7.536895263671875,-0.42518287897109985,-0.25195419788360596,0.0024907002225518227
1761476032020931300,7.546931396484375,-0.40961021184921265,-0.2634081542491913,-0.006256927270442247
1761476032030967300,7.55696728515625,-0.38503003120422363,-0.24675166606903076,-0.004563955590128899
1761476032041003300,7.567003173828125,-0.3617226183414459,-0.23258905112743378,0.0010133357718586922
1761476032051040300,7.577040283203125,-0.3305782973766327,-0.24843700230121613,0.010076073929667473
1761476032061076200,7.587076171875,-0.30024468898773193,-0.2676064074039459,0.028057046234607697
1761476032071112200,7.5971123046875,-0.27341440320014954,-0.2723662853240967,0.04644137993454933
1761476032081149200,7.607149169921875,-0.2527875006198883,-0.28432464599609375,0.05562718212604523
1761476032091185200,7.61718505859375,-0.2412775605916977,-0.3057306110858917,0.05505380779504776
1761476032101221000,7.62722119140625,-0.2393655776977539,-0.341484010219574,0.03809751570224762
1761476032111258400,7.63725830078125,-0.2560681402683258,-0.3777064383029938,0.003126748837530613
1761476032121294300,7.64729443359375,-0.28905585408210754,-0.4053536653518677,-0.0323910154402256
1761476032131330300,7.657330322265625,-0.3289010226726532,-0.3940599858760834,-0.06743182241916656
1761476032141366300,7.6673662109375,-0.36706262826919556,-0.33661890029907227,-0.09983017295598984
1761476032151403300,7.6774033203125,-0.3864198327064514,-0.2430489957332611,-0.12686578929424286
1761476032161439200,7.687439208984375,-0.38198378682136536,-0.13842058181762695,-0.1505090594291687
1761476032171475200,7.69747509765625,-0.3659699261188507,-0.035354916006326675,-0.16633781790733337
1761476032181512700,7.7075126953125,-0.3390327990055084,0.0656580775976181,-0.18312768638134003
1761476032191548700,7.717548583984375,-0.3020090162754059,0.13588109612464905,-0.1937987059354782
1761476032201584600,7.727584716796875,-0.26457372307777405,0.1514335572719574,-0.19718864560127258
1761476032211621600,7.73762158203125,-0.21780620515346527,0.11042673885822296,-0.1904899924993515
1761476032221657600,7.74765771484375,-0.16329772770404816,0.03290759027004242,-0.1635129749774933
1761476032231693600,7.757693603515625,-0.10859028249979019,-0.04445191100239754,-0.12231414020061493
1761476032241729500,7.7677294921875,-0.059899065643548965,-0.11247068643569946,-0.07237422466278076
1761476032251766500,7.7777666015625,-0.03194998949766159,-0.1820303201675415,-0.02205832488834858
1761476032261802500,7.787802490234375,-0.0243140310049057,-0.24720115959644318,0.017696883529424667
1761476032271838500,7.79783837890625,-0.03909537196159363,-0.2841258645057678,0.04386696591973305
1761476032281875700,7.807875732421875,-0.0651356428861618,-0.30888402462005615,0.05374143272638321
1761476032291911700,7.81791162109375,-0.09540966153144836,-0.35045143961906433,0.04364911466836929
1761476032301947600,7.82794775390625,-0.1303064078092575,-0.38885992765426636,0.021931689232587814
1761476032311984600,7.837984619140625,-0.16821756958961487,-0.412344753742218,-0.0074317906983196735
1761476032322020600,7.8480205078125,-0.20897479355335236,-0.42623862624168396,-0.046817779541015625
1761476032332056600,7.858056640625,-0.2553180456161499,-0.43658551573753357,-0.08821634948253632
1761476032342093600,7.868093505859375,-0.29930388927459717,-0.4441295862197876,-0.12847848236560822
1761476032352129500,7.878129638671875,-0.3344608247280121,-0.4346258342266083,-0.16775132715702057
1761476032362165500,7.88816552734375,-0.3633350729942322,-0.4059293568134308,-0.20012225210666656
1761476032372201500,7.898201416015625,-0.3917800486087799,-0.37529635429382324,-0.2250659465789795
1761476032382238700,7.90823876953125,-0.41663846373558044,-0.3678871989250183,-0.24808527529239655
1761476032392274700,7.918274658203125,-0.4306730329990387,-0.4277752935886383,-0.28261953592300415
1761476032402310700,7.928310546875,-0.4303021728992462,-0.544378936290741,-0.3160841763019562
1761476032412347600,7.93834765625,-0.42273959517478943,-0.6210196614265442,-0.3461326062679291
1761476032422383600,7.948383544921875,-0.43269580602645874,-0.6041175723075867,-0.3631364107131958
1761476032432419600,7.958419677734375,-0.4678710997104645,-0.5714123249053955,-0.3941497206687927
1761476032442456600,7.96845654296875,-0.5206813812255859,-0.5871803164482117,-0.45495525002479553
1761476032452492500,7.978492431640625,-0.5677831172943115,-0.6568254232406616,-0.5454915165901184
1761476032462528500,7.988528564453125,-0.5868455767631531,-0.7433109879493713,-0.631364643573761
1761476032472565800,7.998565673828125,-0.578777551651001,-0.7867892384529114,-0.6910407543182373
1761476032482601700,8.008601806640625,-0.5389377474784851,-0.7313339710235596,-0.7127703428268433
1761476032492637700,8.0186376953125,-0.476067453622818,-0.5882872939109802,-0.6982182860374451
1761476032502672400,8.02867236328125,-0.3974037766456604,-0.3802405297756195,-0.6606630682945251
1761476032512708400,8.038708251953125,-0.30143463611602783,-0.16865718364715576,-0.6048291325569153
1761476032522745600,8.04874560546875,-0.19581057131290436,-0.019002795219421387,-0.517026960849762
1761476032532781600,8.058781494140625,-0.08894272148609161,0.08720061182975769,-0.40503329038619995
1761476032542817500,8.068817626953125,0.01698954775929451,0.16023755073547363,-0.26989656686782837
1761476032552854500,8.0788544921875,0.12203021347522736,0.21566911041736603,-0.12803611159324646
1761476032562890500,8.088890380859375,0.22264216840267181,0.21251679956912994,0.01292972918599844
1761476032572926500,8.098926513671875,0.3097760081291199,0.15518027544021606,0.15099306404590607
1761476032582962400,8.10896240234375,0.3834446370601654,0.020406736060976982,0.29584673047065735
1761476032592999400,8.11899951171875,0.4280398190021515,-0.13868650794029236,0.4749227464199066
1761476032603035400,8.129035400390626,0.45224320888519287,-0.16146868467330933,0.6761381030082703
1761476032613071400,8.1390712890625,0.4242139756679535,-0.04643050953745842,0.8949889540672302
1761476032623108600,8.149108642578126,0.34161287546157837,0.07363516837358475,1.1025822162628174
1761476032633144600,8.15914453125,0.2179577648639679,0.06680362671613693,1.2885427474975586
1761476032643180500,8.1691806640625,0.08509842306375504,-0.058325622230768204,1.4454126358032227
1761476032653217500,8.179217529296874,-0.03700884059071541,-0.2582893371582031,1.568291425704956
1761476032663253500,8.18925341796875,-0.11900511384010315,-0.5245931148529053,1.6254346370697021
1761476032673289500,8.19928955078125,-0.1480034738779068,-0.8421090245246887,1.579181432723999
1761476032683326500,8.209326416015625,-0.1397041231393814,-1.084580421447754,1.4201737642288208
1761476032693362400,8.219362548828125,-0.11093506217002869,-1.183438777923584,1.1608316898345947
1761476032703398400,8.2293984375,-0.08120404928922653,-1.210838794708252,0.838289201259613
1761476032713435600,8.239435546875,-0.06694787740707397,-1.16562020778656,0.4982064962387085
1761476032723471600,8.2494716796875,-0.0888838991522789,-1.0604768991470337,0.1913483440876007
1761476032733507600,8.259507568359375,-0.14539751410484314,-0.8738734722137451,-0.06510742008686066
1761476032743543600,8.26954345703125,-0.24331241846084595,-0.6812466979026794,-0.26838672161102295
1761476032753580500,8.27958056640625,-0.37364673614501953,-0.5207182765007019,-0.4422599971294403
1761476032763616500,8.289616455078125,-0.5030293464660645,-0.4635368585586548,-0.598722517490387
1761476032773652500,8.299652587890625,-0.6073818802833557,-0.5139219760894775,-0.7324299812316895
1761476032783689500,8.309689453125,-0.6534887552261353,-0.6347704529762268,-0.8299252390861511
1761476032793725400,8.319725341796875,-0.6557721495628357,-0.7961915731430054,-0.8767092227935791
1761476032803761400,8.329761474609375,-0.6341133713722229,-0.9590640068054199,-0.8842023015022278
1761476032813798400,8.33979833984375,-0.5979047417640686,-1.0895543098449707,-0.880077600479126
1761476032823834600,8.349834716796876,-0.5529240369796753,-1.2232836484909058,-0.8760506510734558
1761476032833870600,8.35987060546875,-0.5129727125167847,-1.3264139890670776,-0.8647418022155762
1761476032843907600,8.369907470703126,-0.4827630817890167,-1.3538085222244263,-0.8200851678848267
1761476032853943600,8.379943603515626,-0.4709434509277344,-1.3017884492874146,-0.7348065376281738
1761476032863979500,8.3899794921875,-0.4601329267024994,-1.1979073286056519,-0.6344326138496399
1761476032874016500,8.4000166015625,-0.438414603471756,-1.0756865739822388,-0.5246925354003906
1761476032884052500,8.410052490234374,-0.4037253260612488,-0.950340747833252,-0.43092432618141174
1761476032894088400,8.42008837890625,-0.3522176444530487,-0.8399202227592468,-0.36846521496772766
1761476032904125400,8.43012548828125,-0.29821741580963135,-0.7631272673606873,-0.35920682549476624
1761476032914161400,8.440161376953125,-0.24676942825317383,-0.7576752305030823,-0.40269386768341064
1761476032924197400,8.450197265625,-0.21101924777030945,-0.8124960660934448,-0.4921816885471344
1761476032934233300,8.4602333984375,-0.1998547464609146,-0.8835785388946533,-0.6044023036956787
1761476032944270600,8.4702705078125,-0.22811128199100494,-0.9213792681694031,-0.7194831967353821
1761476032954306600,8.480306640625,-0.30401110649108887,-0.8795508146286011,-0.8199144601821899
1761476032964342500,8.490342529296875,-0.4040902554988861,-0.7293077111244202,-0.8896676301956177
1761476032974379500,8.500379638671875,-0.5252038836479187,-0.4938115179538727,-0.9028167128562927
1761476032984415500,8.51041552734375,-0.5794143080711365,-0.38680827617645264,-0.8945363759994507
1761476032994451500,8.520451416015625,-0.5680484771728516,-0.37918126583099365,-0.873221755027771
1761476033004488400,8.530488525390625,-0.5008140206336975,-0.32716497778892517,-0.8170117735862732
1761476033014524400,8.5405244140625,-0.40351593494415283,-0.2922669053077698,-0.755014181137085
1761476033024560400,8.550560302734375,-0.3117591142654419,-0.31795549392700195,-0.7064371705055237
1761476033034597600,8.56059765625,-0.2647031843662262,-0.3649778664112091,-0.672412633895874
1761476033044633600,8.570633544921876,-0.26212817430496216,-0.419487327337265,-0.6488635540008545
1761476033054669600,8.580669677734376,-0.2719035744667053,-0.4315631687641144,-0.6360252499580383
1761476033064706600,8.59070654296875,-0.2734692394733429,-0.4164084494113922,-0.6178891062736511
1761476033074742500,8.600742431640626,-0.26245492696762085,-0.3933151066303253,-0.5929052233695984
1761476033084780500,8.610780517578124,-0.2618858516216278,-0.32888898253440857,-0.5522049069404602
1761476033094816500,8.62081640625,-0.26937463879585266,-0.2766614556312561,-0.5144155025482178
1761476033104852500,8.6308525390625,-0.3017978370189667,-0.21382136642932892,-0.49033114314079285
1761476033114889700,8.6408896484375,-0.33418774604797363,-0.11945679038763046,-0.48735079169273376
1761476033124925700,8.65092578125,-0.34663501381874084,-0.015030134469270706,-0.4988299608230591
1761476033134961700,8.660961669921875,-0.32834577560424805,0.009704507887363434,-0.5102477073669434
1761476033144998700,8.67099853515625,-0.2765834927558899,-0.0006301775574684143,-0.5123217701911926
1761476033155034600,8.68103466796875,-0.22642123699188232,-0.015126029029488564,-0.48653361201286316
1761476033165070600,8.691070556640625,-0.1919959932565689,0.004962651990354061,-0.4441196322441101
1761476033175107600,8.701107666015625,-0.19106735289096832,0.051119495183229446,-0.399222731590271
1761476033185143300,8.711143310546875,-0.2109827995300293,0.0881091058254242,-0.3604721426963806
1761476033195179300,8.72117919921875,-0.24133963882923126,0.12506233155727386,-0.32335540652275085
1761476033205216500,8.731216552734375,-0.2599039375782013,0.15985755622386932,-0.29652372002601624
1761476033215252500,8.74125244140625,-0.2752869129180908,0.1821679174900055,-0.26991555094718933
1761476033225288400,8.751288330078125,-0.2825663089752197,0.18282528221607208,-0.24928931891918182
1761476033235325400,8.761325439453126,-0.29802992939949036,0.18301703035831451,-0.2339652180671692
1761476033245361400,8.771361328125,-0.32318612933158875,0.1858547478914261,-0.21893183887004852
1761476033255397400,8.7813974609375,-0.3497655391693115,0.21176676452159882,-0.21917898952960968
1761476033265434400,8.791434326171874,-0.37439754605293274,0.23546072840690613,-0.2443964183330536
1761476033275470300,8.80147021484375,-0.3957259953022003,0.25528502464294434,-0.29219216108322144
1761476033285506300,8.81150634765625,-0.406171053647995,0.2803783416748047,-0.34617093205451965
1761476033295543300,8.821543212890624,-0.39964017271995544,0.28801071643829346,-0.39334776997566223
1761476033305579300,8.831579345703124,-0.3805360794067383,0.2875959277153015,-0.41386938095092773
1761476033315615200,8.841615234375,-0.3441029489040375,0.30178630352020264,-0.4159652888774872
1761476033325652500,8.851652587890625,-0.2895217835903168,0.29451632499694824,-0.4025585949420929
1761476033335688400,8.8616884765625,-0.23726630210876465,0.2612164318561554,-0.381778746843338
1761476033345724400,8.871724365234375,-0.18966332077980042,0.22856031358242035,-0.358749657869339
1761476033355761400,8.881761474609375,-0.15649764239788055,0.20370610058307648,-0.34679049253463745
1761476033365797400,8.89179736328125,-0.1291501820087433,0.18656893074512482,-0.3432292938232422
1761476033375833300,8.901833251953125,-0.10703741014003754,0.16425536572933197,-0.3480117917060852
1761476033385870300,8.911870361328125,-0.08019246906042099,0.1580665558576584,-0.34040567278862
1761476033395906300,8.92190625,-0.037258852273225784,0.15501298010349274,-0.31675466895103455
1761476033405942300,8.9319423828125,0.012290257960557938,0.12357254326343536,-0.2923707962036133
1761476033415979300,8.941979248046875,0.053127437829971313,0.06453453004360199,-0.2712404727935791
1761476033426015500,8.952015380859375,0.06570225954055786,-0.0091784056276083,-0.2554161548614502
1761476033436051500,8.962051513671875,0.06913907080888748,-0.036659032106399536,-0.24954546988010406
1761476033446088200,8.972088134765626,0.07289813458919525,-0.0494290329515934,-0.2513674795627594
1761476033456124400,8.98212451171875,0.0653504729270935,-0.07762045413255692,-0.24175772070884705
1761476033466160400,8.992160400390626,0.039633553475141525,-0.12981688976287842,-0.24538740515708923
1761476033476197000,9.002197021484376,0.0019801855087280273,-0.19595782458782196,-0.27008846402168274
1761476033486233300,9.0122333984375,-0.01442224532365799,-0.2439914047718048,-0.3172502815723419
1761476033496269300,9.022269287109374,0.015106086619198322,-0.23135097324848175,-0.37077397108078003
1761476033506305300,9.03230517578125,0.08162538707256317,-0.1321079581975937,-0.4001002013683319
1761476033516342500,9.042342529296874,0.1634451448917389,0.0004247836768627167,-0.40073296427726746
1761476033526378500,9.05237841796875,0.2242819219827652,0.10847464948892593,-0.3842105567455292
1761476033536414500,9.06241455078125,0.2425331175327301,0.22954542934894562,-0.34281012415885925
1761476033546451500,9.072451416015625,0.20409786701202393,0.3264443874359131,-0.28190863132476807
1761476033556487400,9.0824873046875,0.12649814784526825,0.36548125743865967,-0.21729478240013123
1761476033566523400,9.0925234375,0.02534136176109314,0.3323458731174469,-0.14445309340953827
1761476033576560400,9.102560302734375,-0.07152526080608368,0.26194626092910767,-0.08121633529663086
1761476033586596400,9.112596435546875,-0.15660922229290009,0.2170243114233017,-0.03946381062269211
1761476033596632300,9.12263232421875,-0.2161034494638443,0.17169570922851562,-0.01107611134648323
1761476033606669300,9.13266943359375,-0.2636180818080902,0.1621086448431015,-0.001381130889058113
1761476033616705300,9.142705322265625,-0.2949006259441376,0.20122328400611877,-0.004645100794732571
1761476033626741500,9.152741455078125,-0.3205597996711731,0.2859150767326355,-0.012526514939963818
1761476033636778200,9.1627783203125,-0.3341270089149475,0.3669004738330841,-0.019765252247452736
1761476033646814500,9.172814453125,-0.3467429578304291,0.443723201751709,-0.026531830430030823
1761476033656850400,9.182850341796875,-0.36190328001976013,0.5136175751686096,-0.03133431077003479
1761476033666887200,9.19288720703125,-0.3748031556606293,0.5487052202224731,-0.040865812450647354
1761476033676923400,9.20292333984375,-0.36904487013816833,0.5434262752532959,-0.05463675409555435
1761476033686959400,9.21295947265625,-0.3534117639064789,0.49969008564949036,-0.06704416126012802
1761476033696996000,9.22299609375,-0.31601616740226746,0.4400653541088104,-0.06888014823198318
1761476033707032300,9.2330322265625,-0.2555275559425354,0.37372565269470215,-0.058765336871147156
1761476033717068300,9.243068359375,-0.17319193482398987,0.28442373871803284,-0.021615836769342422
1761476033727105300,9.253105224609374,-0.08664831519126892,0.20376364886760712,0.02569085918366909
1761476033737141200,9.263141357421874,-0.006059196777641773,0.15739774703979492,0.07981055229902267
1761476033747177500,9.273177490234374,0.05330762267112732,0.16506171226501465,0.12622348964214325
1761476033757213400,9.28321337890625,0.09041158109903336,0.19516554474830627,0.17052437365055084
1761476033767250200,9.293250244140625,0.09364829957485199,0.22975926101207733,0.20868141949176788
1761476033777286400,9.303286376953125,0.07813485711812973,0.2724238932132721,0.22901253402233124
1761476033787322400,9.313322265625,0.05454424023628235,0.3033585548400879,0.22931364178657532
1761476033797359000,9.323359130859375,0.0323590487241745,0.3333231210708618,0.22971391677856445
1761476033807395300,9.333395263671875,0.014075127430260181,0.36601805686950684,0.2178601175546646
1761476033817431300,9.343431396484375,0.0046579232439398766,0.3956678509712219,0.20690281689167023
1761476033827468300,9.35346826171875,0.014168843626976013,0.40739694237709045,0.19866369664669037
1761476033837504500,9.36350439453125,0.03741583973169327,0.4263264238834381,0.1993393450975418
1761476033847540500,9.37354052734375,0.07337981462478638,0.4384850263595581,0.20464761555194855
1761476033857577200,9.3835771484375,0.11461486667394638,0.4404893219470978,0.21990565955638885
1761476033867613400,9.393613525390625,0.15248364210128784,0.44084301590919495,0.2323296219110489
1761476033877649400,9.4036494140625,0.17759431898593903,0.4236682653427124,0.24484862387180328
1761476033887686100,9.41368603515625,0.19473907351493835,0.3789529502391815,0.2611004114151001
1761476033897722400,9.423722412109376,0.210755854845047,0.3363732695579529,0.2764042615890503
1761476033907758300,9.43375830078125,0.22512474656105042,0.29338034987449646,0.29742947220802307
1761476033917795000,9.443795166015626,0.23933804035186768,0.2490704357624054,0.32506564259529114
1761476033927831300,9.453831298828124,0.2458937168121338,0.25029489398002625,0.35895368456840515
1761476033937867500,9.463867431640624,0.2402036190032959,0.276947021484375,0.3847586512565613
1761476033947904300,9.473904296875,0.2214578539133072,0.3093324303627014,0.4050235450267792
1761476033957940200,9.483940185546874,0.20753031969070435,0.37830376625061035,0.4153379797935486
1761476033967976400,9.4939765625,0.19768069684505463,0.4500032067298889,0.41303297877311707
1761476033978012400,9.504012451171874,0.1972937285900116,0.49608734250068665,0.39949771761894226
1761476033988049200,9.514049072265625,0.19950926303863525,0.48650115728378296,0.3683069944381714
1761476033998085400,9.52408544921875,0.2053927183151245,0.4427342414855957,0.34117522835731506
1761476034008121300,9.534121337890625,0.20236149430274963,0.3852044939994812,0.30750980973243713
1761476034018158000,9.544157958984375,0.1842261701822281,0.3713510036468506,0.276772677898407
1761476034028194300,9.5541943359375,0.15067681670188904,0.3831789791584015,0.2479882836341858
1761476034038230300,9.564230224609375,0.10517831891775131,0.43681958317756653,0.22705982625484467
1761476034048267300,9.574267333984375,0.06374478340148926,0.4819616675376892,0.19605714082717896
1761476034058303200,9.58430322265625,0.0343586690723896,0.5044549703598022,0.17850130796432495
1761476034068339500,9.59433935546875,0.022794704884290695,0.5272661447525024,0.18166716396808624
1761476034078376200,9.604376220703125,0.020129147917032242,0.5424730777740479,0.19444634020328522
1761476034088412200,9.614412109375,0.028803613036870956,0.5613445043563843,0.21207952499389648
1761476034098448400,9.624448486328125,0.03161085024476051,0.5484108328819275,0.2122238725423813
1761476034108485000,9.634485107421876,0.03535504639148712,0.5071313977241516,0.2039586454629898
1761476034118521000,9.64452099609375,0.032598141580820084,0.48282235860824585,0.1937776505947113
1761476034128557300,9.654557373046876,0.021344222128391266,0.4778645932674408,0.17553582787513733
1761476034138593300,9.66459326171875,0.00313459150493145,0.4652276039123535,0.16348209977149963
1761476034148630300,9.67463037109375,-0.013192757964134216,0.4480307996273041,0.15795022249221802
1761476034158666500,9.68466650390625,-0.021425653249025345,0.4017314612865448,0.16813893616199493
1761476034168702500,9.694702392578124,-0.019317343831062317,0.36300599575042725,0.18366223573684692
1761476034178739200,9.7047392578125,-0.022559477016329765,0.33602336049079895,0.19587871432304382
1761476034188771300,9.714771240234375,-0.023005817085504532,0.2930227816104889,0.1978754848241806
1761476034198807300,9.724807373046875,-0.026650086045265198,0.24783852696418762,0.18637648224830627
1761476034208844300,9.73484423828125,-0.044133029878139496,0.2097950428724289,0.17192253470420837
1761476034218880300,9.74488037109375,-0.060841165482997894,0.18411578238010406,0.16400495171546936
1761476034228916500,9.75491650390625,-0.07883765548467636,0.1785595864057541,0.1574268639087677
1761476034238953500,9.764953369140626,-0.09761347621679306,0.19652366638183594,0.14962752163410187
1761476034248989400,9.774989501953126,-0.10757720470428467,0.20091111958026886,0.1335732340812683
1761476034259025400,9.785025390625,-0.11038657277822495,0.19789987802505493,0.11074994504451752
1761476034269061400,9.795061279296876,-0.11871294677257538,0.19788816571235657,0.10077959299087524
1761476034279098400,9.805098388671874,-0.1385124772787094,0.20348772406578064,0.10067306458950043
1761476034289134300,9.81513427734375,-0.15804016590118408,0.2113957405090332,0.11534532904624939
1761476034299170300,9.82517041015625,-0.1690656542778015,0.21354889869689941,0.14845295250415802
1761476034309207300,9.835207275390625,-0.1775258183479309,0.2402275800704956,0.19721058011054993
1761476034319243300,9.8452431640625,-0.18858273327350616,0.26883605122566223,0.25222137570381165
1761476034329279200,9.855279296875,-0.2085961550474167,0.28215491771698,0.2841081917285919
1761476034339316500,9.86531640625,-0.2397972196340561,0.2808215022087097,0.291877418756485
1761476034349352400,9.8753525390625,-0.2789437770843506,0.2799243628978729,0.28044602274894714
1761476034359388400,9.885388427734375,-0.3210422396659851,0.27212637662887573,0.2579559087753296
1761476034369424400,9.89542431640625,-0.36153271794319153,0.2872720956802368,0.23042510449886322
1761476034379461400,9.90546142578125,-0.39289358258247375,0.27792173624038696,0.19732734560966492
1761476034389497300,9.915497314453125,-0.40761256217956543,0.2609846591949463,0.16725701093673706
1761476034399533300,9.925533203125,-0.41196897625923157,0.24680864810943604,0.14472585916519165
1761476034409570300,9.9355703125,-0.41530275344848633,0.23397770524024963,0.13360321521759033
1761476034419606300,9.945606201171875,-0.41274771094322205,0.20726913213729858,0.12967506051063538
1761476034429642200,9.955642333984375,-0.40414169430732727,0.15184608101844788,0.1370040774345398
1761476034439679500,9.965679443359376,-0.39421582221984863,0.07427511364221573,0.16737902164459229
1761476034449715500,9.975715576171876,-0.3903059661388397,0.02323252707719803,0.2121785581111908
1761476034459751400,9.98575146484375,-0.3916010558605194,-0.006241476163268089,0.2641184628009796
1761476034469788400,9.995788330078126,-0.40312570333480835,-0.042112208902835846,0.2965202331542969
1761476034479824400,10.005824462890626,-0.4323379099369049,-0.09662313014268875,0.30318692326545715
1761476034489860400,10.0158603515625,-0.46465572714805603,-0.13627663254737854,0.2782658338546753
1761476034499896300,10.025896240234376,-0.49609407782554626,-0.14002183079719543,0.2381969541311264
1761476034509933300,10.035933349609374,-0.5217876434326172,-0.12743733823299408,0.20253092050552368
1761476034519969300,10.04596923828125,-0.5377317667007446,-0.10932118445634842,0.1749962419271469
1761476034530005200,10.056005126953124,-0.553270161151886,-0.12287966907024384,0.1555253267288208
1761476034540042500,10.06604248046875,-0.5624343156814575,-0.1590517908334732,0.15213458240032196
1761476034550078500,10.076078369140625,-0.5683093667030334,-0.19382452964782715,0.17028820514678955
1761476034560114400,10.086114501953125,-0.5725448131561279,-0.2144605666399002,0.19896912574768066
1761476034570151400,10.0961513671875,-0.5790050029754639,-0.24015294015407562,0.22354809939861298
1761476034580187400,10.1061875,-0.5874008536338806,-0.27633437514305115,0.23911987245082855
1761476034590223400,10.116223388671875,-0.6043259501457214,-0.30709487199783325,0.2333858609199524
1761476034600259300,10.12625927734375,-0.6428267359733582,-0.33189529180526733,0.20239412784576416
1761476034610296300,10.13629638671875,-0.7001174688339233,-0.35922154784202576,0.12846727669239044
1761476034620332300,10.146332275390625,-0.7600966691970825,-0.423722505569458,0.022258810698986053
1761476034630368300,10.1563681640625,-0.7870187163352966,-0.5370903015136719,-0.07315518707036972
1761476034640405200,10.1664052734375,-0.7842652797698975,-0.6278676390647888,-0.13450482487678528
1761476034650441500,10.17644140625,-0.7763462066650391,-0.6488271355628967,-0.17287099361419678
1761476034660477400,10.1864775390625,-0.8177897930145264,-0.6524996757507324,-0.22489051520824432
1761476034670514400,10.196514404296876,-0.9173307418823242,-0.7004440426826477,-0.3079780638217926
1761476034680550400,10.20655029296875,-1.0452392101287842,-0.7891421914100647,-0.4058535099029541
1761476034690586400,10.21658642578125,-1.1459484100341797,-0.8452931046485901,-0.4867432117462158
1761476034700622300,10.226622314453126,-1.2039214372634888,-0.8177187442779541,-0.5429404377937317
1761476034710659300,10.236659423828126,-1.2314558029174805,-0.6821794509887695,-0.5725928544998169
1761476034720695300,10.2466953125,-1.26839280128479,-0.456838458776474,-0.599273681640625
1761476034730731300,10.256731201171876,-1.3027317523956299,-0.1505317986011505,-0.6222284436225891
1761476034740768300,10.266768310546874,-1.319221019744873,0.12820182740688324,-0.6320757865905762
1761476034750804200,10.27680419921875,-1.2908027172088623,0.2934489846229553,-0.610206663608551
1761476034760840200,10.286840087890624,-1.2082934379577637,0.36077794432640076,-0.5598388314247131
1761476034770877400,10.29687744140625,-1.083298921585083,0.32104936242103577,-0.47546178102493286
1761476034780913400,10.306913330078125,-0.9267883896827698,0.20148593187332153,-0.3718278110027313
1761476034790949400,10.316949462890625,-0.783694863319397,0.04981303587555885,-0.26355117559432983
1761476034800986400,10.326986328125,-0.6743502616882324,-0.1536889523267746,-0.15790331363677979
1761476034811022300,10.337022216796875,-0.6040279269218445,-0.3192567229270935,-0.04219098016619682
1761476034821058300,10.347058349609375,-0.5867456197738647,-0.4066329002380371,0.06763351708650589
1761476034831094300,10.35709423828125,-0.6159956455230713,-0.43984463810920715,0.15462657809257507
1761476034841131300,10.36713134765625,-0.6790481209754944,-0.43891146779060364,0.19884836673736572
1761476034851167200,10.377167236328125,-0.740863561630249,-0.4068841338157654,0.19946056604385376
1761476034861203200,10.387203125,-0.7856960296630859,-0.3453235626220703,0.16254036128520966
1761476034871240400,10.397240478515625,-0.810732364654541,-0.2662763297557831,0.10044138133525848
1761476034881276400,10.4072763671875,-0.8281963467597961,-0.1874411553144455,0.037132710218429565
1761476034891312400,10.4173125,-0.8559874892234802,-0.09642233699560165,-0.022836515679955482
1761476034901349400,10.427349365234376,-0.899422824382782,-0.03793186694383621,-0.07817487418651581
1761476034911385300,10.43738525390625,-0.9619314074516296,-0.026659920811653137,-0.12925873696804047
1761476034921421300,10.44742138671875,-1.0259928703308105,-0.045544929802417755,-0.17311540246009827
1761476034931457300,10.457457275390626,-1.0786198377609253,-0.08352259546518326,-0.19928716123104095
1761476034941494300,10.467494384765626,-1.1070524454116821,-0.11387570947408676,-0.2135835438966751
1761476034951530200,10.4775302734375,-1.0942202806472778,-0.12058434635400772,-0.21378034353256226
1761476034961566200,10.487566162109376,-1.0444378852844238,-0.12209383398294449,-0.19826635718345642
1761476034971603500,10.497603515625,-0.9702621102333069,-0.10256890207529068,-0.16853365302085876
1761476034981639400,10.507639404296874,-0.899718165397644,-0.08502133190631866,-0.12580643594264984
1761476034991675400,10.51767529296875,-0.8366919159889221,-0.08334679901599884,-0.07720548659563065
1761476035001711400,10.52771142578125,-0.7845900654792786,-0.0944545716047287,-0.020047390833497047
1761476035011748400,10.537748291015625,-0.7474019527435303,-0.10375433415174484,0.041220761835575104
1761476035021784300,10.547784423828125,-0.7201666235923767,-0.10451439768075943,0.10636807233095169
1761476035031820300,10.5578203125,-0.7110471129417419,-0.10701420158147812,0.15965841710567474
1761476035041857300,10.567857177734375,-0.7268534898757935,-0.11346996575593948,0.19897519052028656
1761476035051893200,10.577893310546875,-0.7687168121337891,-0.12062788009643555,0.2132960855960846
1761476035061929200,10.58792919921875,-0.8241763114929199,-0.1217847615480423,0.20776017010211945
1761476035071966500,10.597966552734375,-0.8702735304832458,-0.12911111116409302,0.19714052975177765
1761476035082002400,10.60800244140625,-0.9034133553504944,-0.09868316352367401,0.1795908361673355
1761476035092038400,10.618038330078125,-0.9279570579528809,-0.035408198833465576,0.15274731814861298
1761476035102074400,10.628074462890625,-0.9483821988105774,-0.018844138830900192,0.11204676330089569
1761476035112111400,10.638111328125,-0.9698866009712219,-0.01304405927658081,0.05911286920309067
1761476035122147300,10.648147216796875,-0.9873108863830566,0.005109910387545824,0.002391001209616661
1761476035132183300,10.658183349609375,-0.9971743226051331,0.0058237239718437195,-0.046464309096336365
1761476035142220300,10.66822021484375,-0.9865459203720093,0.001693161204457283,-0.07208684831857681
1761476035152256300,10.67825634765625,-0.9624283313751221,0.0040898919105529785,-0.06836415827274323
1761476035162292200,10.688292236328126,-0.9276586174964905,0.019243277609348297,-0.050308726727962494
1761476035172328200,10.698328125,-0.8824712634086609,0.02480439655482769,-0.026995718479156494
1761476035182365700,10.70836572265625,-0.8321556448936462,0.0049888803623616695,-0.012999475933611393
1761476035192401700,10.718401611328124,-0.7784005999565125,-0.038004934787750244,-0.0027459822595119476
1761476035202437600,10.728437744140624,-0.725165069103241,-0.1084279716014862,0.0075740329921245575
1761476035212474600,10.738474609375,-0.6708725094795227,-0.209344744682312,0.03306455910205841
1761476035222510600,10.748510498046874,-0.6218045353889465,-0.2849864959716797,0.06805423647165298
1761476035232546600,10.758546630859374,-0.5805534720420837,-0.2785305976867676,0.12091293185949326
1761476035242582500,10.76858251953125,-0.5508496165275574,-0.2212420105934143,0.1727692186832428
1761476035252619800,10.778619873046875,-0.5265135169029236,-0.1706102043390274,0.20594562590122223
1761476035262655700,10.78865576171875,-0.5171349048614502,-0.14384250342845917,0.2064841091632843
1761476035272691700,10.798691650390625,-0.5219741463661194,-0.1272929310798645,0.1652751863002777
1761476035282728700,10.808728759765625,-0.5293101072311401,-0.11100343614816666,0.09737523645162582
1761476035292764700,10.8187646484375,-0.5402008295059204,-0.09107355773448944,0.028516694903373718
1761476035302800600,10.828800537109375,-0.5402543544769287,-0.09114812314510345,-0.03657229244709015
1761476035312836600,10.838836669921875,-0.5277677178382874,-0.11124935001134872,-0.07892253994941711
1761476035322873600,10.84887353515625,-0.5054954290390015,-0.14420491456985474,-0.09871301800012589
1761476035332909600,10.85890966796875,-0.48853644728660583,-0.15773600339889526,-0.11572277545928955
1761476035342945500,10.868945556640625,-0.46395227313041687,-0.15322621166706085,-0.13100479543209076
1761476035352982800,10.878982666015625,-0.4476349949836731,-0.14155147969722748,-0.13554498553276062
1761476035363018800,10.889018798828126,-0.4414128065109253,-0.12813366949558258,-0.1233580932021141
1761476035373054700,10.8990546875,-0.4383634626865387,-0.11138398945331573,-0.08485855907201767
1761476035383090700,10.909090576171875,-0.4429060220718384,-0.08271718770265579,-0.03535492345690727
1761476035393127700,10.919127685546876,-0.4439617991447449,-0.02395036816596985,0.0006905822083353996
1761476035403163600,10.92916357421875,-0.427368700504303,0.026801757514476776,0.012592248618602753
1761476035413199600,10.93919970703125,-0.4084266126155853,0.07107184082269669,0.0004040626809000969
1761476035423236600,10.949236572265624,-0.3920532464981079,0.10858885943889618,-0.03666048124432564
1761476035433272600,10.9592724609375,-0.3809945285320282,0.12353602796792984,-0.08300139009952545
1761476035443308500,10.96930859375,-0.3692625164985657,0.07949665933847427,-0.12499970197677612
1761476035453344500,10.979344482421874,-0.3589218556880951,0.015372227877378464,-0.1449836641550064
1761476035463381800,10.9893818359375,-0.36001724004745483,0.0024777338840067387,-0.14677198231220245
1761476035473417700,10.999417724609375,-0.37024739384651184,0.022694116458296776,-0.13647328317165375
1761476035483453700,11.00945361328125,-0.39796051383018494,0.01844983547925949,-0.11831852048635483
1761476035493490700,11.01949072265625,-0.4353135824203491,0.04837477207183838,-0.07625433802604675
1761476035503526700,11.029526611328125,-0.48337724804878235,0.0602324977517128,-0.025962673127651215
1761476035513562600,11.039562744140625,-0.5378516316413879,0.017351729795336723,0.008694706484675407
1761476035523598600,11.0495986328125,-0.5940076112747192,-0.03273114562034607,0.026904072612524033
1761476035533635600,11.059635498046875,-0.6409288644790649,-0.05637555196881294,0.044704463332891464
1761476035543671600,11.069671630859375,-0.6649817228317261,-0.0641796886920929,0.07136190682649612
1761476035553707500,11.07970751953125,-0.6746124625205994,-0.08591431379318237,0.09081686288118362
