time,seconds_elapsed,z,y,x
1761475675515937800,0.060937744140625,-0.2397194412231445,-0.19889511727318165,0.2679555017568171
1761475675525915000,0.070914794921875,-0.23848960716724393,-0.19657047371789813,0.21312033424153923
1761475675535891700,0.0808916015625,-0.16321254012584685,-0.14070420958921312,0.2688157718479633
1761475675545868800,0.090868896484375,-0.031179566639661788,-0.09201339004784823,0.4894648941591382
1761475675555845600,0.100845703125,0.07307575760483741,-0.06590674275830388,0.7663387386478483
1761475675565822700,0.11082275390625,0.24053718734681606,-0.01989931708201766,0.8993572160400449
1761475675575800800,0.12080078125,0.2733177594423294,0.022483488356322048,1.0507061537623406
1761475675585777700,0.130777587890625,0.23806349070966243,0.10316855192109942,1.1115320861250162
1761475675595754800,0.140754638671875,0.1937970634818077,0.16515549088716505,1.085494412418455
1761475675605731800,0.15073193359375,0.2359042668491602,0.20201383381560445,0.993140465304628
1761475675615709000,0.160708984375,0.22652210599780082,0.14162424704357982,0.9485886452641338
1761475675625686000,0.17068603515625,0.20644494813084602,0.03261749048829078,0.9046158672206104
1761475675635662800,0.180662841796875,0.21800036136806009,0.013301964643597602,0.8965986380469053
1761475675645640000,0.190639892578125,0.25713819353580475,0.03424421490728855,0.8251667751915752
1761475675655616800,0.20061669921875,0.1476817935168743,-0.04958163090124726,0.6855966111335903
1761475675665593900,0.21059375,-0.04435293646752834,-0.13487901056706905,0.5785264486640691
1761475675675570700,0.22057080078125,-0.02706979323327541,-0.10743322362825274,0.4385296566918492
1761475675685547800,0.2305478515625,0.1577127736657858,-0.13509659884050487,0.3848454127773642
1761475675695524900,0.24052490234375,0.42824294821619985,-0.19965835673063992,0.5203475967440754
1761475675705501700,0.250501708984375,0.5330658432155847,-0.2771421400360763,0.6083312928844243
1761475675715478800,0.260478759765625,0.43384909766018387,-0.3684000355415046,0.5627653273653239
1761475675725456000,0.270455810546875,0.12229250071644782,-0.4566488123588264,0.4684131191063672
1761475675735433000,0.280432861328125,0.06117898358404636,-0.3375391794621944,0.304918693299219
1761475675745409800,0.290409912109375,0.06545768381655216,-0.24811054521054027,0.2871653022047132
1761475675755388000,0.300387939453125,0.08241524835824966,-0.27387261684611436,0.40841143567338584
1761475675765365000,0.310364990234375,0.1808697773694992,-0.33877149773612614,0.5411219430949539
1761475675775341800,0.320341796875,0.33336335508227344,-0.34142975715994833,0.5453843497797847
1761475675785319000,0.33031884765625,0.36211306422650813,-0.40519671141058206,0.5976307429108768
1761475675795295700,0.340295654296875,0.21930969040095805,-0.4757004265703261,0.5160017495594919
1761475675805272800,0.35027294921875,-0.056709729215502734,-0.501305115687102,0.3585946808420121
1761475675815250000,0.36025,-0.20555939746797083,-0.4088724773138761,0.18645108463317156
1761475675825226800,0.370226806640625,-0.20368483576774596,-0.3466331710219383,0.1679775625705719
1761475675835203800,0.380203857421875,-0.10833470251262187,-0.39869755864962936,0.2744541430611163
1761475675845180700,0.3901806640625,0.03478255956768989,-0.48181204131841654,0.365699690541625
1761475675855157800,0.40015771484375,0.1945323920190334,-0.5398373831771314,0.40559930086210366
1761475675865134600,0.410134521484375,0.24109131409823892,-0.5819100997529923,0.31432839974462984
1761475675875112000,0.42011181640625,0.23517419900894163,-0.5911874850556254,0.17299648671112955
1761475675885089000,0.430089111328125,0.11096388197243214,-0.6013653263293206,0.13427176538892088
1761475675895065900,0.44006591796875,-0.03226093213558197,-0.5986040449224412,0.10245543521568179
1761475675905043000,0.45004296875,-0.1314256552428007,-0.5821694813415408,0.1239773850634694
1761475675915019800,0.460019775390625,-0.073982935577631,-0.5557938078522682,0.13787380846887826
1761475675924998000,0.469997802734375,0.002175590473413467,-0.5366859334088862,0.1963516433354467
1761475675934975000,0.47997509765625,0.13085107022523879,-0.5547355309709906,0.26353395898751913
1761475675944951800,0.489951904296875,0.19250643914937973,-0.6107070090398192,0.2958632071189582
1761475675954929000,0.499928955078125,0.22842881640195845,-0.5970955400556326,0.2628370627645403
1761475675964905700,0.50990576171875,0.29837679737508294,-0.5481996994614601,0.1686006629049778
1761475675974882800,0.5198828125,0.30003742406368256,-0.5262354126736521,0.15339344916194678
1761475675984859600,0.529859619140625,0.2771785265237093,-0.4877396778017282,0.17510872962474822
1761475675994836700,0.539836669921875,0.3078852149546146,-0.40935982243940233,0.10043993067480624
1761475676004813800,0.549813720703125,0.3226999222487211,-0.36423239446803923,0.11376242664977908
1761475676014790700,0.559790771484375,0.3146305975615978,-0.3369885598421097,0.10924268420301377
1761475676024768000,0.56976806640625,0.27906185605227946,-0.296977013579756,0.06827120686732233
1761475676034744800,0.579744873046875,0.24075112235844134,-0.2096279620811343,0.011555778563395142
1761475676044722000,0.589721923828125,0.3620528584718704,-0.18387816540524363,-0.02904481963329017
1761475676054698800,0.59969873046875,0.5037549930572509,-0.25665216358453036,-0.029464141023904083
1761475676064675800,0.60967578125,0.5482540599972009,-0.321450506709516,-0.07295468850843607
1761475676074653000,0.61965283203125,0.6107499713987111,-0.43164048170000313,-0.08434417059421538
1761475676084629800,0.629629638671875,0.4780447977393865,-0.5060197231188416,-0.011243351613357662
1761475676094608000,0.63960791015625,0.2877735702961683,-0.4225295390054583,-0.00934774712510407
1761475676104584700,0.649584716796875,0.13913140731453894,-0.2398049275495112,-0.08693879019729793
1761475676114561500,0.6595615234375,0.01816226415634155,-0.10894457803927361,-0.135706255171448
1761475676124538600,0.66953857421875,-0.13210720776617527,-0.0684263243637979,-0.22285386581383645
1761475676134515500,0.679515380859375,-0.24403964250981805,-0.050472515326365826,-0.367045771388337
1761475676144492500,0.689492431640625,-0.3630471302062273,-0.0076495649050921195,-0.6630442222595214
1761475676154469600,0.6994697265625,-0.44360476799905296,0.03807955528646707,-0.9108165484916418
1761475676164446700,0.70944677734375,-0.4867933368623256,0.02071684400998056,-0.9526604247476905
1761475676174423800,0.719423828125,-0.5072282221257687,-0.050138095740228886,-0.8367364361498505
1761475676184400600,0.729400634765625,-0.48399990675151344,-0.14041063347011803,-0.7053202793877571
1761475676194377700,0.739377685546875,-0.37913025000095363,-0.18630970340110362,-0.616322437768802
1761475676204354600,0.7493544921875,-0.2656809809535742,-0.28774405194073915,-0.611924787331745
1761475676214331600,0.75933154296875,-0.24036299982368944,-0.41853601238988336,-0.613785174376145
1761475676224308500,0.76930859375,-0.21769816355109214,-0.5452574354644865,-0.6853804110996424
1761475676234285600,0.77928564453125,-0.20942425620257854,-0.6932141734652221,-0.858350228999555
1761475676244262700,0.7892626953125,-0.24015023385584353,-0.7925047149091958,-1.013769411835447
1761475676254239500,0.799239501953125,-0.28575346264541146,-0.81040584391132,-1.2361524452671409
1761475676264216600,0.809216552734375,-0.3519762856155634,-0.8327135373093187,-1.3592271824024618
1761475676274194700,0.819194580078125,-0.3963905968815088,-0.8758215882822871,-1.404277453484386
1761475676284171500,0.829171630859375,-0.31431904739439487,-0.857486890168488,-1.456351777984202
1761475676294148600,0.839148681640625,-0.14455752401649952,-0.8468310561195015,-1.3884928782448172
1761475676304125400,0.84912548828125,0.0039437691897153855,-0.9435738858420402,-1.2465315082013606
1761475676314102500,0.8591025390625,0.11334347058534622,-1.0387165138263255,-1.1304609507396817
1761475676324079600,0.86907958984375,0.16889935359060762,-1.029528414242342,-1.110204344652593
1761475676334056700,0.879056640625,0.17395312984883785,-1.0141768966577946,-1.092531617578864
1761475676344033800,0.88903369140625,0.14572656779587267,-1.0546229618798941,-1.058642791980505
1761475676354010600,0.8990107421875,0.14934768090248107,-1.108658284254372,-0.9828399474993348
1761475676363987700,0.90898779296875,0.1973521256148815,-1.1460897508956491,-0.9840068723868578
1761475676373964500,0.918964599609375,0.22387831349074838,-1.2309344183579087,-0.9195748783562332
1761475676383941600,0.928941650390625,0.28547581474781036,-1.293390143879503,-0.8881850299667566
1761475676393918500,0.93891845703125,0.29975919164419174,-1.279294836901128,-0.8925008473392575
1761475676403895600,0.9488955078125,0.29219430934786794,-1.3141945931077004,-0.9696591250173747
1761475676413872600,0.95887255859375,0.3221720989823341,-1.3294722417384386,-1.0428092630326746
1761475676423849500,0.968849365234375,0.4400876997888088,-1.2472571921274065,-1.0170283405661582
1761475676433827600,0.97882763671875,0.4993921216726303,-1.2211000567596404,-0.9168982795581221
1761475676443804400,0.988804443359375,0.5717196912586688,-1.233553222554177,-0.8076167246494442
1761475676453781500,0.998781494140625,0.6696311994343995,-1.20294780254066,-0.7269425478048622
1761475676463758600,1.008758544921875,0.7648667663991451,-1.1882809062194077,-0.7177404927607626
1761475676473735700,1.018735595703125,0.8153162661761045,-1.1934870234951376,-0.6936193932652474
1761475676483712800,1.028712646484375,0.8290461008429527,-1.189495688836649,-0.6582103723622859
1761475676493689600,1.038689697265625,0.7852367697328329,-1.2096861708849669,-0.5808329720407724
1761475676503666700,1.048666748046875,0.5955874735802412,-1.2112400492634623,-0.526785374706611
1761475676513643500,1.0586435546875,0.3231003197431564,-1.1332112723611294,-0.5349615938343107
1761475676523620600,1.06862060546875,0.06790390792489051,-1.0456958513196557,-0.5409977321933954
1761475676533597700,1.07859765625,-0.2146720937281847,-0.981967037122324,-0.5249539945609867
1761475676543574500,1.088574462890625,-0.49373511882424354,-0.8807111138895154,-0.4890044370405376
1761475676553551600,1.098551513671875,-0.8166121512055396,-0.866993700312823,-0.3881144245106727
1761475676563528400,1.108528564453125,-1.1648831525623797,-0.8454075261224061,-0.3301886705689132
1761475676573505500,1.118505615234375,-1.4107564402401447,-0.8137559580568223,-0.3280318578612059
1761475676583482600,1.128482666015625,-1.5845494110912084,-0.7965447840802371,-0.25458785146586593
1761475676593460500,1.13846044921875,-1.6526725147247314,-0.9182056358296423,-0.10200206542499363
1761475676603437600,1.1484375,-1.564736457118392,-1.135327314667031,0.03840864111036062
1761475676613414400,1.158414306640625,-1.406162098187208,-1.400281077324599,0.09212159966267645
1761475676623391700,1.168391845703125,-1.1691922479331494,-1.565719038414955,0.05977452361360192
1761475676633368600,1.17836865234375,-0.9657301150053739,-1.5094950468897819,-0.02817044795155525
1761475676643345700,1.188345703125,-0.9522013558685779,-1.411280610244721,-0.13678060640469192
1761475676653322800,1.19832275390625,-1.0944891813874245,-1.2846036108337342,-0.24154577986747025
1761475676663299600,1.208299560546875,-1.2194552852272986,-1.0223406216301023,-0.40061479044780135
1761475676673276700,1.218276611328125,-1.3061194232016802,-0.7454210383035242,-0.45854558589085936
1761475676683253500,1.22825341796875,-1.4002654413640498,-0.6160828568592667,-0.35900311551243064
1761475676693230600,1.238230712890625,-1.4145336206912993,-0.5380382248006761,-0.10289536100290715
1761475676703207400,1.24820751953125,-1.178014436814189,-0.39561259824633593,0.042489663346298036
1761475676713184500,1.2581845703125,-0.7887672819465398,-0.345594037232548,0.19275920833405105
1761475676723161600,1.26816162109375,-0.3514946395784616,-0.37270197051912546,0.3777357269026339
1761475676733138700,1.278138671875,0.037189620709419245,-0.3885780234344303,0.5270275494320318
1761475676743115800,1.28811572265625,0.2596533912271261,-0.40368294584676623,0.6586699526980518
1761475676753092600,1.298092529296875,0.3537643380761146,-0.3767375096455216,0.7865181878454983
1761475676763070500,1.308070556640625,0.3215875770926475,-0.2678678234733641,0.8411796062290668
1761475676773047800,1.3180478515625,0.3112736883491278,-0.06764847185909748,0.80786690001823
1761475676783024600,1.328024658203125,0.3326046456694603,0.14645941211506724,0.7344385295834391
1761475676793001700,1.338001708984375,0.35206104128956794,0.395940807287395,0.6723470342643558
1761475676802978600,1.347978515625,0.35843116084337234,0.600357610591501,0.7450365690305829
1761475676812955600,1.35795556640625,0.43842707310020923,0.7363758543215692,0.9483315286979078
1761475676822932700,1.3679326171875,0.6231611246824265,0.8403282500967383,1.2043263974174856
1761475676832909600,1.37790966796875,0.9050625880748033,0.9626562605179846,1.3528211147524416
1761475676842886700,1.38788671875,1.1902882274538278,1.0690379292666912,1.500209039889276
1761475676852863500,1.397863525390625,1.3684019841134547,1.0905049340568482,1.6848187344394623
1761475676862840600,1.407840576171875,1.4262117835253476,1.1489575614169238,1.7808058504238724
1761475676872817400,1.4178173828125,1.4101806861788033,1.2605895519092678,1.842780368299782
1761475676882794500,1.42779443359375,1.2894833456993102,1.376294929320365,1.8437991899535058
1761475676892771800,1.437771728515625,1.1228355704277753,1.4606396844364702,1.8582498862408101
1761475676902748700,1.447748779296875,0.980866309338808,1.513485870091617,1.8497031533002852
1761475676912725800,1.457725830078125,0.8209230001419782,1.5276771847903727,1.8516610093697905
1761475676922703600,1.46770361328125,0.756149791458249,1.53365041398108,1.787326192103326
1761475676932680700,1.4776806640625,0.8415420098006725,1.5982659478850663,1.6916634857676922
1761475676942657800,1.48765771484375,0.8985638737052678,1.68055654695034,1.5816114579431713
1761475676952634600,1.497634521484375,0.9685761520862579,1.6957780814796686,1.5190606014840304
1761475676962611700,1.50761181640625,1.0193050533264876,1.5917415145523846,1.6025784042567013
1761475676972588500,1.517588623046875,1.1021581085801124,1.4436296590551734,1.6488308907352387
1761475676982565600,1.527565673828125,1.1810808386474847,1.242212622088939,1.7338219809308648
1761475676992542500,1.53754248046875,1.1048469092726707,1.0918244922228157,1.8089502871513365
1761475677002519600,1.54751953125,0.8989543343275785,0.9436568148851394,1.7416905223488808
1761475677012496600,1.55749658203125,0.6064350308090448,0.8012664057746529,1.6239885642930865
1761475677022473500,1.567473388671875,0.28432079949378963,0.6298337343141436,1.4362825111627577
1761475677032450600,1.577450439453125,-0.033201427856087685,0.4119425324089825,1.2439398842729628
1761475677042427600,1.587427734375,-0.34495617772042747,0.22327859403192996,0.9469562948219478
1761475677052404700,1.59740478515625,-0.59430269446671,0.05867708376571536,0.6241971897318959
1761475677062381600,1.607381591796875,-0.7414356219291687,-0.07491846286207438,0.40097734014987946
1761475677072358700,1.617358642578125,-0.7674912696838379,-0.2528619044560939,0.2881169403737411
1761475677082336800,1.627336669921875,-0.6261246506631374,-0.40122868456244465,0.14797577149476854
1761475677092313600,1.637313720703125,-0.355800227817893,-0.5737872182477265,-0.003913264453597367
1761475677102291000,1.647291015625,-0.09219897574782371,-0.7641193820979446,-0.09647431497946381
1761475677112268000,1.65726806640625,0.12677929074168204,-0.9172397864721715,-0.13764094956107437
1761475677122244900,1.667244873046875,0.11215163045227527,-1.0353576318524778,-0.1694605128710158
1761475677132222000,1.677221923828125,-0.03109013479053974,-1.089533020284772,-0.20606292654331773
1761475677142199000,1.687198974609375,-0.1365939977914095,-0.996135190141201,-0.29628274770528074
1761475677152175900,1.69717578125,-0.28220307668745515,-0.9987669999495148,-0.3864567204315215
1761475677162153000,1.707153076171875,-0.39620471892058845,-1.1052333513069896,-0.38757746808975935
1761475677172129800,1.7171298828125,-0.42017479257285595,-1.1589862034782767,-0.43615083526391535
1761475677182107000,1.72710693359375,-0.3365320482462644,-1.1851692770048976,-0.47364521107356994
1761475677192083700,1.737083740234375,-0.2151987479507923,-1.2469170003876089,-0.4470626533679664
1761475677202061000,1.74706103515625,-0.03919569983482361,-1.2345065777562558,-0.5024844616647809
1761475677212038100,1.7570380859375,0.07290975338816642,-1.2184734345830976,-0.47861894436553115
1761475677222015000,1.767014892578125,0.018894085562229157,-1.1887624061260371,-0.4465671980012208
1761475677231992000,1.776991943359375,-0.11253040063679218,-1.0877245095580816,-0.4116501253336668
1761475677241970000,1.786969970703125,-0.3260726135522127,-1.023556938617304,-0.29994327950682487
1761475677251947000,1.796947021484375,-0.49153848556280133,-0.9628379737604409,-0.21450660096816718
1761475677261924000,1.806924072265625,-0.5290636218369007,-0.8642731893077492,-0.1822243885825388
1761475677271901000,1.81690087890625,-0.49673488516211506,-0.8375289747670293,-0.09820099264159798
1761475677281878000,1.8268779296875,-0.47440147280097006,-0.8613257376790047,0.00020228110644966363
1761475677291854800,1.836854736328125,-0.5312053100407124,-0.8604767196342349,0.07343302834359929
1761475677301832000,1.84683203125,-0.5977338379591703,-0.848152367851138,0.05549333916306495
1761475677311808800,1.856808837890625,-0.6659539722263813,-0.8342397239632904,0.03063634487474337
1761475677321785900,1.866785888671875,-0.7241150692939757,-0.9426984912469982,0.13365335036278703
1761475677331763000,1.876762939453125,-0.7146060671925545,-1.1865366198353469,0.3476191498519853
1761475677341739800,1.88673974609375,-0.6141665018439293,-1.2954532138891517,0.5168909169515594
1761475677351717000,1.896717041015625,-0.4220183746129274,-1.1444503131255508,0.3965462988998741
1761475677361694000,1.90669384765625,-0.47055882589817044,-1.0707695753648876,0.26856983426287767
1761475677371671000,1.916671142578125,-0.5029857622504234,-0.8857818412825464,-0.10081335796392522
1761475677381648000,1.92664794921875,-0.5159475351542234,-0.7558823726937174,-0.40721265434287485
1761475677391625000,1.936625,-0.619998861259222,-0.5936852932207286,-0.4746104759091511
1761475677401602000,1.94660205078125,-0.7854466130912303,-0.23664310251772402,-0.594235766710341
1761475677411580000,1.956579833984375,-1.0190572160452604,0.1701250959932804,-0.617788783994317
1761475677421557000,1.966556884765625,-1.255630175936222,0.43950244724676013,-0.5234073861734941
1761475677431534000,1.9765341796875,-1.313950847479701,0.6926895650692284,-0.4243280397947877
1761475677441511000,1.986510986328125,-1.1676520327538251,0.9815611597351729,-0.442202901844494
1761475677451488000,1.996488037109375,-0.9655331311285495,1.0775896306432784,-0.41692353569194673
1761475677461464800,2.00646484375,-0.7129010168403387,1.1018503578051924,-0.41453587337043135
1761475677471442000,2.01644189453125,-0.38764848749935626,1.1299310816466808,-0.5279091545721516
1761475677481418800,2.026418701171875,-0.017800445106625557,1.0792470424614846,-0.6406327762261033
1761475677491395800,2.036395751953125,0.280847570425272,0.922248262283951,-0.6498145921997726
1761475677501373000,2.046373046875,0.4997995334297418,0.7837491615235805,-0.6236803262509405
1761475677511350000,2.05635009765625,0.6378957524776458,0.7371728499181568,-0.653046559858322
1761475677521327000,2.0663271484375,0.8719956002533436,0.698491383215785,-0.757024528466165
1761475677531304000,2.076303955078125,1.0866080727487801,0.6989835506469011,-0.832936824671179
1761475677541281000,2.086281005859375,1.1762094332188366,0.7261980130478739,-0.9658458503395319
1761475677551257900,2.0962578125,1.3878893593937158,0.6731957600481808,-1.1662344210408628
1761475677561235000,2.10623486328125,1.4135621453106402,0.7066646066688,-1.3203452246919274
1761475677571213000,2.116213134765625,1.548950858965516,0.7104429561637342,-1.4813542634241281
1761475677581190000,2.12618994140625,1.6984961082667112,0.698845603480935,-1.4788735525242984
1761475677591167000,2.1361669921875,1.6741215454667806,0.8160058558754623,-1.4617638661608099
1761475677601143800,2.146143798828125,1.6376012023210524,0.9369345208927988,-1.419910491424054
1761475677611121000,2.156120849609375,1.4770821390628814,1.0151799362204967,-1.2532865354195237
1761475677621098000,2.166097900390625,1.2349170582532882,1.0042929237641394,-1.104144898483157
1761475677631074800,2.17607470703125,0.945560018157959,0.9508385430827736,-0.8626309750586748
1761475677641052000,2.186052001953125,0.7188964578628539,1.0258414693579077,-0.697153631806001
1761475677651029000,2.196029052734375,0.5475923812180757,1.0501038039550186,-0.5315812672136351
1761475677661006000,2.206006103515625,0.3972095120489597,1.0369060303382576,-0.36636312288641926
1761475677670983000,2.21598291015625,0.26956863604187964,0.9615268180966376,-0.2518597964751534
1761475677680960000,2.2259599609375,0.17403145578205584,0.8189889633394777,-0.17053981427401305
1761475677690937000,2.23593701171875,0.08391337796151638,0.5946584491018205,-0.12716503865625708
1761475677700914000,2.245913818359375,0.04641103804111481,0.3609060265243053,-0.14475644412208347
1761475677710891000,2.25589111328125,0.012298340559005737,0.10358100517950951,-0.14341270136293022
1761475677720868900,2.265868896484375,-0.017770049968361852,-0.09960742537342011,-0.15070300450157373
1761475677730846000,2.275845947265625,-0.09904781872928142,-0.36413324494250116,-0.18142178522907196
1761475677740823000,2.285822998046875,-0.19542144981324672,-0.5186209921471774,-0.25522702615223825
1761475677750800000,2.2957998046875,-0.28332302062809467,-0.6112627432264387,-0.343855303806439
1761475677760777000,2.30577685546875,-0.35727088489234443,-0.7491368439562618,-0.331494127144292
1761475677770753800,2.31575390625,-0.32937282414138314,-0.840927019707486,-0.3435264371782541
1761475677780731000,2.32573095703125,-0.21983166844844818,-0.897085471715778,-0.3414611386789009
1761475677790707700,2.335707763671875,-0.04644727839827537,-0.9750837073493749,-0.38071054146233946
1761475677800685000,2.34568505859375,0.1126864679813385,-1.094677178240195,-0.37724728579856454
1761475677810662100,2.355662109375,0.23258827416896818,-1.2204030874714256,-0.31137481063604355
1761475677820639000,2.365638916015625,0.3020382424920797,-1.3270301092833279,-0.2909433594387024
1761475677830616000,2.375615966796875,0.26782033106982706,-1.4867287960693238,-0.13079283723197876
1761475677840593000,2.385593017578125,0.22207915511429308,-1.5651315939158201,-0.009559417114406823
1761475677850570000,2.395570068359375,0.1451204185962677,-1.5014312751606105,0.0013065160213038324
1761475677860546800,2.405546875,0.019445874226093292,-1.4560666774325073,0.06537099191378802
1761475677870524000,2.41552392578125,-0.14248773200511933,-1.4627084535345434,0.1335702660560608
1761475677880502000,2.425501953125,-0.3048404404312372,-1.4576052851766348,0.24318704426847396
1761475677890478800,2.435478759765625,-0.43439621014893054,-1.3765841215252876,0.3227196133298799
1761475677900456000,2.4454560546875,-0.6406219625711441,-1.3396513981863856,0.4168135359788313
1761475677910433000,2.45543310546875,-0.853003315013647,-1.3296774089217185,0.48750904738362877
1761475677920409900,2.465409912109375,-0.9689350485265255,-1.2658746527053415,0.4567360522508621
1761475677930387000,2.475386962890625,-1.0791706162244081,-1.2030110039699822,0.4004565311461687
1761475677940363800,2.48536376953125,-1.3422048820614814,-1.2388479679614304,0.3759806999288499
1761475677950340900,2.4953408203125,-1.5445020628631114,-1.1721725789181887,0.21931794677264987
1761475677960318000,2.50531787109375,-1.6777824060618876,-1.1086314693126826,0.12263115808628498
1761475677970295000,2.515294921875,-1.728474482423067,-1.21239608743079,0.27236107977200297
1761475677980272000,2.525272216796875,-1.6227958473771809,-1.3373847684286535,0.5712327845245599
1761475677990249000,2.5352490234375,-1.3114239593505859,-1.2735679836869238,0.6168441235553472
1761475678000226000,2.54522607421875,-1.0047107107847928,-1.0319560067154467,0.46190490625612435
1761475678010203000,2.555202880859375,-0.9281664002865553,-0.8623464590288699,0.36959662491492923
1761475678020180000,2.565179931640625,-1.0817997956842182,-0.7475713482052088,0.28474512585308404
1761475678030156800,2.57515673828125,-1.2922446271061896,-0.4907363753996789,0.14584073222745209
1761475678040135000,2.585135009765625,-1.5288783772736787,-0.21098843677937984,-0.1022927919998765
1761475678050112000,2.595112060546875,-1.8215379660457371,0.11022270821630954,-0.33338885484971104
1761475678060088800,2.6050888671875,-2.015897339585423,0.28961656781435013,-0.47297553165107964
1761475678070066000,2.61506591796875,-1.9716402647078035,0.4195226122744381,-0.48030989312715827
1761475678080042800,2.625042724609375,-1.769392768266797,0.5462944503620266,-0.2385292450578883
1761475678090019800,2.635019775390625,-1.4486948334902525,0.6435797894634306,0.10685533240875228
1761475678099997000,2.644996826171875,-1.0861971538603306,0.7069121516890824,0.4233021308131516
1761475678109973800,2.654973876953125,-0.7422796715378761,0.783934747223556,0.5860619952680542
1761475678119950800,2.664950927734375,-0.4664858773708343,0.8197212231367826,0.6967281729355455
1761475678129927700,2.674927734375,-0.24606968703269957,0.8394389000415802,0.7844717036444694
1761475678139904800,2.68490478515625,0.028036007916927334,0.8431604047827422,0.7776213262930513
1761475678149881600,2.694881591796875,0.36330315079391,0.8767293507769703,0.748790660867095
1761475678159858700,2.704858642578125,0.833053582918644,0.9168925804696977,0.7264644819643348
1761475678169835800,2.714835693359375,1.2678110275954007,0.8625155319854617,0.755874262452498
1761475678179812600,2.7248125,1.6446902837991713,0.8227966850593685,0.8663162394426762
1761475678189789700,2.734789794921875,1.8968804995387791,0.8012212514586746,0.9546977757941931
1761475678199767600,2.744767578125,2.0682401057630777,0.8558068281270563,1.014381552384421
1761475678209744600,2.75474462890625,2.209849301367998,1.0006814552687109,0.9913413799934089
1761475678219721700,2.7647216796875,2.2127467763751745,1.1898599190391599,0.939792394541949
1761475678229698600,2.774698486328125,2.133244200593233,1.441785492493212,0.9053191931843757
1761475678239675600,2.784675537109375,2.0966496231675147,1.7207935725316403,0.8800468047618866
1761475678249652700,2.79465283203125,2.0568167944729328,1.8972497712425886,0.834456873845309
1761475678259629800,2.8046298828125,1.9447914207488297,2.0072111981742085,0.8038303379785269
1761475678269606700,2.814606689453125,1.7577941004097462,2.1211133255556223,0.74907035459131
1761475678279583700,2.824583740234375,1.4611194307774305,2.1269841172851622,0.6570735503520816
1761475678289560800,2.834560791015625,1.1263970623016357,1.9718350566275418,0.6773873665191232
1761475678299537700,2.84453759765625,0.8339175062716007,1.838113691662997,0.8327543807763605
1761475678309514800,2.8545146484375,0.8131359995275735,1.8156567990526555,0.9802121562790125
1761475678319491600,2.86449169921875,0.8938152178734541,1.7980517303876578,1.1458692400127648
1761475678329468700,2.87446875,0.9807850607961416,1.5936653222218156,1.2893585502758622
1761475678339445500,2.884445556640625,0.982128876620531,1.2121062376387417,1.337948832052201
1761475678349423600,2.894423583984375,1.05301969140172,0.7344175598606467,1.2106897219043224
1761475678359400700,2.904400634765625,1.0276584556519985,0.34475729414746165,0.9728231420062482
1761475678369377500,2.91437744140625,0.9122346716612577,0.04257978931516409,0.6914067587170749
1761475678379354600,2.924354736328125,0.740418553841114,-0.2620397018417716,0.490055042072013
1761475678389331500,2.93433154296875,0.5694131678819656,-0.5435736470960081,0.40026798630412663
1761475678399308800,2.944308837890625,0.4220411709666252,-0.6913106779314577,0.269318880798202
1761475678409286000,2.954285888671875,0.2744797889590263,-0.855868056795001,0.1915637880044058
1761475678419262700,2.9642626953125,0.19853461339771747,-0.9697745680905878,0.1866330901365727
1761475678429239800,2.97423974609375,0.16101356877684592,-1.0778050269596278,0.13908053564382716
1761475678439216600,2.984216552734375,0.09060381551086902,-1.190604746057093,0.06438634652430192
1761475678449193700,2.99419384765625,0.025780922466516493,-1.302070440071821,0.0841323179418221
1761475678459170600,3.004170654296875,0.0055050271570682525,-1.3802639790818094,0.08199147912138141
1761475678469147600,3.014147705078125,-0.10565057799518107,-1.4310397882036865,0.05895000982242636
1761475678479124700,3.024124755859375,-0.29990181498527524,-1.3632590682670473,-0.004269220018107444
1761475678489101600,3.0341015625,-0.5031500129014254,-1.202693827779591,-0.07736024825731291
1761475678499079700,3.04407958984375,-0.7726490908384323,-1.1381905220784245,-0.04203748543227557
1761475678509056800,3.054056884765625,-1.0154051232784986,-1.133072448412329,0.05040178817771375
1761475678519033600,3.06403369140625,-1.2341852368474007,-1.1087994462907313,0.10660054479693062
1761475678529010700,3.0740107421875,-1.3773048370152712,-1.0066514695890247,0.060485539693478495
1761475678538987500,3.083987548828125,-1.4603992998093365,-0.832900438183546,0.02035308416492771
1761475678548964900,3.09396484375,-1.4526666597306728,-0.6896336846299469,0.058444507985701784
1761475678558941700,3.103941650390625,-1.35309920104146,-0.5993718144245446,0.07455173930837772
1761475678568918800,3.113918701171875,-1.324126204535365,-0.5913917754560709,0.10432090029399842
1761475678578896000,3.123895751953125,-1.2766589354395865,-0.574942160436511,0.07233757039024494
1761475678588872700,3.133872802734375,-1.2218453952342272,-0.5253172749154269,-0.02207084786824416
1761475678598849800,3.143849853515625,-1.165936461007595,-0.45862113534510135,-0.1245589295447804
1761475678608826600,3.15382666015625,-1.1317828469932079,-0.44896220337897536,-0.20430315032918006
1761475678618803700,3.1638037109375,-1.0797352643698452,-0.3545307924039662,-0.27966495477827263
1761475678628780500,3.173780517578125,-1.0217501083910465,-0.31225378542765975,-0.23868008823804557
1761475678638757600,3.183757568359375,-0.9407628470093011,-0.4533019861489534,-0.021258458339702337
1761475678648735700,3.19373583984375,-0.7397124513983726,-0.5924990060456097,0.1730094375242479
1761475678658712600,3.203712646484375,-0.4114139784902334,-0.5987748714447021,0.17764855030067264
1761475678668689700,3.213689697265625,-0.10289046563208103,-0.3854731892868876,-0.07507891412079334
1761475678678666500,3.22366650390625,-0.04571779507994651,-0.26021789324209094,-0.4415487853173166
1761475678688643600,3.2336435546875,-0.18291034328639505,-0.16910218268632887,-0.6767233496524393
1761475678698620700,3.24362060546875,-0.3475321656882763,0.08930924565568565,-0.7788987988829612
1761475678708597800,3.25359765625,-0.5065028304606676,0.3290240107037127,-0.6816684048391878
1761475678718574800,3.263574951171875,-0.6422434262931347,0.6289933379672468,-0.44742779688593
1761475678728551700,3.2735517578125,-0.7143143907696008,0.9597764672979712,-0.21633063805755226
1761475678738528800,3.28352880859375,-0.6851981864005326,1.1908444000318645,-0.029154673215933142
1761475678748505600,3.293505615234375,-0.6096954939097166,1.2944424294114112,0.07630012647882103
1761475678758482700,3.303482666015625,-0.47223523467779155,1.3161327215634286,0.050117820137180386
1761475678768459800,3.313459716796875,-0.31981472220122814,1.2113413907460868,-0.0020336612520739433
1761475678778436600,3.3234365234375,-0.17263386394381522,1.030605176628381,-0.006037380468100309
1761475678788413700,3.33341357421875,0.10584288569688796,0.8500055945023893,0.006639675476495176
1761475678798391600,3.3433916015625,0.44614451560974117,0.7674988684684038,0.004093415926629677
1761475678808368600,3.35336865234375,0.7758657147973775,0.7175131868109107,-0.04718299509456846
1761475678818345700,3.363345703125,0.9781745860368013,0.6736603088200092,0.012597277839807793
1761475678828322600,3.373322509765625,1.0514508346498013,0.6362474007487297,0.02071313594924286
1761475678838299600,3.383299560546875,1.106854741963744,0.5957021860010921,-0.09483827474284917
1761475678848276700,3.39327685546875,1.1547750155240297,0.5828234152056276,-0.27763708394616843
1761475678858253800,3.40325390625,1.179369943076372,0.6730905461080372,-0.5365062659930437
1761475678868230700,3.413230712890625,1.152860706335306,0.8074505012370645,-0.8314428597863763
1761475678878207700,3.423207763671875,1.1557523361235857,0.8197776294991374,-1.0825695379476994
1761475678888184800,3.433184814453125,1.1993103228211401,0.7612215417645871,-1.1452443130474537
1761475678898161700,3.44316162109375,1.2091460726588963,0.7056275187060237,-1.0667664772033691
1761475678908138800,3.453138671875,1.230398704046011,0.6173362179212272,-0.9365281320489942
1761475678918115600,3.463115478515625,1.3857085082232952,0.5857866489253938,-0.7117196981012821
1761475678928092700,3.4730927734375,1.4799433737128973,0.5605924403056503,-0.37620511980187143
1761475678938069500,3.483069580078125,1.3295605045437813,0.5415444793559611,-0.02816291538235964
1761475678948047600,3.493047607421875,1.0599702411919831,0.5010862122394144,0.15197396515230646
1761475678958024700,3.503024658203125,0.8221651091575622,0.4921256378009915,0.1734463859030977
1761475678968001500,3.51300146484375,0.6565051758795977,0.5290037083432078,0.1274253152939491
1761475678977978600,3.522978515625,0.4791249941915273,0.3895005451068282,0.1452921127682086
1761475678987955700,3.532955810546875,0.41250177372694014,0.2070841228172183,0.08126044316678308
1761475678997932800,3.542932861328125,0.3467243564367294,0.03469254319667816,0.05800789753356948
1761475679007910000,3.552909912109375,0.25384324364364147,-0.1013011506140232,-0.03066341554475948
1761475679017886700,3.56288671875,0.16907295659184454,-0.23180296901017425,-0.10717006091373041
1761475679027863800,3.57286376953125,0.08604805190265179,-0.4025939815662801,-0.16750954320002345
1761475679037840600,3.582840576171875,0.06780979990065097,-0.5488415775615721,-0.22986228327117858
1761475679047817700,3.592817626953125,0.024980127477645872,-0.6733003164011985,-0.2672295621024445
1761475679057794800,3.602794921875,-0.09388649044334887,-0.7994977886669338,-0.29397037910968066
1761475679067771600,3.612771728515625,-0.20578969909250736,-0.9160829445872455,-0.34995183058325197
1761475679077748700,3.622748779296875,-0.27421441602110863,-0.9462513614229857,-0.4059209340319037
1761475679087725600,3.6327255859375,-0.32631343657076356,-0.9470150392718613,-0.4099953073313459
1761475679097703700,3.64270361328125,-0.34271862792670726,-1.0025220416340976,-0.3519671159284189
1761475679107680800,3.6526806640625,-0.2922375639677048,-1.0463304959613828,-0.3341783977922052
1761475679117657900,3.662657958984375,-0.2066027690410614,-1.0767816752612591,-0.30013883861154317
1761475679127634700,3.672634765625,-0.19283494045138358,-1.0636718721888958,-0.275488892936334
1761475679137611800,3.68261181640625,-0.22478549146354196,-0.9751187055975198,-0.2436368703952059
1761475679147588900,3.6925888671875,-0.35956221069991584,-0.8779083314284681,-0.1378815899165347
1761475679157566000,3.70256591796875,-0.5547726481109857,-0.8259883207075297,0.06659980305638163
1761475679167543000,3.71254296875,-0.6473235060364008,-0.7807640082329511,0.22660927282460033
1761475679177519900,3.722519775390625,-0.6550432866334914,-0.7919473002221434,0.2802672863192856
1761475679187497000,3.7324970703125,-0.6521119093567133,-0.8969618453361093,0.26634803002756086
1761475679197473800,3.742473876953125,-0.6645300769031047,-1.0455574657622724,0.17788710829690096
1761475679207451000,3.752450927734375,-0.7489245163798331,-1.209248217859119,0.0575175749996677
1761475679217428000,3.762427978515625,-0.7929097885787486,-1.2544573327645658,-0.05283299738001078
1761475679227404800,3.77240478515625,-0.8241670966297387,-1.2727385471254586,-0.10498659766111522
1761475679237382000,3.7823818359375,-0.9456862748861312,-1.243350393947214,-0.10063497832287102
1761475679247359700,3.79235986328125,-1.1188292573958634,-1.1753273896872996,-0.1654399703843519
1761475679257336800,3.8023369140625,-1.2659540015518664,-1.1480831166699528,-0.11135149305053055
1761475679267314000,3.81231396484375,-1.3853653938740491,-1.27477341395393,0.0026961072161793705
1761475679277290800,3.822290771484375,-1.354546477240324,-1.4359569324702024,0.10832871116325259
1761475679287267800,3.832267822265625,-1.1371306377619503,-1.4603678817577659,0.04860697718281298
1761475679297244700,3.84224462890625,-0.9160229580283165,-1.4236520160399377,-0.04052360570402816
1761475679307222000,3.852221923828125,-0.8742582844883203,-1.3723621199160814,-0.004721676493342966
1761475679317198800,3.86219873046875,-1.0065385107338427,-1.2495777440294622,-0.0007035268931649625
1761475679327176000,3.872176025390625,-1.1915788517862558,-0.8585606568798422,-0.06315668599833733
1761475679337153000,3.882153076171875,-1.4589900175333022,-0.42548590459302066,-0.14765883276639505
1761475679347129900,3.8921298828125,-1.853040188768506,-0.08643281343653797,-0.12480987209854646
1761475679357107000,3.90210693359375,-2.0262363627701996,0.1644819755397737,-0.1293145174408797
1761475679367083800,3.912083740234375,-2.1036907738506794,0.40850013687014575,0.031129288623994215
1761475679377060900,3.922060791015625,-2.094241392982006,0.6663461864143609,0.18003697980716823
1761475679387039000,3.9320390625,-2.018713566049933,0.8328365791670977,0.3832146332377568
1761475679397015800,3.942015869140625,-1.737695315232873,0.9478468139208853,0.46746549952533095
1761475679406993000,3.951992919921875,-1.3604811279863118,0.9221562000863254,0.5334561577074229
1761475679416969700,3.9619697265625,-0.895126300472021,0.9000795389652252,0.5528716002626344
1761475679426946800,3.97194677734375,-0.3797159409344196,0.8999687720671296,0.5794973760554567
1761475679436923600,3.981923583984375,0.15119535459578037,0.8856963549561798,0.6658456895463168
1761475679446900700,3.991900634765625,0.76252634075284,0.8505022919781505,0.7402136789187789
1761475679456877800,4.0018779296875,1.3678279836177825,0.8764113708689808,0.7738410771019756
1761475679466855000,4.01185498046875,1.8177958569079637,0.8953934269756079,0.7983152278188616
1761475679476832000,4.02183203125,2.0681232013851405,0.8724040349237621,0.8382323737960309
1761475679486808800,4.031808837890625,2.2518542134046555,0.9582385902062058,0.7332322955988347
1761475679496786000,4.041785888671875,2.3186305786043406,0.9819440215729176,0.7670515630923211
1761475679506762800,4.0517626953125,2.3032073840230702,1.0877288934722542,0.8786579807519912
1761475679516739800,4.06173974609375,2.238185753536224,1.3283023211762308,1.0224692164458333
1761475679526717000,4.071717041015625,2.14072900339067,1.6146445434950292,1.0826519555341452
1761475679536693800,4.08169384765625,2.0957266631036995,1.8312091729715465,1.1205607573635876
1761475679546670800,4.0916708984375,2.010157334628701,1.9489412339046597,1.1120226461209357
1761475679556647700,4.101647705078125,1.8652309772998092,1.9778562166132032,1.0952766054380685
1761475679566624800,4.111624755859375,1.6746996376156806,1.9364448865555226,0.9773477798238396
1761475679576601900,4.121601806640625,1.4686469036728143,1.8596682286061346,0.8804695602186023
1761475679586579700,4.131579833984375,1.334238433226943,1.7506087189503012,0.8196667895358055
1761475679596556800,4.141556884765625,1.3035527875840662,1.6198589171424507,0.7918510733060539
1761475679606534000,4.151533935546875,1.2402321157962084,1.4506151340283453,0.7488466288380324
1761475679616511000,4.161510986328125,1.1930214518100022,1.2118101773016154,0.7761303570829331
1761475679626488000,4.171488037109375,1.085553010737896,0.9735876966379582,0.792635063290596
1761475679636465000,4.18146484375,0.9296300430983304,0.7960019093751907,0.7651533282555639
1761475679646442000,4.19144189453125,0.757166275024414,0.6221507785961031,0.7181077186379581
1761475679656418800,4.201418701171875,0.6584650777757167,0.44189854860305783,0.6885967427976429
1761475679666396000,4.21139599609375,0.5624094265997409,0.2478859426744282,0.667729019074887
1761475679676372700,4.221372802734375,0.449572736492753,0.0507410300694406,0.5529344728983938
1761475679686349800,4.231349853515625,0.3072679598391056,-0.10716273612380027,0.36335415032878515
1761475679696327000,4.241326904296875,0.10236088880002497,-0.2633300339132547,0.1758944731749594
1761475679706303700,4.2513037109375,-0.022485972574353218,-0.40845132929235695,0.0926646935634315
1761475679716280800,4.26128076171875,-0.06858370688259602,-0.5568617293447256,0.10955050804316997
1761475679726258000,4.2712578125,-0.07895604781508446,-0.6952300433322787,0.19819975542016327
1761475679736235800,4.28123583984375,-0.08731412631571292,-0.7900175742685794,0.2415533786520362
1761475679746212900,4.291212890625,-0.10181611439883709,-0.8907599219560622,0.274337238683179
1761475679756189700,4.301189697265625,-0.13607552687525748,-0.9345224913150072,0.25039558740779755
1761475679766167000,4.3111669921875,-0.23079963718652724,-0.9108750737458466,0.1896298607997596
1761475679776144000,4.321143798828125,-0.39333354739844795,-0.9051809537574649,0.1581740345019847
1761475679786121000,4.331120849609375,-0.584080575659871,-0.8848711561784147,0.12980053825899956
1761475679796097800,4.341097900390625,-0.675152593204379,-0.835747498177737,0.12520225068330765
1761475679806075000,4.351074951171875,-0.7225882981181144,-0.7261984514392912,0.06410349272862076
1761475679816052000,4.361052001953125,-0.678858461984992,-0.6361920172996819,0.01932948130480945
1761475679826028800,4.37102880859375,-0.6587608458518982,-0.6479962907314301,0.04732048103623092
1761475679836006000,4.381005859375,-0.6188011759072541,-0.731157827412337,0.12115966076161712
1761475679845982700,4.390982666015625,-0.6231278069347143,-0.7561873469896614,0.18491865090150386
1761475679855959800,4.400959716796875,-0.7477128025025129,-0.7526727629974485,0.20706234937682746
1761475679865936600,4.4109365234375,-0.8529132986426353,-0.7248762629248201,0.19284137019217013
1761475679875914800,4.420914794921875,-0.9249901083379983,-0.700611005718261,0.12033037033062427
1761475679885891800,4.430891845703125,-1.0066524925023317,-0.682438220167905,0.0902283332619816
1761475679895868700,4.44086865234375,-1.09091658359766,-0.6829081757672131,0.05812547776494175
1761475679905845800,4.450845703125,-1.2099778473079204,-0.7322448919966816,0.15095223002228886
1761475679915822800,4.46082275390625,-1.2711036394000053,-1.0280039080888033,0.4845166606346145
1761475679925800000,4.470800048828125,-1.1613958949685097,-1.3452284676663577,0.801097625079006
1761475679935777000,4.480777099609375,-0.9174924460589885,-1.2962214217826724,0.7122009057469666
1761475679945753900,4.49075390625,-0.613676672500372,-1.035528604505211,0.31461627677530046
1761475679955731000,4.50073095703125,-0.6563882715016603,-0.9223353560455143,-0.01018986050505191
1761475679965707800,4.510707763671875,-0.8883014228880405,-0.7624224419869482,-0.34935923498496413
1761475679975684900,4.520684814453125,-1.0744207913488149,-0.40885713361427184,-0.5729308936793357
1761475679985661700,4.53066162109375,-1.23209732465744,0.001476648423820734,-0.5503216235188767
1761475679995638800,4.540638671875,-1.4426590604573488,0.4045920235157013,-0.37747806234713643
1761475680005615900,4.550615966796875,-1.5644026951193808,0.7429863585025072,-0.14377473960835485
1761475680015593700,4.56059375,-1.5508388646692037,1.075428653217107,-0.0013127311329590157
1761475680025570800,4.57057080078125,-1.4050380625933407,1.4011319950655101,0.027409884508373214
1761475680035548000,4.5805478515625,-1.3076590538591146,1.5770251530662178,0.018874960736650973
1761475680045524700,4.590524658203125,-1.1426222209155559,1.6517673825785517,-0.0011581570591777562
1761475680055501800,4.600501708984375,-0.9281950418591499,1.5570343583084643,-0.001547412105090916
1761475680065479000,4.61047900390625,-0.6942880863070487,1.422161192960292,0.005796776645258068
1761475680075456000,4.6204560546875,-0.2824117510020733,1.353920892687887,-0.06332158510331064
1761475680085432800,4.630432861328125,0.19052607898712157,1.2836122617088257,-0.16044446365199982
1761475680095410000,4.640409912109375,0.57856210449934,1.1833844394147395,-0.29961342649795114
1761475680105387000,4.650386962890625,0.8641764509350061,1.117823002962768,-0.4530791371785104
1761475680115363600,4.660363525390625,1.033595444485545,1.0256158439084886,-0.6983538744412362
1761475680125340700,4.670340576171875,1.0452554871410131,0.9050009210154414,-0.8284136481583118
1761475680135317500,4.6803173828125,1.1335229686588049,0.869546891926974,-1.0422833394624291
1761475680145294600,4.690294677734375,1.2361311102181671,0.8986056670203805,-1.1952066868945956
1761475680155271400,4.700271484375,1.3306675890028477,1.0007460449375212,-1.3520729267336427
1761475680165249500,4.71024951171875,1.3525076648890972,1.0779122867263853,-1.3855793288856744
1761475680175226600,4.7202265625,1.352082717475295,1.083304208897799,-1.3832622841149567
1761475680185203500,4.730203369140625,1.3694231438547373,1.0312190707430242,-1.2102245155453681
1761475680195180500,4.7401806640625,1.3987187964439391,0.9788570153430104,-0.9620231502462178
1761475680205157600,4.75015771484375,1.531677068081498,0.9344536638624965,-0.681870868608728
1761475680215134700,4.760134765625,1.658620609474182,0.9141771840311587,-0.4263558923605829
1761475680225111800,4.77011181640625,1.6285393594652413,0.8723279009476304,-0.2088549318820238
1761475680235088600,4.780088623046875,1.4659353066265581,0.7997977945268153,0.0008457301091402768
1761475680245065700,4.790065673828125,1.2629571578234433,0.7930300539575517,0.0645141924213618
1761475680255042600,4.80004248046875,1.0493336963653563,0.8391592063173651,0.07924363258481025
1761475680265019600,4.81001953125,0.8370563888192176,0.7928047207690775,0.05098024565279483
1761475680274996500,4.81999658203125,0.6348334422975778,0.6060666358880699,0.04534918096326291
1761475680284973600,4.8299736328125,0.4714718490898609,0.38116818556934595,-0.0250714590229094
1761475680294950700,4.83995068359375,0.3923948052436113,0.17879837792292236,-0.17118256915695965
1761475680304928500,4.849928466796875,0.28782851535379883,-0.010674684879928826,-0.26043233971036966
1761475680314905600,4.859905517578125,0.2390980944544077,-0.16474062647596,-0.34480449429005383
1761475680324882400,4.86988232421875,0.14915245059132576,-0.28446196153014897,-0.41883075755275784
1761475680334859500,4.879859619140625,0.04387070590853691,-0.3933487449675798,-0.4887739892855286
1761475680344836600,4.889836669921875,-0.018996961414813995,-0.5266761421784758,-0.5538978380378335
1761475680354813700,4.899813720703125,-0.020835867279767988,-0.6074200963236391,-0.5840948233809322
1761475680364790800,4.909790771484375,0.06916062998771667,-0.6654448536604642,-0.5874414303950966
1761475680374767600,4.919767578125,0.1821545564830303,-0.7458145676657557,-0.5206452645163983
1761475680384744700,4.92974462890625,0.2765314607918262,-0.8796988681070506,-0.4138832181479782
1761475680394721500,4.939721435546875,0.3220879278302192,-1.0292815268091857,-0.34751821022816
1761475680404698600,4.94969873046875,0.3131757225781679,-1.1453118983909487,-0.3636433425337076
1761475680414675700,4.95967578125,0.2537199095249176,-1.2490474365450441,-0.35763935287855564
1761475680424652500,4.969652587890625,0.10754852057099341,-1.3038687216654419,-0.3528991726141423
1761475680434629600,4.979629638671875,-0.01350771634876728,-1.2957966204993425,-0.3144887779381126
1761475680444607500,4.989607421875,-0.2293026766270399,-1.248355947149545,-0.18103738902136682
1761475680454584600,4.99958447265625,-0.4504407514989376,-1.1391545448049902,-0.028074001839756963
1761475680464561700,5.009561767578125,-0.6371604239404202,-1.0135627102822065,0.09202259626761078
1761475680474538500,5.01953857421875,-0.7065951946943998,-0.94938586005643,0.20770422747693953
1761475680484515600,5.029515625,-0.6699842506557703,-0.9241559956014156,0.26589192029051484
1761475680494492400,5.039492431640625,-0.665866878464818,-1.021521560332179,0.32577874517217276
1761475680504469800,5.0494697265625,-0.7689210102260112,-1.1139797715380788,0.28772848904542625
1761475680514446600,5.059446533203125,-1.0075795442193747,-1.1212740201994775,0.17911913430988788
1761475680524423700,5.069423583984375,-1.3261866441965102,-1.1072953253380953,0.08741188760176301
1761475680534400800,5.07940087890625,-1.61837744641304,-1.0620106609784066,0.010261866295337676
1761475680544377600,5.089377685546875,-1.739653463563323,-0.9715973996035754,-0.06010163667611777
1761475680554354700,5.099354736328125,-1.7194769369751215,-0.9548157761506736,-0.03335026174224913
1761475680564331500,5.10933154296875,-1.5606676002442836,-1.1341861087426544,0.20234401561804113
1761475680574309600,5.1193095703125,-1.2796300602048634,-1.3816659548342227,0.4150036735452711
1761475680584286700,5.12928662109375,-0.8242308095157146,-1.3656445020988583,0.3436346467930823
1761475680594263600,5.139263671875,-0.491910241484642,-1.183294861435145,0.1962260441944003
1761475680604240600,5.14924072265625,-0.5107821152150631,-1.047703610945493,0.12069880178421735
1761475680614217500,5.159217529296875,-0.7030494849115609,-0.7977047677703202,-0.08162347692605107
1761475680624194600,5.169194580078125,-1.0323457366853952,-0.3979826883785426,-0.2949426582079381
1761475680634171600,5.179171630859375,-1.4620458979725837,-0.06357464654892683,-0.32691801486779004
1761475680644148500,5.1891484375,-1.897272129204869,0.30630978233143685,-0.33030641519706694
1761475680654125600,5.19912548828125,-2.1368004317700864,0.6210761351019144,-0.23396296005565673
1761475680664102700,5.2091025390625,-2.0789099683374164,0.9930576823920011,-0.11698233854435383
1761475680674079700,5.219079833984375,-1.8453268379122019,1.2291801220364869,-0.015231727129779755
1761475680684056600,5.229056640625,-1.5785533855468035,1.3336945356085896,0.1343904598651454
1761475680694033700,5.23903369140625,-1.169985444137454,1.3412348679855466,0.194002340262942
1761475680704010800,5.2490107421875,-0.8687573489844799,1.3144792552679776,0.31404483356289564
1761475680713988600,5.258988525390625,-0.5073211611062288,1.2934956500805914,0.3483533458780497
1761475680723965700,5.268965576171875,-0.10092296495139598,1.2049125267423688,0.38452955176122483
1761475680733942500,5.278942626953125,0.3427741575062275,1.08508378579095,0.4258035922400653
1761475680743919600,5.288919677734375,0.7920084558248519,1.0477559256546198,0.3731945032764226
1761475680753896700,5.298896728515625,1.1363099690288305,0.9678329325035214,0.25407697933427986
1761475680763873500,5.30887353515625,1.3662293162494896,0.8977372136227786,0.2197691246062517
1761475680773850600,5.3188505859375,1.452106687760353,0.8135854968607426,0.2156360433895141
1761475680783827500,5.328827392578125,1.5540221708804367,0.845017576956749,0.16496764016486704
1761475680793804500,5.338804443359375,1.636854183346033,1.00499113516137,0.0718733960777521
1761475680803781600,5.34878173828125,1.6296125416547058,1.1853883265830576,-0.042942485147714614
1761475680813758700,5.3587587890625,1.6112784280627965,1.3103316340692341,-0.17311872485131025
1761475680823735800,5.36873583984375,1.61597155431509,1.406692990193516,-0.29454350282251834
1761475680833712600,5.378712646484375,1.6065309412747621,1.489025528704375,-0.4826834173254668
1761475680843689700,5.388689697265625,1.5486755491554736,1.4313906474679707,-0.6440428769305347
1761475680853667600,5.39866748046875,1.2965648283928632,1.3338902043111622,-0.7387652336761354
1761475680863644700,5.408644775390625,0.9838386031478643,1.2017270285740493,-0.7290547907184809
1761475680873621800,5.418621826171875,0.7332254274666309,1.126732285605371,-0.6511924564242363
1761475680883598600,5.4285986328125,0.6318652401417494,1.1512918495833873,-0.5240593838088214
1761475680893575700,5.43857568359375,0.6353326239913701,1.1779248588345945,-0.3315241569563746
1761475680903552500,5.448552490234375,0.6539174974739551,1.1060523395396769,-0.1213903642449528
1761475680913529600,5.458529541015625,0.6902028628200292,0.9741093824245035,0.006298661752790213
1761475680923506400,5.46850634765625,0.6503115819364785,0.8415073768787086,0.06063121350817382
1761475680933483500,5.4784833984375,0.588040126940608,0.7245965692006051,0.027199703223258254
1761475680943460600,5.488460693359375,0.5483242026239633,0.6026539048351347,-0.062309814244881266
1761475680953437400,5.4984375,0.4981844994485378,0.44623073258846996,-0.1488084594592452
1761475680963414800,5.508414794921875,0.3917068229794502,0.2695445245139301,-0.21796244051046668
1761475680973391600,5.5183916015625,0.3591764262527227,0.13699834080860018,-0.2728204774446785
1761475680983369500,5.528369384765625,0.4585270273208618,0.041199879264086484,-0.25321554019935427
1761475680993346800,5.538346923828125,0.6288537833660841,-0.06326163507699967,-0.16422259395122527
1761475681003323600,5.54832373046875,0.8923977522909641,-0.22485563409030437,-0.004285641429945826
1761475681013300700,5.55830078125,1.0626789156287908,-0.46189811118915675,0.23739282490648328
1761475681023277600,5.568277587890625,1.1716630219608544,-0.6294150705106556,0.34914690740853543
1761475681033254700,5.578254638671875,1.181155072927475,-0.8650034032784402,0.43036015956588086
1761475681043231700,5.588231689453125,1.0815870297163723,-1.0376925045408307,0.35758703816942866
1761475681053208600,5.59820849609375,0.8641594998002052,-1.164613541840762,0.23625044993832706
1761475681063185700,5.608185546875,0.6165004977494478,-1.2143766667887568,0.10174385288022458
1761475681073162500,5.61816259765625,0.3270738995492458,-1.2332162456847726,0.04081416788212955
1761475681083139600,5.6281396484375,0.012287819164991378,-1.2485451861113308,0.07907455962821841
1761475681093116400,5.638116455078125,-0.17297405568361282,-1.1701635771833359,0.01201535889916122
1761475681103093500,5.648093505859375,-0.4261842621207237,-1.0910844875104724,-0.09094020785838365
1761475681113070600,5.658070556640625,-0.787286103478074,-1.1104432679750025,-0.15728651107773184
1761475681123048400,5.66804833984375,-1.1489531775027513,-1.1198210449121893,-0.2328327504493296
1761475681133025500,5.678025634765625,-1.4660557181358336,-1.1414974546693264,-0.3107061175942421
1761475681143002600,5.688002685546875,-1.6650386598229407,-1.1639258518375455,-0.37341084944084285
1761475681152979700,5.697979736328125,-1.6988082429558038,-1.1469622959464787,-0.4061497012864798
1761475681162956500,5.70795654296875,-1.619175903314352,-1.1288476703241468,-0.3240621505126357
1761475681172933600,5.71793359375,-1.538980669093132,-1.0720726207874716,-0.308092939421162
1761475681182910700,5.72791064453125,-1.5808511410951613,-0.9944918068483471,-0.3357187591020018
1761475681192887600,5.737887451171875,-1.7420242843478917,-0.8558940680190921,-0.39623891345113516
1761475681202864600,5.74786474609375,-1.8462217409253119,-0.672202218966186,-0.46363311828821896
1761475681212841500,5.757841552734375,-1.8725217188298702,-0.5658712574914098,-0.37035964517667885
1761475681222818600,5.767818603515625,-1.7735399510741232,-0.6744574505470693,-0.08984254881478845
1761475681232795400,5.77779541015625,-1.5009616118222475,-0.9004493951909244,0.24509346241168675
1761475681242772500,5.7877724609375,-1.074334866631031,-1.0016570223025978,0.3408531993810087
1761475681252750600,5.79775048828125,-0.674624769937992,-0.957300140312314,0.15397577909454702
1761475681262727400,5.8077275390625,-0.517559646525979,-0.8328023846365511,-0.10082892999239265
1761475681272704500,5.81770458984375,-0.5899135195970535,-0.7052279979944228,-0.33502120529189705
1761475681282681300,5.827681396484375,-0.6618535511702299,-0.4740346853151917,-0.552124617820233
1761475681292658700,5.83765869140625,-0.7048989121705294,-0.11702946562170982,-0.731572326497361
1761475681302635800,5.8476357421875,-0.7545429407835006,0.17873641860261558,-0.5434924716185778
1761475681312612600,5.857612548828125,-0.7538818465262651,0.3261123610407114,-0.13364037215020508
1761475681322589700,5.867589599609375,-0.6241495511978864,0.6386278661444783,0.22063439966607837
1761475681332566500,5.87756640625,-0.39894203492999075,0.8127918622650205,0.38694614791627974
1761475681342543600,5.887543701171875,-0.2160959890514612,0.8922792404778301,0.45797750367932016
1761475681352520400,5.8975205078125,-0.14911796379983425,1.077496983923763,0.3497013994861394
1761475681362497500,5.90749755859375,-0.15813304490447044,1.2388406614378094,0.17571107943207023
1761475681372474600,5.917474609375,-0.25731588819026946,1.3747215425238013,0.11652670373134315
1761475681382451500,5.927451416015625,-0.25044015720188617,1.503648366688192,0.11851210539489984
1761475681392429600,5.9374296875,-0.1320534317523241,1.59324198224321,0.15500621812082827
1761475681402406400,5.947406494140625,0.040888475227355954,1.670391857419163,0.18595139148272574
1761475681412383500,5.957383544921875,0.37883740453422066,1.7378692104950546,0.1532486338637769
1761475681422360600,5.967360595703125,0.7099041731119156,1.7522399734139442,0.13248327453695236
1761475681432337400,5.97733740234375,0.9590168811023235,1.6247583796218037,0.1151856643859297
1761475681442314800,5.987314697265625,1.143700079280138,1.4958163578882813,0.00666866410896182
1761475681452291600,5.99729150390625,1.3465683379679918,1.3131303248770534,-0.10413703162707388
1761475681462268700,6.0072685546875,1.53230776720047,1.1067007204458117,-0.1918156804062426
1761475681472245500,6.01724560546875,1.7208283515840768,0.9692080202490091,-0.34468057564944027
1761475681482222600,6.02722265625,1.879859222111106,0.8717227746613323,-0.5340920444581657
1761475681492199700,6.03719970703125,2.0097984381884335,0.8121843978911638,-0.7068438356932252
1761475681502176500,6.047176513671875,2.066425165295601,0.7001862044349313,-0.7314150170437991
1761475681512153600,6.057153564453125,1.9803309361636638,0.5790539796695113,-0.6759246735554189
1761475681522131700,6.067131591796875,1.7020897488445041,0.5076638370640576,-0.5692410992506891
1761475681532108500,6.077108642578125,1.4045371273338794,0.5493725426331162,-0.4434528653729707
1761475681542085600,6.087085693359375,1.1457213559746742,0.725476128514111,-0.4109428173145279
1761475681552062500,6.0970625,0.8034235838085413,0.7932138860918581,-0.35318387130703777
1761475681562039600,6.10703955078125,0.3828524853944778,0.8146439198724925,-0.3094762104731053
1761475681572016400,6.117016357421875,0.041326866644620895,0.826050133897364,-0.340073849038966
1761475681581993500,6.126993408203125,-0.19888474200963974,0.7483899711117148,-0.3511109009578824
1761475681591970600,6.136970458984375,-0.25355156722068783,0.5982888414934278,-0.41508068430423734
1761475681601947600,6.14694775390625,-0.27353286349773404,0.3442041903093457,-0.447921316023916
1761475681611924700,6.1569248046875,-0.278568519577384,0.07570888258740305,-0.4637104943733662
1761475681621901600,6.166901611328125,-0.23705635949373244,-0.15830927825421093,-0.5410018969118595
1761475681631878700,6.176878662109375,-0.19785598348379135,-0.34876747963689264,-0.616936551079154
1761475681641855500,6.18685546875,-0.18500176260769366,-0.5340070695884526,-0.6665068568687885
1761475681651832600,6.19683251953125,-0.1976917328327894,-0.773864750238508,-0.7305792968720197
1761475681661810700,6.206810791015625,-0.2095563581496477,-0.960238385721296,-0.7690536236297338
1761475681671787500,6.21678759765625,-0.1626648431152105,-1.016564960838109,-0.8337965102404356
1761475681681764600,6.2267646484375,-0.07368658297955989,-1.0655706915475427,-0.855425500659272
1761475681691741400,6.236741455078125,0.009777297648787498,-1.1731771528508514,-0.7966451026495546
1761475681701718500,6.246718505859375,0.07065992863476275,-1.2459607225760816,-0.7693863627154379
1761475681711695600,6.256695556640625,0.10306932933032512,-1.3035744148939847,-0.7011721467323601
1761475681721672400,6.26667236328125,0.10861644206345081,-1.3109978428930043,-0.6451438969749957
1761475681731649500,6.2766494140625,0.030289924323558804,-1.360365392652154,-0.5560800774477422
1761475681741626600,6.286626708984375,-0.07093523844480513,-1.41196362407282,-0.48461760025843975
1761475681751603700,6.296603759765625,-0.1697106699734926,-1.371676475739479,-0.4058966763734817
1761475681761580500,6.30658056640625,-0.2507446931064129,-1.3239121233932674,-0.32616898659877475
1761475681771557600,6.3165576171875,-0.357657838383317,-1.247997635231167,-0.18495353955179453
1761475681781534700,6.32653466796875,-0.45564007370769977,-1.1727189607545734,-0.0038185353748500343
1761475681791512600,6.3365126953125,-0.5429600452423096,-1.1047608384244143,0.1462154472913593
1761475681801489700,6.34648974609375,-0.6533627862006426,-1.0865368341434747,0.2665705502044409
1761475681811466500,6.356466552734375,-0.776965200471878,-1.1078675722680986,0.3401009197089821
1761475681821443600,6.366443603515625,-0.9198708656281233,-1.094733730733022,0.3267042625192553
1761475681831420700,6.376420654296875,-1.0689116725385188,-1.0069996254395692,0.25392967981807885
1761475681841397500,6.3863974609375,-1.2480214544981718,-0.8539053784199059,0.174614443301782
1761475681851374600,6.39637451171875,-1.407564950722456,-0.7020429382175206,0.10038564320430159
1761475681861351400,6.406351318359375,-1.513823431482911,-0.7203563012823462,0.15891425841003656
1761475681871328500,6.41632861328125,-1.4253285709500312,-0.8611967044718563,0.28067594018541275
1761475681881305300,6.426305419921875,-1.1232751308888196,-0.9601612288318574,0.29264073794111606
1761475681891282400,6.436282470703125,-0.7816466362863779,-0.8728862654827535,0.13701551113910973
1761475681901259800,6.446259765625,-0.6701344727814197,-0.6688532007992267,-0.04268405340723693
1761475681911236600,6.456236572265625,-0.8103045754939318,-0.478779687885195,-0.08770765567794442
1761475681921214500,6.46621435546875,-1.0374737472236155,-0.24041034609675405,-0.0830933668155223
1761475681931191800,6.47619189453125,-1.1542939540088175,0.1498703896023333,-0.14987301995083688
1761475681941168600,6.486168701171875,-1.2095593296349048,0.40374446677565573,-0.16043628034554422
1761475681951145700,6.496145751953125,-1.3289748136103152,0.4894808223806321,-0.054142509075999254
1761475681961122600,6.50612255859375,-1.2424474537581205,0.5012158299684524,-0.09831438988819718
1761475681971099600,6.516099609375,-1.1650403889507055,0.39438524840846656,-0.12064904435835778
1761475681981076500,6.526076416015625,-1.0495371099829673,0.2158516589015722,-0.18727723325900733
1761475681991053600,6.536053466796875,-0.9806775087684393,0.03533727084100246,-0.23838848488032816
1761475682001030700,6.54603076171875,-0.9434797047525644,-0.08287439030259847,-0.2610508369348943
1761475682011007500,6.556007568359375,-0.8732587520569562,-0.07354001411572099,-0.3148460669431835
1761475682020984600,6.565984619140625,-0.7447311563432216,0.015286270328611134,-0.347547655518353
1761475682030961400,6.57596142578125,-0.5604588770538568,0.17242592028155923,-0.3639011166870594
1761475682040938500,6.5859384765625,-0.4445493553727865,0.26169454166591166,-0.3435184730675071
1761475682050916600,6.59591650390625,-0.28131460341513154,0.39568668639585375,-0.30044330145083364
1761475682060893400,6.6058935546875,-0.05124444954693317,0.5179695425011217,-0.22544446682892738
1761475682070870500,6.61587060546875,0.2927975359380245,0.5860257183782756,-0.11316402236521243
1761475682080847600,6.62584765625,0.6710837363302707,0.6169251529023051,0.054044674724712964
1761475682090824700,6.63582470703125,1.0958540399998427,0.6866543765582144,0.174656382747367
1761475682100801500,6.645801513671875,1.418182206326723,0.71613429967314,0.2914380841530859
1761475682110779400,6.655779296875,1.7285773582756518,0.8134257762543856,0.4488852656852454
1761475682120756500,6.665756591796875,1.8914783482342958,0.9011075668387114,0.651307095779851
1761475682130733300,6.6757333984375,1.9443752411633728,1.0397015062756836,0.87275752453655
1761475682140710400,6.68571044921875,1.8722937552928924,1.1729695745147763,1.0760565027918665
1761475682150687500,6.6956875,1.7588322112858294,1.3244614278391003,1.2124482560094445
1761475682160664300,6.705664306640625,1.745447829055786,1.557831792296469,1.253710167659074
1761475682170641400,6.715641357421875,1.7251240029513835,1.6698437220171094,1.2752240803308785
1761475682180619500,6.72561962890625,1.6280226421147583,1.7013235867775975,1.2763552763178945
1761475682190596400,6.735596435546875,1.4637977100759745,1.6712174945883451,1.2426719101637602
1761475682200573400,6.745573486328125,1.191132861584425,1.6406291718401014,1.2101271926507353
1761475682210550300,6.75555029296875,0.9368301837354898,1.6675585336893797,1.0803706396639345
1761475682220527400,6.76552734375,0.6605249329149723,1.6725772386342286,1.0974180744461715
1761475682230504200,6.775504150390625,0.5335983426570892,1.7087401466444134,1.0978425834685563
1761475682240481300,6.785481201171875,0.527958875465393,1.64382124587968,1.1179419531673191
1761475682250458400,6.795458251953125,0.3554512682497501,1.5870177009008823,1.1108091786779464
1761475682260435500,6.805435546875,0.12495382888019084,1.4194666931793092,1.1310584051761776
1761475682270412500,6.81541259765625,-0.1753624121248722,1.254784518892318,1.0833774202644824
1761475682280389400,6.825389404296875,-0.22920798408091067,1.2340361837655305,0.9351460300408303
1761475682290366500,6.835366455078125,-0.0961772317290306,1.0425957664124668,0.8428985389761626
1761475682300343300,6.84534326171875,0.13622516447901725,0.7517062560528517,0.8298726147949695
1761475682310320400,6.8553203125,0.3639180678218603,0.4590538276739418,0.7636568791527301
1761475682320298500,6.865298583984375,0.5006412449508905,0.16413491566777227,0.6739962627761066
1761475682330275300,6.875275390625,0.5446013827085495,-0.09765738728418946,0.5227659829974174
1761475682340252400,6.88525244140625,0.5216816948920489,-0.3171810126967728,0.2848427775412798
1761475682350229200,6.895229248046875,0.4304845896631479,-0.5335827066965401,0.10096640223432332
1761475682360206300,6.905206298828125,0.3047925096362829,-0.6972656408131123,-0.055842006470263
1761475682370183400,6.915183349609375,0.23047581205964088,-0.8726653162084519,-0.13445665696915238
1761475682380160300,6.92516015625,0.179025610807538,-0.9961272990956902,-0.15921689461842178
1761475682390137300,6.935137451171875,0.14339549449980257,-1.0659816104359925,-0.2626280231237411
1761475682400114200,6.9451142578125,0.05435585956573486,-1.1568031603507698,-0.28414869432989504
1761475682410091500,6.955091552734375,0.012943652725219726,-1.216023264952004,-0.3391293347304687
1761475682420068400,6.965068359375,-0.03222118464708328,-1.2530723081469535,-0.387957882242091
1761475682430045400,6.97504541015625,-0.17174012997448443,-1.3355534613482654,-0.42693606686871494
1761475682440022500,6.9850224609375,-0.2820744818717241,-1.3743614770397543,-0.5005261306712404
1761475682450000400,6.99500048828125,-0.40001463259756564,-1.380400757203996,-0.5202626218743622
1761475682459977500,7.0049775390625,-0.5088672215044499,-1.4225171667911112,-0.3957955535978079
1761475682469954300,7.014954345703125,-0.5557628281921148,-1.451040958224982,-0.2946243495063856
1761475682479931400,7.024931396484375,-0.6548720217198133,-1.380780258040875,-0.2361941531738266
1761475682489908500,7.034908447265625,-0.8242097667276859,-1.3262658469125628,-0.2079072027031332
1761475682499885300,7.04488525390625,-1.1114274567067624,-1.249023471147567,-0.2072447202064097
1761475682509862400,7.0548623046875,-1.3612877681940794,-1.1042569805555045,-0.21503113629892467
1761475682519839200,7.064839111328125,-1.4580144504994152,-0.9181110163487494,-0.22190624623280017
1761475682529816300,7.07481640625,-1.4823586181610822,-0.801760326771438,-0.15007588557917623
1761475682539793200,7.084793212890625,-1.4639911868214606,-0.6796686093240976,-0.065624674413912
1761475682549770200,7.094770263671875,-1.4335878652513026,-0.5460967358328401,0.03929484936036169
1761475682559747600,7.10474755859375,-1.390162565022707,-0.4072967524297535,0.13037508674394338
1761475682569724400,7.114724365234375,-1.443535258769989,-0.4897811205014586,0.3113420043449849
1761475682579702300,7.124702392578125,-1.4344219779878853,-0.7503006270386278,0.5413749314753339
1761475682589679400,7.134679443359375,-1.1479659200310706,-0.9107043933540582,0.484178222460486
1761475682599656400,7.144656494140625,-0.8639391350477933,-0.9917816711068153,0.3265545153176412
1761475682609633500,7.154633544921875,-0.6819044055521488,-0.968403279737383,0.15581556174233555
1761475682619610400,7.1646103515625,-0.5725637408673763,-1.0221525517120957,0.040213462042622265
1761475682629587500,7.17458740234375,-0.4685691133856773,-0.923331673606485,-0.11605163356550037
1761475682639564300,7.184564208984375,-0.4679553654015064,-0.6003305764541029,-0.3738870521178469
1761475682649541400,7.194541259765625,-0.567635052293539,-0.11310673922002315,-0.5320574698906392
1761475682659518200,7.204518310546875,-0.795460642105341,0.30054069741070266,-0.4632995754849165
1761475682669495300,7.214495361328125,-0.9397025243014097,0.6335246977865696,-0.2952238315031864
1761475682679472400,7.224472412109375,-0.962074515107274,0.9703628893725573,-0.2612264126975089
1761475682689449200,7.23444921875,-0.9269050020486116,1.3265093002796173,-0.2831695836320519
1761475682699426300,7.24442626953125,-0.793966604155302,1.5844773687683045,-0.26293533550724385
1761475682709404400,7.254404296875,-0.6376560985028743,1.7104114408574997,-0.2102713745512068
1761475682719381200,7.26438134765625,-0.47671325687468047,1.6973061678297816,-0.14429459876399486
1761475682729358300,7.2743583984375,-0.2105851166754961,1.6809414546146988,-0.07032792020142078
1761475682739335400,7.28433544921875,0.15655483580231666,1.6536070190958678,-0.10753975274264811
1761475682749312500,7.2943125,0.5010217687010765,1.5773234053604304,-0.21701909524574875
1761475682759289300,7.304289306640625,0.8769628672719001,1.442110925055295,-0.45297260806411505
1761475682769266400,7.314266357421875,1.1304741024821996,1.3014644370026887,-0.6000251637667418
1761475682779243500,7.324243408203125,1.2760843504220247,1.1446974197544157,-0.6292979469370097
1761475682789220400,7.334220458984375,1.5093600223332642,1.0811214580312372,-0.801079285704717
1761475682799197400,7.344197509765625,1.7318506808578966,1.003632560159266,-0.9072585637491196
1761475682809174300,7.35417431640625,1.936028853100538,0.9665048987701534,-0.9570876666054129
1761475682819151400,7.3641513671875,2.1228636763542887,0.8528276661857962,-0.9878994959112256
1761475682829128200,7.374128173828125,2.2938123636901375,0.7471919934988022,-0.9944273633100091
1761475682839106300,7.384106201171875,2.4466262593984602,0.6258104701474309,-0.9256908039532601
1761475682849083400,7.39408349609375,2.506732060793042,0.5144762935578823,-0.6982932302951812
1761475682859060200,7.404060302734375,2.441694063693285,0.4554179553896188,-0.4921606360491365
1761475682869037300,7.414037353515625,2.235349653327465,0.4533236134588718,-0.35078393402583896
1761475682879014100,7.42401416015625,1.9685294392108916,0.478420645314455,-0.31312004686817524
1761475682888991200,7.4339912109375,1.7229238625586032,0.467170937025547,-0.28608050264269114
1761475682898968600,7.443968505859375,1.4162579602658747,0.4582983331315219,-0.20616832314655184
1761475682908945400,7.4539453125,1.1027601661264896,0.48852775943949817,-0.19456629428863526
1761475682918922500,7.463922607421875,0.8435515960574149,0.4287482673898339,-0.19114676816873252
1761475682928899300,7.4738994140625,0.5479302348703146,0.32417934715151786,-0.13788915216848252
1761475682938876400,7.48387646484375,0.32431320266425606,0.25356705705076454,-0.16899558050669727
1761475682948853200,7.493853271484375,0.04852466919422149,0.06346972486972809,-0.09925634691342711
1761475682958830300,7.503830322265625,-0.07383797414898872,-0.05972001694738865,-0.11760565807446836
1761475682968808400,7.513808349609375,-0.04543897813856602,-0.19665449873954058,-0.11099719972014427
1761475682978785300,7.523785400390625,-0.06478723720908165,-0.3704698275528848,0.0027345395304262635
1761475682988762400,7.533762451171875,-0.16397534119188784,-0.570497017595917,0.03759600955322385
1761475682998739200,7.5437392578125,-0.1281049863874912,-0.6330331148773432,-0.10783040625229477
1761475683008716300,7.55371630859375,-0.10861644206345081,-0.7435143278993666,-0.2726719358194619
1761475683018693400,7.563693359375,-0.15744506264030933,-0.8568756264023483,-0.36061398477517065
1761475683028670200,7.573670166015625,-0.24653555097877977,-0.9379480818495154,-0.41049481781870123
1761475683038647300,7.583647216796875,-0.26260464224815366,-0.9349936159580945,-0.3916514395304024
1761475683048624400,7.593624267578125,-0.2235948203742504,-0.970695482327789,-0.30650705846920606
1761475683058601500,7.6036015625,-0.2204799032241106,-1.0646205512158573,-0.19146767068617046
1761475683068578300,7.613578369140625,-0.2693511938989162,-1.0288204851686953,-0.257658491082862
1761475683078555400,7.623555419921875,-0.3935422217130661,-1.0775643500715493,-0.23118900183029473
1761475683088532500,7.633532470703125,-0.5828904890924692,-1.0854239775307475,-0.12905330008827148
1761475683098510300,7.64351025390625,-0.7711614826291799,-1.072334778854996,-0.022505480992421507
1761475683108487400,7.6534873046875,-0.89759006023705,-1.0613815692946313,0.07648359328694641
1761475683118464300,7.66346435546875,-0.9879144742846488,-1.0976479376792907,0.23468349288254975
1761475683128441300,7.67344140625,-1.0885597913384437,-1.144350213751942,0.3755276223991066
1761475683138418400,7.68341845703125,-1.2104735218703746,-1.157714429976791,0.39304450132399793
1761475683148395300,7.693395263671875,-1.390177178069949,-1.1633473212972283,0.3452227927673608
1761475683158372400,7.703372314453125,-1.5647487320780753,-1.1174530006065964,0.2654900614913553
1761475683168349200,7.71334912109375,-1.6914193017482757,-1.0167951163321733,0.23414200641699134
1761475683178326300,7.723326171875,-1.7619260856479406,-1.049932100649923,0.31723186610117554
1761475683188303400,7.733303466796875,-1.701003122651577,-1.152542580296844,0.5614125245168805
1761475683198280400,7.743280517578125,-1.4457184480279683,-1.2575003537222742,0.7394805423386395
1761475683208257500,7.753257568359375,-1.0453647927343845,-1.1603946089714765,0.6411020011730492
1761475683218234400,7.763234375,-0.7045622275620699,-0.9953777959026395,0.44039581588990984
1761475683228212500,7.77321240234375,-0.6358528484731912,-0.9313602278918027,0.3007864158000797
1761475683238189300,7.783189208984375,-0.7788222265154123,-0.7571751889832318,0.11292151884622871
1761475683248166400,7.79316650390625,-1.0246551821827887,-0.4439639567002654,-0.027695670046657322
1761475683258143500,7.8031435546875,-1.342028356450796,-0.13525529653355478,-0.13755977408364414
1761475683268120300,7.813120361328125,-1.6338275290012358,0.00010112228691577911,0.03417509519383311
1761475683278097400,7.823097412109375,-1.7755682420313357,0.20826193442493676,0.13498831616044044
1761475683288074200,7.83307421875,-1.6628724216997623,0.41421807612553235,0.1285536800030619
1761475683298051300,7.84305126953125,-1.5686019003748892,0.6177509362019599,0.25442433146722615
1761475683308028200,7.853028076171875,-1.3887643886625767,0.7901425158225,0.32272030744962393
1761475683318005200,7.863005126953125,-1.3073007419407368,0.7671297428950667,0.4797995324522257
1761475683327982300,7.872982421875,-1.2193956639945507,0.8068105958983302,0.5072686272013932
1761475683337959200,7.882959228515625,-1.0703560261279343,0.9741761640504002,0.38915480040907857
1761475683347937300,7.892937255859375,-0.846908505269885,1.068560667143762,0.3016419366508722
1761475683357914000,7.9029140625,-0.4542839829236269,1.1479304103262722,0.2675800925731659
1761475683367891200,7.91289111328125,0.0290659354865551,1.1399497868359088,0.3088631931412965
1761475683377868300,7.922868408203125,0.6566466301769017,1.0990677413493395,0.41537257992289955
1761475683387845400,7.932845458984375,1.3108838611245155,1.0593420262910425,0.5083648249402642
1761475683397822500,7.942822509765625,1.799063099387288,0.9300548443816602,0.6890782427042722
1761475683407799300,7.95279931640625,2.1935709512621164,0.8368903846025466,0.826415752339363
1761475683417776400,7.9627763671875,2.473941551825404,0.8990956424944102,0.8768892175137997
1761475683427753200,7.972753173828125,2.731240488880873,0.9329038040719926,0.8920385635897516
1761475683437730300,7.982730224609375,2.791697587931156,0.9457286527231336,0.9901358035959302
1761475683447707400,7.992707275390625,2.68419115293622,1.0737351471722125,1.0288319564107804
1761475683457684200,8.002684326171876,2.588150699329376,1.294492990554869,0.9914023894656449
1761475683467661300,8.012661376953124,2.435125206696987,1.439649503377825,0.8664477568678557
1761475683477639400,8.022639404296875,2.161158043435216,1.4924708468526602,0.7177925152089446
1761475683487616300,8.0326162109375,1.864821227455139,1.461258254726231,0.5916042491629719
1761475683497593300,8.04259326171875,1.4645242707848547,1.4346587093532084,0.44171990410052236
1761475683507570200,8.052570068359374,1.0601350763648747,1.4308710075080393,0.35917277299091216
1761475683517547300,8.06254736328125,0.7300321843832731,1.44928666190356,0.3802249864351004
1761475683527524400,8.0725244140625,0.5377227291107177,1.4942138911277054,0.44640565076395866
1761475683537501400,8.08250146484375,0.3110416331589222,1.5164770147316158,0.6244523335367441
1761475683547478300,8.092478271484374,0.15464812539815903,1.4866568998768925,0.7720878036938608
1761475683557455400,8.102455322265625,0.10193827947378158,1.313713093201071,0.8536793145790695
1761475683567432400,8.112432373046875,-0.08512801444828509,1.071570954875648,0.8592552880804986
1761475683577409300,8.1224091796875,-0.23083529302179812,0.8573783152274786,0.6735939655855298
1761475683587386400,8.132386474609374,-0.2888625345766544,0.66800798214674,0.3921132118232548
1761475683597363200,8.14236328125,-0.27381577209234237,0.39052097419574855,0.14932934152819216
1761475683607341300,8.15234130859375,-0.1714151358038187,0.07189677695333957,0.06634747226312757
1761475683617318400,8.162318359375,-0.02100479410588741,-0.1680222784951329,0.053136400773376224
1761475683627295200,8.172295166015624,0.12048632807731628,-0.3317750629775226,0.06940927098654211
1761475683637272300,8.182272216796875,0.1819628333032131,-0.5421347003340721,0.19433964592590927
1761475683647249200,8.192249267578125,0.30081659174263475,-0.6324126448914408,0.24937537751458583
1761475683657226200,8.202226318359376,0.39601065765321253,-0.7219900399640202,0.25196502868160603
1761475683667203300,8.212203369140624,0.4126683624655008,-0.8175852340213954,0.29680655238367615
1761475683677180400,8.222180419921875,0.38181320547461506,-0.8998407617732882,0.23098668419122695
1761475683687157500,8.232157470703125,0.30011984165012834,-1.0092515690848232,0.1849251171749085
1761475683697134300,8.24213427734375,0.2056570126235485,-1.0945787593670189,0.057783057535439726
1761475683707111400,8.252111328125,0.08604220668375491,-1.1894829024203122,-0.11171345823071896
1761475683717088300,8.262088134765625,-0.01507014335989952,-1.2616465136162935,-0.23917758943140505
1761475683727065300,8.2720654296875,-0.1371025318354368,-1.35513216817379,-0.27293255951702594
1761475683737043500,8.28204345703125,-0.1831090807288885,-1.3022004961922764,-0.3731467916771769
1761475683747020300,8.292020263671875,-0.3633411447167396,-1.2833002731502055,-0.38362968031205236
1761475683756997400,8.301997314453125,-0.7074380752593279,-1.3046907055728136,-0.27424159628897904
1761475683766974200,8.31197412109375,-0.989464041814208,-1.23608420233652,-0.22751075170896945
1761475683776951300,8.321951416015626,-1.2511825488775967,-1.1723831529289483,-0.17894355854727326
1761475683786928400,8.331928466796874,-1.4199731813967227,-1.1510903356619178,-0.09720105835143476
1761475683796905200,8.3419052734375,-1.48502988319695,-1.167008766414225,-0.039644356917776166
1761475683806882300,8.35188232421875,-1.5175678787082434,-1.1508674866914748,-0.030703948484547435
1761475683816859100,8.361859130859376,-1.506063318875432,-1.0405889566347002,-0.07494936945699154
1761475683826836200,8.371836181640624,-1.4554273566156626,-0.8534637721322477,-0.13001447327062488
1761475683836813300,8.381813232421875,-1.4988514878004788,-0.7838416621126234,-0.005855740290880203
1761475683846790400,8.391790283203125,-1.594555841320753,-0.8459177406668662,0.3551858587792143
1761475683856767500,8.401767578125,-1.4804834719389677,-1.0065746049605309,0.6968785411916673
1761475683866745300,8.411745361328125,-1.1845663426756858,-1.087112222878635,0.7814801936782896
1761475683876722400,8.421722412109375,-0.8323585863918066,-0.9526415008515119,0.5744175520405173
1761475683886699300,8.43169921875,-0.6984025358885526,-0.779898915836215,0.27628566933721305
1761475683896676400,8.44167626953125,-0.8201888406485318,-0.6126669109359383,0.0644987391239032
1761475683906653400,8.4516533203125,-1.0214648617088795,-0.3403932537190616,-0.10845702285119331
1761475683916630300,8.46163037109375,-1.067447445204854,-0.01537204891592264,-0.13670697491290046
1761475683926607400,8.471607421875,-1.140143263581395,0.4011148489244282,0.027801240179827436
1761475683936584200,8.481584228515626,-1.1440221508413553,0.7189211539126932,0.2922364131902344
1761475683946561300,8.491561279296874,-1.0759393792182206,0.9880034677423536,0.5285938854333013
1761475683956538000,8.5015380859375,-0.8960784866303205,1.2481798599302767,0.5236550042590126
1761475683966515200,8.51151513671875,-0.6637737055778503,1.3789515813089905,0.5529639181885868
1761475683976492300,8.5214921875,-0.3747288001716137,1.4796194024555385,0.510759538057074
1761475683986469400,8.531469482421874,-0.09845219092369079,1.5669113169394433,0.5378304272688925
1761475683996447200,8.541447265625,0.16508768634796142,1.5264324454262852,0.6630527708921581
1761475684006424300,8.55142431640625,0.4108259494692087,1.40658280781731,0.7842584992852062
1761475684016401400,8.5614013671875,0.6775210759013891,1.3120403376832603,0.8308882946435362
1761475684026378500,8.57137841796875,0.942307153841853,1.2452499439582227,0.7765072275713085
1761475684036355300,8.581355224609375,1.1420505585074423,1.1628032775484025,0.7049971118479966
1761475684046332400,8.59133251953125,1.2929349474579095,1.0812973991200328,0.5617751107515767
1761475684056309200,8.601309326171876,1.3788514819353819,1.013031964406371,0.47206912086326625
1761475684066286300,8.611286376953124,1.6051128911703825,0.9613618367932736,0.29970450231488793
1761475684076263400,8.621263427734375,1.8646523006290197,0.9107707365885377,0.07027940488457679
1761475684086240300,8.631240234375,2.029447141510248,0.9191732387527823,-0.06527692042216658
1761475684096217300,8.64121728515625,2.2439199132740497,0.8995664748765527,-0.18847915639467536
1761475684106194200,8.651194091796874,2.2964912275105713,0.7685732197016477,-0.14439816873632372
1761475684116172000,8.661172119140625,2.1245301482617855,0.730979694366455,-0.08823197181299328
1761475684126148900,8.67114892578125,1.8185048819601535,0.758667619498074,0.011204590505547821
1761475684136126000,8.6811259765625,1.4742781875580548,0.8660068812325596,0.05313468374032527
1761475684146102800,8.691102783203124,1.167579552039504,0.919638225916028,0.12092007985208182
1761475684156080000,8.701080078125,0.7484124752044677,0.9302717020027339,0.23646292364522814
1761475684166057000,8.711056884765625,0.27605156832039357,0.9281235840581357,0.2250807115504518
1761475684176034000,8.721033935546876,-0.09192717306911945,0.87442662679255,0.13896116531416772
1761475684186011100,8.73101123046875,-0.36378888848423957,0.813822374356538,0.07150438010226935
1761475684195988000,8.740988037109375,-0.4609627300351858,0.7444155145227909,-0.0105280064182356
1761475684205965000,8.750965087890625,-0.4182978927850723,0.6244621242783963,0.049418512761406595
1761475684215942000,8.76094189453125,-0.2762619962006807,0.5165994231916964,0.13316625183243302
1761475684225919000,8.7709189453125,-0.09123919080495833,0.34854251177459955,0.24141630826890467
1761475684235895800,8.780895751953125,-0.007920856127142906,0.12623159373104573,0.28579993213564153
1761475684245874000,8.7908740234375,0.08867606231868266,-0.1514554668366909,0.19344094352051613
1761475684255851000,8.80085107421875,0.2187882968753576,-0.3229819540604949,0.016572364616394043
1761475684265827800,8.810827880859375,0.3253793705910444,-0.5117480376377701,-0.12981003673970698
1761475684275805000,8.820804931640625,0.4160375466376543,-0.7102122161477804,-0.17686214916333556
1761475684285782000,8.830781982421875,0.5238473484933376,-0.8151321417808532,-0.2826145800977945
1761475684295758800,8.8407587890625,0.550760489860177,-0.9298657515503466,-0.3649848202705383
1761475684305736200,8.850736083984375,0.606292991989851,-1.0002918714292346,-0.4709803757784888
1761475684315713000,8.860713134765625,0.6527817714422941,-1.0389487882122397,-0.5293434616915881
1761475684325690000,8.870690185546875,0.6376788948565721,-1.1005268541164697,-0.5064984100138769
1761475684335667000,8.8806669921875,0.5707680896222591,-1.118590334073454,-0.4508803850252181
1761475684345644000,8.89064404296875,0.3920002529680729,-1.0833150225527584,-0.50012949603647
1761475684355621000,8.90062109375,0.16632044301331042,-1.0052077005214988,-0.44534423207752405
1761475684365599000,8.910598876953125,-0.05685469064414501,-0.9076948362745344,-0.3641963002413511
1761475684375576000,8.920576171875,-0.2467752049535513,-0.7978169959731399,-0.16303279964476822
1761475684385553000,8.930552978515625,-0.3492570897847414,-0.6984621571213007,0.06859930631052702
1761475684395530000,8.940530029296875,-0.43388533801734447,-0.638466976494342,0.2883318617660552
1761475684405507000,8.950507080078125,-0.5348042113155126,-0.64234995540753,0.4742231936246156
1761475684415484000,8.96048388671875,-0.6693570586681366,-0.659689943395555,0.5169176588280127
1761475684425461000,8.9704609375,-0.9391197559773922,-0.6784517808802425,0.48010808694474394
1761475684435437800,8.980437744140625,-1.263905252328515,-0.6877776814997196,0.3553226734340191
1761475684445415000,8.990414794921875,-1.4830617979943752,-0.6536442334905266,0.11172321243975311
1761475684455392000,9.00039208984375,-1.6719102991580963,-0.7050684235185384,0.04495693024266511
1761475684465369000,9.010369140625,-1.7450024233758448,-0.8919517620891332,0.19007413396853953
1761475684475346200,9.02034619140625,-1.5654805534839629,-1.0679530566394329,0.3112025958742946
1761475684485323000,9.030322998046875,-1.2521458409518003,-1.0879016196906566,0.21453356204032897
1761475684495301000,9.040301025390624,-1.0280804804563521,-1.0842694006681441,0.10316599463783203
1761475684505278000,9.05027783203125,-0.9887485870212316,-1.0547026760526002,-0.008933869094587862
1761475684515255000,9.060255126953125,-1.047434000223875,-0.9359640684254467,-0.21252572934925554
1761475684525232000,9.070232177734376,-1.1505115128606558,-0.6765206666871905,-0.39036286102458834
1761475684535209000,9.080208984375,-1.3812059361070395,-0.46233343386650083,-0.45980961447730656
1761475684545186000,9.09018603515625,-1.759455896142125,-0.1946510499626398,-0.39405773348715156
1761475684555163000,9.100162841796875,-2.0050094503462312,0.12346008319109678,-0.3648638242393732
1761475684565140000,9.110139892578125,-2.050551888859272,0.44045594857931136,-0.40200701199118044
1761475684575116800,9.12011669921875,-1.9270792384475468,0.7272901921987533,-0.4203260010791942
1761475684585094000,9.130093994140625,-1.7636773132294414,0.9207816968627274,-0.22063370554633438
1761475684595071000,9.140071044921875,-1.4938286912024021,1.0511278863057494,0.046724341773986815
1761475684605048000,9.150048095703125,-1.1108616395175457,1.1086560922972857,0.24239384806416928
1761475684615025200,9.160025146484376,-0.6554425150841474,1.1471649789117275,0.29935731457872317
1761475684625003000,9.1700029296875,-0.24258418300449847,1.082974538552016,0.44608102191947396
1761475684634979800,9.179979736328125,0.32929800533950326,1.0865078272446989,0.559006120962277
1761475684644957200,9.189957275390626,0.9073165044814347,1.0440214153014122,0.591892966443859
1761475684654934000,9.19993408203125,1.3631933095544575,0.966434756143391,0.6185626179110258
1761475684664911000,9.2099111328125,1.6551485494494438,0.8049618992917239,0.767812245266512
1761475684674888000,9.219887939453125,1.795820171943307,0.5982007248185575,1.0179530541956423
1761475684684865000,9.229864990234375,1.9267817168056964,0.5932343345828354,0.950571124318242
1761475684694842000,9.239842041015624,2.008361683383584,0.8360606557801366,0.8218613039053976
1761475684704819000,9.24981884765625,1.9616648141384123,1.1363707593053578,0.7307343413032591
1761475684714796000,9.259796142578125,1.7793021678626537,1.3493980084359645,0.6721990771610289
1761475684724772900,9.26977294921875,1.6499860521197318,1.5589581659778953,0.5476413349263369
1761475684734750000,9.27975,1.5260592281997203,1.657732720723748,0.2968805309353396
1761475684744728000,9.28972802734375,1.2851497004091739,1.6683695578113198,0.14030045109391212
1761475684754705000,9.299704833984375,0.9524094456613064,1.583884225180745,0.07530223801527172
1761475684764682000,9.309681884765626,0.6223293500334024,1.495762874135375,0.05533345415992662
1761475684774658800,9.319658935546874,0.4382482094019651,1.5063751613035796,0.08551915092403069
1761475684784636000,9.329635986328125,0.5044897370725869,1.5631179160058497,0.16349669082947074
1761475684794613000,9.339613037109375,0.7184972294121981,1.5946315369054673,0.2697716843333095
1761475684804590000,9.349590087890626,0.8206897759079933,1.3814905982673167,0.587595488445647
1761475684814567200,9.359567138671874,0.853982389178872,1.0397833393402398,0.8203975880283861
1761475684824544000,9.3695439453125,0.7636644048720598,0.7874098759882152,0.8181149569839239
1761475684834521000,9.37952099609375,0.6068570556133985,0.6208391114756464,0.5621107359141111
1761475684844498000,9.389497802734375,0.38698680872023106,0.42927053769826884,0.33298575394153596
1761475684854475000,9.39947509765625,0.17791852634847163,0.24263942032307384,0.1699474378714338
1761475684864451800,9.409451904296875,0.04978139125704765,0.07348097740486263,0.03532379030492157
1761475684874430000,9.419429931640625,-0.022631518524885177,-0.08621522516310215,-0.03561261718366295
1761475684884407000,9.429406982421876,-0.006257306829094886,-0.2218172893077135,-0.008457958678528665
1761475684894383900,9.4393837890625,0.08561258309483527,-0.39665553142800924,0.060201261125691234
1761475684904361000,9.44936083984375,0.1783247690618038,-0.6097554074034095,0.1932483800904825
1761475684914337800,9.459337890625,0.3055693392276764,-0.7383831024907529,0.2268117000615224
1761475684924315000,9.46931494140625,0.3949497504234314,-0.8743737275615334,0.20698862655349073
1761475684934292000,9.4792919921875,0.35287937193512914,-1.0464340294010936,0.17915084462240338
1761475684944269000,9.48926904296875,0.2591875272810459,-1.1319979510486124,0.10434596167001872
1761475684954246100,9.49924609375,0.1349731185913086,-1.192437076050788,-0.02233909318326041
1761475684964223000,9.509222900390625,-0.02248188092112541,-1.2464226409994066,-0.143355089424178
1761475684974200000,9.519199951171874,-0.24114158298075197,-1.3038343810044228,-0.2154361186369322
1761475684984177000,9.529177001953125,-0.46889469207823276,-1.2902043534502385,-0.28260478935614225
1761475684994155000,9.539155029296875,-0.667138798096776,-1.203612550059706,-0.3585606324419379
1761475685004132000,9.549132080078126,-0.82619772567451,-1.0883490711972117,-0.4091315301088616
1761475685014109000,9.55910888671875,-0.9546247836232185,-0.9348591759234667,-0.3167132490545511
1761475685024086000,9.5690859375,-0.9884493118137121,-0.7688495524249971,-0.1784909194089472
1761475685034063000,9.57906298828125,-0.9191361216127872,-0.6814578308284283,-0.03877792194732465
1761475685044040000,9.5890400390625,-0.8279489532560109,-0.6160491007201373,0.06918277788744308
1761475685054017000,9.59901708984375,-0.806029382392764,-0.5423712855689228,0.10850395813230425
1761475685063993900,9.608993896484375,-0.8803706298887729,-0.521074230518192,0.070604910511896
1761475685073971000,9.618970947265625,-0.9874678995609283,-0.45743528656139965,-0.00013571410968434065
1761475685083947800,9.62894775390625,-1.0784691899567842,-0.33314035998135805,-0.10250408752984366
1761475685093925000,9.638925048828124,-1.0952946525514125,-0.20681305079087614,-0.18279725656704976
1761475685103902200,9.648902099609375,-1.1127414619147777,-0.2279538923665881,-0.022775137379812075
1761475685113879300,9.65887939453125,-1.0128390721827745,-0.4410428085565567,0.29541201101904735
1761475685123857000,9.66885693359375,-0.7677116344362497,-0.5899062130734324,0.3977048943504691
1761475685133834200,9.678834228515624,-0.522009611672163,-0.559183888681978,0.3380648838367313
1761475685143811300,9.688811279296875,-0.3650724985539913,-0.5383474368803203,0.2531743496724404
1761475685153788200,9.6987880859375,-0.3271399505227804,-0.4357523009330034,0.08346844720561057
1761475685163765200,9.70876513671875,-0.3699672848582268,-0.18774580061882734,-0.19349671056205406
1761475685173742000,9.7187421875,-0.5422603725403548,0.13371405844092368,-0.4330274790789932
1761475685183719200,9.72871923828125,-0.716479459849,0.34655703704580665,-0.43454197529517113
1761475685193696000,9.738696044921875,-0.9390484443068504,0.5614627933993935,-0.27950232982877643
1761475685203673000,9.748673095703126,-1.0822393561452626,0.7987589529983699,-0.15152078715786338
1761475685213650200,9.758650146484374,-0.9831383459240197,0.9624566462926566,-0.059515014160890126
1761475685223627000,9.768626953125,-0.7678308769017458,1.0692712996311484,0.03970969550525769
1761475685233604000,9.77860400390625,-0.4699216970384121,1.1614072931453585,0.04364339082553051
1761475685243582000,9.78858203125,-0.29439444974064827,1.0735837560027837,0.06536973153846339
1761475685253559000,9.79855908203125,-0.1988385647803545,0.9272830415807664,0.08974127126424573
1761475685263536000,9.8085361328125,-0.10560381624400615,0.7786182283759117,0.11933167814947664
1761475685273513000,9.818512939453125,0.08524608787000179,0.649229047396779,0.18374414549572393
1761475685283490300,9.828490234375,0.3641892859786749,0.5965114565573633,0.21638070601066572
1761475685293467100,9.838467041015624,0.6612830578058958,0.5711169030599296,0.11440112641211599
1761475685303444200,9.8484443359375,0.8491343646258115,0.4613872390575707,0.11086602935483679
1761475685313421000,9.858421142578125,0.9192711461693048,0.446060928979516,0.058781895847059784
1761475685323398100,9.868398193359376,0.9549655598849057,0.4654474742338061,0.009252561388630419
1761475685333375200,9.878375244140624,1.0510866775125265,0.494321686540544,-0.08811758818570524
1761475685343352000,9.88835205078125,1.120909570801258,0.5290222669132053,-0.25500786697622385
1761475685353329200,9.8983291015625,1.2370090620964764,0.6097985158927738,-0.5223780065931379
1761475685363306000,9.908305908203126,1.3586691101282835,0.6800823046915233,-0.8157534885495901
1761475685373284000,9.9182841796875,1.4075018223583697,0.7137889055907726,-0.9567248977076261
1761475685383261200,9.92826123046875,1.3667507097750902,0.6740066380396484,-0.9134271693814545
1761475685393238000,9.938238037109375,1.2733657391130924,0.606090601285547,-0.6298776465211063
1761475685403215000,9.948215087890626,1.2423591909527778,0.6340604120984673,-0.29070874696522947
1761475685413192000,9.95819189453125,1.081856494307518,0.7351327223926782,-0.04136106117516756
1761475685423169000,9.9681689453125,0.8113321649760007,0.7729748156614601,0.21778231643689794
1761475685433146000,9.97814599609375,0.5012216751873493,0.8294234097227454,0.35824345625154674
1761475685443123200,9.988123291015626,0.3250572990298271,0.8780873412571847,0.43265152190607037
1761475685453100300,9.998100341796874,0.16407178730368613,0.7831113020114601,0.46588195666093374
1761475685463077000,10.0080771484375,0.05514145698547363,0.6185045310482382,0.43631786239389325
1761475685473054200,10.01805419921875,-0.0517050527960062,0.43369624518603084,0.39013168261721726
1761475685483031000,10.028031005859376,-0.023555647632479665,0.2551538878507912,0.2646725345633924
1761475685493009200,10.038009033203124,0.08561784379184245,0.10279080464988946,0.09137940299324691
1761475685502986200,10.047986328125,0.27476562016308304,-0.15099851684942842,0.0591540170950815
1761475685512963000,10.057963134765625,0.4907195703953504,-0.40049262537285685,0.06497033869102598
1761475685522940200,10.067940185546876,0.613659721365571,-0.5704618001520634,0.05297200399190187
1761475685532917000,10.0779169921875,0.5842185228258371,-0.7705620554313063,0.06731916683949529
1761475685542894000,10.08789404296875,0.5278495698720217,-0.9030528556875884,0.06425755077917128
1761475685552871200,10.09787109375,0.5108709625422955,-0.9536641218975186,0.06092778530195355
1761475685562848000,10.107847900390626,0.5965513501763343,-0.9453979594640434,0.033894195893220604
1761475685572825000,10.1178251953125,0.7014794591158628,-1.009581093300134,0.023731844449602066
1761475685582802200,10.12780224609375,0.7951467538505792,-1.080331915088743,-0.004948233524523675
1761475685592779300,10.137779296875,0.8247808446139097,-1.1392489450901746,-0.026618980725854634
1761475685602756000,10.147756103515626,0.7354699915230274,-1.1751900270432234,0.007035816920921206
1761475685612733200,10.157733154296874,0.5315349803864956,-1.1629637288071215,0.03843538298681378
1761475685622711300,10.167711181640625,0.2956517563253641,-1.0676195869013667,0.1323626438319683
1761475685632688000,10.177688232421875,0.05071721080243587,-0.8858563678234815,0.2588315899828449
1761475685642665200,10.187665283203126,-0.2776823843926191,-0.7446972540736198,0.4186783800026402
1761475685652642000,10.19764208984375,-0.5591799431592226,-0.5674241860218345,0.5717350714908912
1761475685662619100,10.207619140625,-0.734706021413207,-0.4811076924413442,0.7140396654814481
1761475685672596200,10.21759619140625,-0.8211503791570663,-0.48916912608295676,0.8595552208751439
1761475685682573000,10.227572998046876,-0.8429653206020593,-0.5180937534026802,0.8943051202822476
1761475685692550100,10.237550048828124,-0.962404769974947,-0.6101878074713051,0.8493870242126286
1761475685702527000,10.24752685546875,-1.1239800642877817,-0.6892227657414972,0.7078953905727714
1761475685712504000,10.257504150390625,-1.2836989170789719,-0.7547225351341068,0.4998169960211962
1761475685722481000,10.26748095703125,-1.4294932894140482,-0.8136625076197087,0.2947247046083212
1761475685732458200,10.277458251953124,-1.5906781231045721,-0.8596319393731653,0.210730297299847
1761475685742436000,10.28743603515625,-1.686416963416338,-0.9477760867722332,0.2494548724915832
1761475685752413000,10.297412841796875,-1.6274024643898009,-1.1953661152400075,0.38320758244246245
1761475685762390000,10.30739013671875,-1.3546464304834605,-1.368049225153029,0.4421664788242429
1761475685772367000,10.3173671875,-1.0533949544548988,-1.3262227384231984,0.17445114249885083
1761475685782344200,10.32734423828125,-0.831540840268135,-1.2119384798564017,-0.2582824682001024
1761475685792321300,10.3373212890625,-0.9100263479620218,-1.1517907390162347,-0.5323351177882403
1761475685802298000,10.347298095703126,-1.226077333715558,-1.0013241370864212,-0.7294224549870938
1761475685812275200,10.357275146484374,-1.6294173113435506,-0.6625865416198968,-0.912355740757659
1761475685822252000,10.367251953125,-2.0556793148756025,-0.2184235552161932,-1.0604757064960897
1761475685832229000,10.37722900390625,-2.298632915714383,0.22327274881303308,-1.0814363691993056
1761475685842206000,10.3872060546875,-2.2794857321739195,0.6200631586670875,-1.0294614134207367
1761475685852183000,10.39718310546875,-2.097102627632022,0.9271652604199946,-1.00610991005823
1761475685862160100,10.40716015625,-1.7614567145705222,1.0621138290919363,-0.7935098733637481
1761475685872138000,10.417137939453125,-1.4159604386240243,1.0602503733076154,-0.5177641561221331
1761475685882115000,10.427114990234376,-0.9157803814440965,1.0976024911023676,-0.36347222375050187
1761475685892092200,10.437092041015624,-0.4948597389400005,1.075949900612235,-0.1982937538465485
1761475685902069000,10.447069091796875,-0.1939537153482437,0.9692119657717645,0.0055618719108402725
1761475685912046000,10.457046142578125,0.10856500413715839,0.8710137496091425,0.09665354400388895
1761475685922023200,10.467023193359376,0.457789945217967,0.8080775470942259,0.028401114902272817
1761475685932000300,10.477000244140624,0.8964198474138975,0.8485752694383263,-0.10421433464698493
1761475685941977000,10.48697705078125,1.283581428179145,0.885193227739632,-0.24184085382390766
1761475685951954200,10.4969541015625,1.560372416689992,0.8575716458424926,-0.2616218052232638
1761475685961931000,10.506930908203126,1.8738111741185188,0.8894429941385984,-0.21041472854465246
1761475685971908000,10.516908203125,2.095829538956284,0.905831526620686,-0.12964052539169788
1761475685981885200,10.52688525390625,2.2358464969336986,0.876010096591711,-0.008556962073594332
1761475685991863000,10.536863037109375,2.296862983432412,1.0245815324246883,0.02812266328707337
1761475686001840000,10.546840087890626,2.229386945530772,1.260678691497445,-0.020931728869676588
1761475686011817200,10.556817138671875,2.1616379359066484,1.4872346997648476,-0.12338084394242614
1761475686021794000,10.5667939453125,2.0294208380252123,1.5477078731670975,-0.1955691511882469
1761475686031771100,10.576771240234375,1.7940566694021225,1.4966051701784133,-0.22407358033452182
1761475686041748000,10.586748046875,1.5735101306825876,1.4031822055935859,-0.2661308436129242
1761475686051725000,10.59672509765625,1.346183722564578,1.3368731656447053,-0.289913541466929
1761475686061702000,10.606701904296875,1.1747124726593494,1.3614666318923234,-0.3250968638552353
1761475686071679200,10.61667919921875,1.0278770668387411,1.3279910632699727,-0.2053109939311631
1761475686081656300,10.62665625,0.8790180462360382,1.2948708839565515,0.012023103814199566
1761475686091633200,10.636633056640624,0.7530646849244833,1.2052914430573582,0.18300403118552638
1761475686101610200,10.6466103515625,0.6435363887131214,1.1011559458002447,0.28381076761242
1761475686111588000,10.656588134765625,0.5231085128247738,1.016382297747582,0.3697100952267647
1761475686121565000,10.66656494140625,0.3847182792663574,0.9040480042047798,0.34061175530795007
1761475686131542000,10.6765419921875,0.20983225248157977,0.6686233375661075,0.21597473729196934
1761475686141518800,10.686518798828125,0.006650690060853958,0.3722102414794266,0.036910657637566326
1761475686151496000,10.696495849609375,-0.05306055905818939,0.08079860694184898,-0.18125895935017614
1761475686161473000,10.70647314453125,0.04619593398571014,-0.16305369630232452,-0.31814872521776705
1761475686171449900,10.716449951171874,0.19179624505341053,-0.4585885482497513,-0.3182487880587578
1761475686181427000,10.726427001953125,0.2883540005326271,-0.7229531859077513,-0.20650084303654728
1761475686191403800,10.73640380859375,0.37729718935489653,-0.9536942247748375,-0.09665138857942074
1761475686201380900,10.746380859375,0.47067982192933555,-1.1864859125614167,0.08329634204171597
1761475686211358000,10.75635791015625,0.5012877261608839,-1.278870912400633,0.20777104563545434
1761475686221335000,10.7663349609375,0.4773001168519258,-1.301525227279216,0.23916630085241047
1761475686231312100,10.77631201171875,0.36816052769720553,-1.318301005513221,0.23640220643393695
1761475686241289700,10.786289794921874,0.19341946234107016,-1.3169678572133183,0.23853017663965
1761475686251267000,10.79626708984375,0.051017070531845087,-1.2004323125883936,0.24965445018429308
1761475686261244200,10.806244140625,-0.11910802546143531,-1.0852949443235993,0.16870415981207043
1761475686271221000,10.816220947265625,-0.3744002988696098,-0.9667099198229611,0.04872863536768127
1761475686281198000,10.826197998046876,-0.6547726529985666,-0.8362253448225557,-0.005053111821238417
1761475686291175000,10.8361748046875,-0.7346341252207755,-0.6851283360347151,-0.11399608927518129
1761475686301152000,10.846152099609375,-0.7289011345267296,-0.6165155491881072,0.043469796957448126
1761475686311128800,10.85612890625,-0.9371236137241125,-0.6114610422775149,0.33694800863601265
1761475686321106000,10.86610595703125,-1.1000035608947276,-0.5936480299502611,0.48045310099013144
1761475686331083000,10.8760830078125,-1.0891104109585286,-0.5499629097416997,0.376976432967931
1761475686341059800,10.886059814453125,-1.0845575699597596,-0.5977870294511318,0.3117971277013421
1761475686351037000,10.896036865234375,-1.157383736717701,-0.6381456355854869,0.2642605196963996
1761475686361014800,10.906014892578124,-1.2306149771451949,-0.5876224860504269,0.08558130204058252
1761475686370991900,10.915991943359375,-1.131961710691452,-0.4698373797558248,-0.1262012625248637
1761475686380969000,10.925968994140625,-1.188868423783779,-0.5400437194041907,0.06313859321922063
1761475686390945800,10.93594580078125,-1.29716747046113,-0.8305055058710277,0.5305961286338046
1761475686400923100,10.945923095703124,-1.157434005600214,-1.0099014112956821,0.6353171341612934
1761475686410900000,10.95589990234375,-0.9067308135479688,-1.0340880503080785,0.5160397800149396
1761475686420877000,10.965876953125,-0.6364566595852374,-1.0152712677657603,0.3150677834024653
1761475686430854000,10.97585400390625,-0.4098568121761083,-1.0043383703410624,0.12798304050825535
1761475686440831000,10.9858310546875,-0.24504502016007898,-0.9399807567209005,-0.013866905049979686
1761475686450808000,10.99580810546875,-0.5183446594238281,-0.8009988408796489,-0.04118090056898072
1761475686460785000,11.005784912109375,-0.5914917286992073,-0.5061437878899276,-0.07550744629774708
1761475686470762000,11.015761962890625,-0.6475479624420404,-0.11739435341134667,-0.5965899286210536
1761475686480739800,11.02573974609375,-0.7578460739821196,0.1325266022220254,-0.9664159053124487
1761475686490717000,11.035717041015625,-0.997170378407836,0.08949906913936137,-1.2650890552856027
1761475686500694000,11.045694091796875,-0.9935860901802778,0.20675854412466285,-1.6846638361386954
1761475686510670800,11.0556708984375,-0.9848585938453673,0.6516251487530768,-1.708054502467811
