time,seconds_elapsed,z,y,x
1761476011913008600,0.121008544921875,0.3981891707360744,0.002620411631464958,0.21913347531752658
1761476011923044600,0.131044677734375,0.5300426960021257,-0.036071868725866076,0.2648499186906032
1761476011933081600,0.14108154296875,0.618245880112052,-0.06553235648795962,0.2694509644789621
1761476011943117600,0.15111767578125,0.631367812013626,-0.09433657229840754,0.23449450964909047
1761476011953153500,0.161153564453125,0.6089987438172102,-0.14581220025271177,0.20935811389749867
1761476011963189500,0.171189453125,0.5871528227120637,-0.22044410125836728,0.22456278862357137
1761476011973226800,0.181226806640625,0.5349614477038384,-0.28894641346782446,0.2245087934140116
1761476011983262700,0.1912626953125,0.4979232181638479,-0.3233981336459517,0.20222747656628487
1761476011993298700,0.201298583984375,0.4294271895647049,-0.36966800965070723,0.17262555277319624
1761476012003335700,0.211335693359375,0.2702852598786354,-0.4046867160618305,0.14226333039840683
1761476012013371600,0.22137158203125,0.2076432180047035,-0.427116282273829,0.13414220245881006
1761476012023407600,0.23140771484375,0.2211199546933174,-0.4404710000179708,0.15001183476648292
1761476012033443600,0.241443603515625,0.15598960313498972,-0.43653497574329375,0.13742023774879053
1761476012043480600,0.25148046875,0.0377408248513937,-0.4444407804317772,0.11728420756775886
1761476012053516500,0.2615166015625,0.0551864651709795,-0.5089888020575046,0.09798163253618404
1761476012063552500,0.271552490234375,0.1423702431052923,-0.5680174757398665,0.1303639625617303
1761476012073589800,0.28158984375,0.13954057263731956,-0.5730429026864469,0.1756117289771326
1761476012083625700,0.291625732421875,0.0577525162667036,-0.5904229304239154,0.20328937017675489
1761476012093661700,0.30166162109375,-0.04453121564388275,-0.6128665251612663,0.23708996950238942
1761476012103697700,0.31169775390625,-0.08270107956230639,-0.6363311335094273,0.2766489496916532
1761476012113734700,0.321734619140625,-0.04007423623502254,-0.6723800597511231,0.29433387865982946
1761476012123770600,0.3317705078125,0.040299277162551876,-0.7159016599610447,0.31435473976228384
1761476012133806600,0.341806640625,0.0476356114000082,-0.75342051262483,0.3480998825736344
1761476012143843600,0.351843505859375,-0.04779810848534107,-0.7849921473219991,0.37029816078040745
1761476012153879600,0.361879638671875,-0.016947627669572828,-0.8319210717573762,0.413953506905213
1761476012163916000,0.371916015625,0.07238835986256599,-0.8437094169676304,0.4395054063888266
1761476012173953000,0.381953125,0.16626257534623146,-0.8677813435591757,0.4273706223610788
1761476012183989000,0.391989013671875,0.21750001063048838,-0.9053156860530376,0.4144926187505945
1761476012194025200,0.402025146484375,0.23479952047765254,-0.9576279109619558,0.4122938300646841
1761476012204061200,0.412061279296875,0.28405951820909975,-1.0018674501828848,0.42845618910808114
1761476012214098200,0.42209814453125,0.4059937070071697,-1.0206564679354428,0.4609715709287673
1761476012224134100,0.432134033203125,0.5267693734198808,-1.0471854322902858,0.49912850230038164
1761476012234170000,0.442170166015625,0.5583598589479923,-1.1017106570735573,0.5556618885682896
1761476012244207000,0.45220703125,0.5583171888500452,-1.1666109992682934,0.63326283197999
1761476012254243000,0.4622431640625,0.5709527985394001,-1.2242334594145416,0.6633250850275159
1761476012264279000,0.472279052734375,0.5052414322227239,-1.2461581448443233,0.7037634783998131
1761476012274315000,0.48231494140625,0.46673196108639237,-1.2473868098564445,0.7092644139036536
1761476012284352000,0.49235205078125,0.5877805992215871,-1.179491523629427,0.6484121049907058
1761476012294388000,0.502387939453125,0.6980383787512778,-1.0369561530902982,0.541037077823095
1761476012304424000,0.512423828125,0.6661018562644719,-0.8450684303611516,0.5043939485479146
1761476012314461200,0.522461181640625,0.39695173789560795,-0.7272140582226216,0.6040528483802452
1761476012324497200,0.5324970703125,-0.0068348144561052315,-0.7862604136921465,0.7886760234665126
1761476012334533000,0.542533203125,-0.21244331176280973,-0.9593620412781834,0.9657855715196579
1761476012344569000,0.552569091796875,-0.24712065739035605,-1.0394828950889408,0.9696457540791481
1761476012354606000,0.562606201171875,-0.4348971454083919,-0.9399659975431859,0.8473574180811643
1761476012364642000,0.57264208984375,-0.1526174963533878,-0.7381849495701491,0.7439779268231242
1761476012374678000,0.582677978515625,-0.27926351610422134,-0.5293218343816697,0.756473105128482
1761476012384715000,0.592715087890625,-0.34730303310751914,-0.39324075454846025,0.7970669813234359
1761476012394751000,0.6027509765625,-0.5184545495390892,-0.37269992469251156,0.8309932163227349
1761476012404787000,0.612786865234375,-0.7677952210664749,-0.44676279363855714,0.8844008352529257
1761476012414823200,0.6228232421875,-0.8326268819391727,-0.5766793594926596,0.9063082772869616
1761476012424860200,0.632860107421875,-0.7793126403808593,-0.6993558910906315,0.973227192762494
1761476012434896100,0.642896240234375,-0.7067062538534402,-0.7297790864050387,1.1323365353532135
1761476012444932000,0.65293212890625,-0.4581617011398077,-0.5666833045266568,1.1205462904468177
1761476012454969000,0.662968994140625,-0.013551555490493774,-0.3816213361643255,0.8563597858346998
1761476012465005000,0.673005126953125,0.40547231348156926,-0.28898762226104735,0.7872065354358404
1761476012475041000,0.683041015625,0.5927466971963644,-0.21744038939774035,0.5921520192388445
1761476012485077200,0.6930771484375,0.6056278060793876,-0.17576631675064563,0.4497980696812272
1761476012495114000,0.703114013671875,0.5111193843454123,-0.12664952688217163,0.42383601849414404
1761476012505150000,0.71314990234375,0.42678748871088024,-0.06306830446198582,0.4416138864427805
1761476012515186200,0.723186279296875,0.45483343349993227,-0.009762246210128068,0.3609448972299695
1761476012525223200,0.73322314453125,0.4224982670843601,0.08335589020922779,0.2046598913449794
1761476012535259100,0.743259033203125,0.42456747457385063,0.20446298053339124,0.07676913223005831
1761476012545295400,0.75329541015625,0.30605098526477814,0.30747707254514095,-0.005791150622069835
1761476012555331300,0.763331298828125,-0.017684125250577925,0.3869799405880272,-0.06989515480734408
1761476012565368000,0.7733681640625,-0.24161679927706717,0.4536768108107149,-0.18133271870613096
1761476012575404300,0.783404296875,-0.19639292519390583,0.4987598151184618,-0.3225404939033091
1761476012585440300,0.793440185546875,-0.26128128468990325,0.544125728020817,-0.4303024380292743
1761476012595477000,0.80347705078125,-0.4109861084669828,0.5752285761624575,-0.4960669227726757
1761476012605513200,0.81351318359375,-0.555356000956893,0.5786072588153183,-0.5332812395319342
1761476012615549200,0.823549072265625,-0.7800216654330492,0.587144931666553,-0.561348227109015
1761476012625586200,0.833586181640625,-0.994493852674961,0.6185835876338184,-0.5855585392579435
1761476012635622100,0.8436220703125,-1.2065864513039588,0.6747042649149895,-0.600791179703176
1761476012645658400,0.853658447265625,-1.2427841383665799,0.658520607355237,-0.6437164214551448
1761476012655694300,0.8636943359375,-1.2352023049354552,0.6058334116540849,-0.710001349876076
1761476012665731000,0.87373095703125,-1.1683259864926339,0.5422876989386975,-0.7797944325484335
1761476012675767300,0.883767333984375,-1.028701827225089,0.5287251836627721,-0.8092495134830474
1761476012685803300,0.89380322265625,-0.9576794950187205,0.5444609513245523,-0.7955698015682399
1761476012695840000,0.903840087890625,-0.9118781133085488,0.5453611150346696,-0.7262817458085715
1761476012705876200,0.913876220703125,-0.8332546584486961,0.5019022047974169,-0.5927095800563693
1761476012715912200,0.923912109375,-0.8905442333787679,0.4326023124694824,-0.3704173667132854
1761476012725948200,0.9339482421875,-0.9223001386016607,0.4242009793490171,-0.21649580202400684
1761476012735985200,0.943985107421875,-0.8767062621623277,0.43336029122993347,-0.1775181288540363
1761476012746021400,0.954021484375,-0.8684475523829459,0.4490894830204546,-0.24744389799535274
1761476012756057300,0.964057373046875,-0.8031547037392854,0.48338162872269747,-0.39835955886691804
1761476012766094000,0.974093994140625,-0.7666407903343438,0.5609964910618961,-0.5650784996785223
1761476012776130300,0.98413037109375,-0.744722973036766,0.659238692496717,-0.7275659404002129
1761476012786166300,0.994166259765625,-0.6905716961324214,0.7350828919015825,-0.8477823654949664
1761476012796203300,1.004203369140625,-0.5473053809702396,0.783992614890635,-0.8924699407443404
1761476012806239200,1.0142392578125,-0.492654337850213,0.8092138576477765,-0.8890969571799039
1761476012816275200,1.024275146484375,-0.4901280342429876,0.8041539439097046,-0.8482356622204184
1761476012826311200,1.034311279296875,-0.4254162003576755,0.7876677962720394,-0.8045546336650848
1761476012836348200,1.04434814453125,-0.4595581239342689,0.7559224124431609,-0.7839807783223688
1761476012846384000,1.054384033203125,-0.4995440973639488,0.7237903673842548,-0.8331504674218595
1761476012856420400,1.06442041015625,-0.4173597351521253,0.6974706618659198,-0.8979165157124399
1761476012866457300,1.074457275390625,-0.2781272055506706,0.6558915740258991,-0.9195952635571361
1761476012876493300,1.084493408203125,-0.2021756002485752,0.5900349540196359,-0.8934121900305152
1761476012886529300,1.094529296875,-0.18312720090746878,0.55630804098472,-0.8549204006813466
1761476012896565200,1.104565185546875,0.03342646878361702,0.5357204493775963,-0.8198904422238469
1761476012906602200,1.114602294921875,0.29720424646437166,0.5224012413382529,-0.8002335555955767
1761476012916638200,1.12463818359375,0.4416214852273464,0.5071082490079104,-0.7834364423125982
1761476012926674200,1.134674072265625,0.5493851098537444,0.4924725515425205,-0.7552402753978967
1761476012936711200,1.144711181640625,0.6791594907581806,0.44105815225616096,-0.6839934867858887
1761476012946747100,1.1547470703125,0.7747428482472896,0.3556267709471285,-0.5669103912808001
1761476012956783000,1.164783203125,0.8675713540703057,0.2890776386320591,-0.47995939918905495
1761476012966819000,1.174819091796875,0.9250444688737391,0.2659026608802378,-0.462676255954802
1761476012976856300,1.184856201171875,0.9425988302648067,0.25486250368878244,-0.4959356976084411
1761476012986892300,1.194892333984375,0.9662941786289214,0.23161738331019877,-0.5155291636116802
1761476012996928300,1.20492822265625,0.9703186118394136,0.23803587205037474,-0.5369194499038159
1761476013006965200,1.21496533203125,0.9059516458690166,0.2723302097097039,-0.5557043760031461
1761476013017001200,1.225001220703125,0.6810153477579355,0.34387598126828667,-0.6216860836938023
1761476013027037200,1.235037109375,0.6502899546265601,0.4460791952885687,-0.7022478131398558
1761476013037074200,1.24507421875,0.7702069583833218,0.5513664929293096,-0.7555217226877808
1761476013047110100,1.255110107421875,0.7945382665634155,0.5973715805180371,-0.7317267133414745
1761476013057146000,1.26514599609375,0.6738233904272317,0.5772606665119528,-0.6142798990905285
1761476013067182000,1.27518212890625,0.515642414727807,0.5493348409712314,-0.5085790522128343
1761476013077219300,1.28521923828125,0.4550415232926607,0.5351861963704229,-0.43050227145031095
1761476013087255300,1.29525537109375,0.4479916047811508,0.5812433064073323,-0.39584289987087246
1761476013097291300,1.305291259765625,0.381899130192399,0.6140224171981216,-0.35377792821004983
1761476013107328300,1.315328369140625,0.2038362269371748,0.6377434845253824,-0.2870603074602783
1761476013117364200,1.3253642578125,0.14309563477039336,0.6223994926601648,-0.19885829239413141
1761476013127400200,1.335400146484375,0.19493337403535843,0.5909674125641584,-0.1331719143882394
1761476013137436200,1.345436279296875,0.1591331618577242,0.5579626763239502,-0.10111454200074076
1761476013147473200,1.35547314453125,0.08178279567360877,0.5146617331273854,-0.039568332539498804
1761476013157509000,1.365509033203125,0.12908347603082657,0.4379408970184624,0.05503843500241637
1761476013167545300,1.37554541015625,0.3177683110654354,0.38213659221008417,0.15774579915255307
1761476013177582300,1.385582275390625,0.4496615838199854,0.33606837625727054,0.2375833059772849
1761476013187618300,1.395618408203125,0.484661001008749,0.27928149015232917,0.3161873254843056
1761476013197654300,1.405654296875,0.510278841868043,0.18894070949181913,0.42743133957237
1761476013207691300,1.415691162109375,0.5710410613447428,0.09250395004376769,0.5262875812523067
1761476013217727200,1.425727294921875,0.6433505107522011,0.007839023062586783,0.6051480597384273
1761476013227763200,1.43576318359375,0.6708043348670005,-0.05941840365231037,0.6670080113239586
1761476013237799200,1.445799072265625,0.6243284148961306,-0.13849588588997722,0.7134887536004185
1761476013247836400,1.45583642578125,0.6307867972552776,-0.22666414481699465,0.7964671887993812
1761476013257872400,1.465872314453125,0.5722007527738809,-0.3240568898156285,0.8852861667200922
1761476013267908400,1.475908447265625,0.5866629933685064,-0.43593496402353044,0.9896746158249675
1761476013277945300,1.4859453125,0.6023088907897473,-0.5463594784222543,1.1106173093676566
1761476013287981300,1.495981201171875,0.5727630628317594,-0.6489115058802067,1.2000025428690015
1761476013298017300,1.506017333984375,0.5513999568074941,-0.7678487048193812,1.286218937075883
1761476013308053200,1.51605322265625,0.6243289994180202,-0.848923790615052,1.329188602491468
1761476013318090200,1.52609033203125,0.735233844679594,-0.9225712106280028,1.3219821782439947
1761476013328126200,1.536126220703125,0.8149193758130073,-1.020577119088918,1.3705105007000267
1761476013338162200,1.546162109375,0.8470417762607335,-1.1255166262052954,1.4394875908143818
1761476013348199400,1.556199462890625,0.8288385955721139,-1.2178205236323176,1.4849885282732544
1761476013358235400,1.5662353515625,0.7603355527102946,-1.2533562396548688,1.4951229687966405
1761476013368271400,1.576271240234375,0.797163354369998,-1.3389246913470327,1.4943902706079184
1761476013378307300,1.586307373046875,0.8673229322671889,-1.5984268375352024,1.4990655689425765
1761476013388344300,1.59634423828125,0.8864011422246694,-1.8019398238673805,1.4628054841682314
1761476013398380300,1.60638037109375,0.8337567627519369,-1.890735420912504,1.3948764418020843
1761476013408416300,1.616416259765625,0.7252993106424808,-1.8974241048961877,1.336751146700233
1761476013418453200,1.626453369140625,0.5968219838112593,-1.7805556750550866,1.2716720869377254
1761476013428489200,1.6364892578125,0.42762393953502176,-1.6862560737662016,1.1850694698922335
1761476013438525200,1.646525146484375,0.39146658448278904,-1.659457937081158,1.1373160773314535
1761476013448561200,1.65656103515625,0.38390637836158276,-1.6792917877115308,1.0969064716622232
1761476013458598400,1.666598388671875,0.27611528120636936,-1.6767717677146194,1.0301992261759936
1761476013468634400,1.67663427734375,0.13629822971522806,-1.6594802950434386,0.9694066115610301
1761476013478670300,1.68667041015625,0.06838146230876445,-1.616544093506038,0.9654534900210797
1761476013488707300,1.696707275390625,-0.00923427681326866,-1.543715880921483,0.8624673089295625
1761476013498743300,1.706743408203125,-0.166356683370471,-1.5227023189872502,0.724953858205676
1761476013508779300,1.716779296875,-0.329555779492855,-1.5357989703170953,0.6480402760036289
1761476013518815200,1.726815185546875,-0.43510465067923065,-1.5578561960853636,0.6303621421024203
1761476013528852200,1.736852294921875,-0.5738309843242169,-1.5612475920893252,0.5858139753237366
1761476013538888200,1.74688818359375,-0.755982033675909,-1.5081003776609896,0.5261896738357842
1761476013548924200,1.756924072265625,-0.7021253558039665,-1.426394592746347,0.47288726884573695
1761476013558961400,1.76696142578125,-0.609051350787282,-1.311534580118209,0.3838412041708827
1761476013568997400,1.776997314453125,-0.6091717622965573,-1.1333714313589036,0.23728403076976537
1761476013579033300,1.787033447265625,-0.533160535761714,-0.911459157244116,0.07537132119610905
1761476013589069300,1.7970693359375,-0.4065425730615854,-0.6672694387391209,-0.020975568011403083
1761476013599106300,1.807106201171875,-0.4163882597714662,-0.5375583323292434,0.003623012802749872
1761476013609142300,1.817142333984375,-0.6040928515970707,-0.6144754216626286,0.06971314930394291
1761476013619178200,1.82717822265625,-0.6587479863703251,-0.8399844050951302,0.12933978887945413
1761476013629215200,1.83721533203125,-0.5314397033184767,-0.9375294180460274,0.048906581183895466
1761476013639251200,1.847251220703125,-0.3890396495968103,-0.7879308311223984,-0.13520393167249858
1761476013649287200,1.857287109375,-0.32069735025465484,-0.4775868248388171,-0.28221111386343833
1761476013659323100,1.8673232421875,-0.4343260675221681,-0.26322964227870105,-0.321996011763066
1761476013669360400,1.8773603515625,-0.5223123940110206,-0.25757716947495934,-0.2879524339944124
1761476013679396400,1.887396240234375,-0.5996773732423782,-0.38567631064355373,-0.19693229276761412
1761476013689432300,1.897432373046875,-0.7235393152326345,-0.5221186250045895,-0.08795198582783341
1761476013699468300,1.90746826171875,-0.8388082009226083,-0.6002049042478204,-0.00045490416064858434
1761476013709505300,1.91750537109375,-0.9091174164235591,-0.6113058517158031,0.020965338878333566
1761476013719541200,1.927541259765625,-0.8690788360238074,-0.5269670879490673,-0.010656856962293387
1761476013729577200,1.9375771484375,-0.7858902652055024,-0.3457186865255236,-0.07248955521471798
1761476013739613200,1.94761328125,-0.7171008066177368,-0.1336690502554178,-0.13420140356644988
1761476013749650200,1.957650146484375,-0.5778723686695099,0.08510024965852499,-0.20146233741268516
1761476013759686100,1.96768603515625,-0.495088286998868,0.27110198308899996,-0.3136432670246809
1761476013769722000,1.97772216796875,-0.289848038482666,0.4318669839322567,-0.36984482752233744
1761476013779759000,1.987759033203125,-0.10694237137138843,0.540026476008445,-0.3406681251376867
1761476013789795300,1.99779541015625,-0.044785482665896416,0.6235077461630105,-0.3153033091913909
1761476013799831300,2.007831298828125,0.08041852158308029,0.7073666174583136,-0.3244755536191165
1761476013809867300,2.0178671875,0.23031916019320486,0.8068871682658791,-0.296474470885098
1761476013819904300,2.027904296875,0.29723697969019414,0.8884102900899946,-0.25880225429050624
1761476013829940200,2.037940185546875,0.33699440506100653,0.9658313834227621,-0.1885663962867111
1761476013839976200,2.04797607421875,0.39010581752359863,1.0429363965436815,-0.10337642251811921
1761476013850013200,2.05801318359375,0.295461786711216,1.139923483350873,-0.035823373857513066
1761476013860049200,2.068049072265625,0.19696108047068117,1.1784556047104298,0.031251462832093235
1761476013870085000,2.078085205078125,0.14919570521116257,1.142321484403312,0.07016798039935529
1761476013880121300,2.088121337890625,0.11901800909042358,1.087092495264858,0.07646861491352319
1761476013890158000,2.098157958984375,0.13138473871052264,1.0608530153758824,0.07235825698524713
1761476013900194000,2.108194091796875,0.10166998392641544,1.0938513218753039,0.08366795183308422
1761476013910230300,2.118230224609375,0.006440262180566788,1.1877189614877104,0.12715126585923134
1761476013920266500,2.1282666015625,-0.018140052324533463,1.2770963039435446,0.111382838036865
1761476013930303200,2.13830322265625,0.04880991587638855,1.3408249720104037,0.06891067381463944
1761476013940339200,2.148339111328125,0.06909574805796145,1.3659335481733084,0.022370164174959063
1761476013950375400,2.15837548828125,0.049669163054227826,1.3628469803348182,-0.029025530410930513
1761476013960412200,2.168412109375,0.026140987950563428,1.3343575295619665,-0.08247114326395094
1761476013970448100,2.1784482421875,0.005052607214450836,1.3061511335141955,-0.11523739457316697
1761476013980484400,2.188484375,-0.07638181341290473,1.2851689896315335,-0.14989771600067614
1761476013990520300,2.198520263671875,-0.14648469268679618,1.2655851682394743,-0.22085143995024262
1761476014000557300,2.208557373046875,-0.0669634122043848,1.263137628956884,-0.2806686336617917
1761476014010593300,2.21859326171875,-0.024486791002750394,1.290187840706855,-0.3528467117745429
1761476014020629200,2.228629150390625,-0.1154571017384529,1.2616963441073894,-0.40311281780861313
1761476014030666200,2.238666259765625,-0.2240034011751413,1.1377326953083275,-0.3752919139470905
1761476014040702500,2.248702392578125,-0.3315829014062881,0.9387884781964123,-0.3162109255556017
1761476014050738400,2.258738525390625,-0.45417175472080706,0.7347023681513964,-0.2774879577990621
1761476014060774400,2.2687744140625,-0.47787762447893617,0.6156096863895655,-0.2962361320845783
1761476014070811400,2.278811279296875,-0.44592648894488807,0.6352474299259483,-0.33689328277409075
1761476014080847400,2.288847412109375,-0.3201812174260616,0.6820077197961509,-0.3962331412974745
1761476014090883300,2.29888330078125,-0.103261637032032,0.7264430738501251,-0.4549419353757053
1761476014100919300,2.308919189453125,0.08061725902557372,0.7113140399098395,-0.4897260293133557
1761476014110956300,2.318956298828125,0.25530571741163727,0.6594067425400019,-0.5300904076013714
1761476014120992300,2.3289921875,0.4430278448939323,0.5783087142601608,-0.5322250815425068
1761476014131028200,2.3390283203125,0.6584428659439087,0.5178723657369614,-0.5170971435807645
1761476014141064400,2.349064453125,0.8132984966129064,0.495130226444453,-0.5001207282081246
1761476014151101400,2.359101318359375,0.8840110322177409,0.5028551216080784,-0.4079520745333284
1761476014161137000,2.369136962890625,0.8747855232328176,0.5282296552307904,-0.2361278464719653
1761476014171172900,2.3791728515625,0.7873463092327118,0.5588735075585544,-0.15088628864660858
1761476014181209900,2.3892099609375,0.7752256633281708,0.6492717174947261,-0.20236367016658185
1761476014191245800,2.399245849609375,0.9159621677517891,0.7668406968206167,-0.32286212707310913
1761476014201282000,2.409281982421875,0.8561112179011106,0.8512775141343474,-0.4130281356886029
1761476014211318000,2.419318115234375,0.6309709216505288,0.8490120534203947,-0.3810376179922372
1761476014221355000,2.42935498046875,0.4906675479471683,0.7213976270288228,-0.24016170509792864
1761476014231391000,2.439390869140625,0.27866087403595446,0.5263849041469395,-0.10099931812323629
1761476014241427000,2.449427001953125,0.004734627306461334,0.34290757462754845,-0.003863324364647269
1761476014251463000,2.459462890625,-0.08109130627810955,0.2778340678229928,0.06916742505468428
1761476014261500000,2.4695,-0.17644553118646145,0.27080373079478737,0.050131008412316436
1761476014271535900,2.479535888671875,-0.3219546568393707,0.2558646664686501,0.05125942792035639
1761476014281571800,2.48957177734375,-0.43411505511999127,0.22116145574748514,0.05852898053191602
1761476014291607800,2.49960791015625,-0.6189537361204623,0.19721271714419125,0.013177315350621938
1761476014301644800,2.509644775390625,-0.4871931498348713,0.22780177054479717,-0.031599472552165386
1761476014311680800,2.5196806640625,-0.33729426479041574,0.2588169404029846,-0.08555793029814958
1761476014321717000,2.529717041015625,-0.276201790446043,0.26250001282989976,-0.08797646268196403
1761476014331754000,2.53975390625,-0.19171967268586157,0.18043036303892732,-0.018386501366272567
1761476014341790000,2.5497900390625,-0.06912965032756328,0.06488441397324204,0.06933277168422937
1761476014351826000,2.559825927734375,0.054179333955049515,-0.04589066742882132,0.13908632606379687
1761476014361862000,2.56986181640625,0.12367372594177722,-0.11219020889699459,0.19083032263070343
1761476014371899000,2.57989892578125,0.2095347308397293,-0.14626578923910855,0.21598164195679126
1761476014381934800,2.589934814453125,0.28259996705055235,-0.14809095883965492,0.2060912393223494
1761476014391970800,2.599970703125,0.2325134553670883,-0.16077289188876748,0.15910985404737293
1761476014402006800,2.6100068359375,0.13528408423662186,-0.1706564263910055,0.06739230514094233
1761476014412043800,2.620043701171875,0.21321488065719604,-0.21065160604044794,-0.002489844054356217
1761476014422079700,2.630079833984375,0.2375496959686279,-0.30297698464691636,0.004770137011259794
1761476014432115700,2.64011572265625,0.11851005956828593,-0.44801542404815553,0.07257642978057265
1761476014442152000,2.65015185546875,0.08316168281137942,-0.5807661904148758,0.10563304233849048
1761476014452189000,2.66018896484375,0.1234001696974039,-0.6921712402835488,0.08323767065703869
1761476014462225000,2.670224853515625,0.13618600151240826,-0.7484905088767408,0.0260300749219954
1761476014472260900,2.6802607421875,0.14121347428560257,-0.7869536566533147,-0.04307166448533535
1761476014482297900,2.6902978515625,0.17615677737295626,-0.7844041183009743,-0.07982771608307958
1761476014492333800,2.700333740234375,0.19363748900592326,-0.7597622828669846,-0.1280003569692373
1761476014502369800,2.710369873046875,0.12365677480697632,-0.7947944332815706,-0.17085326413735746
1761476014512405800,2.72040576171875,0.12889584450423716,-0.853315595833212,-0.2313178158417344
1761476014522442800,2.73044287109375,0.2393459317356348,-0.9188242791846394,-0.2682217514775693
1761476014532478700,2.740478759765625,0.3207610631406307,-0.9312791254796087,-0.2648343009963631
1761476014542514700,2.7505146484375,0.34534079312384125,-0.8965364595308899,-0.25136355565711854
1761476014552551000,2.760551025390625,0.39112756178677077,-0.8565931561991572,-0.21548399463295936
1761476014562588000,2.770587890625,0.43352644157707687,-0.8554740890413522,-0.1321565998658538
1761476014572624000,2.780623779296875,0.4567185165941715,-0.8757691274426876,-0.05759761796593666
1761476014582659800,2.790659912109375,0.4627940371155739,-0.9018541474223136,0.023243220682442188
1761476014592696000,2.800696044921875,0.4527233094781637,-0.9067525869883596,0.12464008675590157
1761476014602732800,2.81073291015625,0.4041004406064749,-0.8897373009100555,0.18376506041958926
1761476014612768800,2.820768798828125,0.33327626132071014,-0.8529263042546809,0.19694924390241503
1761476014622805000,2.830804931640625,0.3170610395789146,-0.7814743484593928,0.20867782174944877
1761476014632841000,2.840841064453125,0.24902152257561683,-0.7423717337355017,0.250464707121253
1761476014642877700,2.850877685546875,0.21534546294510362,-0.7506397958651184,0.3344328840099275
1761476014652914000,2.860913818359375,0.17611293823122978,-0.8170785996735096,0.3985625340931117
1761476014662950000,2.870949951171875,0.06459668307304382,-0.8881856875538825,0.443372566678375
1761476014672986000,2.880986083984375,-0.04238192865550518,-0.934688787792623,0.4789709726735949
1761476014683022800,2.89102294921875,-0.10953998664915561,-0.8989690935052931,0.4790563128694892
1761476014693059000,2.90105908203125,-0.07706979567706584,-0.7290342593871056,0.3445246544353664
1761476014703095000,2.911094970703125,-0.061841831406950945,-0.4591504199162125,0.14686784678548573
1761476014713132000,2.921132080078125,-0.2706090850055218,-0.2695461319491267,0.05930749062374234
1761476014723168000,2.93116796875,-0.6102233171761036,-0.39601854869872327,0.1689456769503653
1761476014733204000,2.941203857421875,-0.7286538817673921,-0.7617103481948375,0.36866833108887076
1761476014743240000,2.951239990234375,-0.7253039868175983,-0.985899919591844,0.4350388919666409
1761476014753277000,2.96127685546875,-0.8076748115122317,-0.8091799553781748,0.2416892799913883
1761476014763313000,2.97131298828125,-0.8677864581257104,-0.3151671886563301,0.007653875754028558
1761476014773348900,2.981348876953125,-1.0496300489634274,0.12500044450089334,-0.05387377513721585
1761476014783384800,2.991384765625,-1.356312317869067,0.2269885544657707,0.04626008526310325
1761476014793422000,3.001422119140625,-1.5838801335275172,0.007028729593008756,0.29628946970701214
1761476014803458000,3.0114580078125,-1.6786492520242928,-0.3246284060932696,0.558210367474705
1761476014813494000,3.021493896484375,-1.8042168288886546,-0.5552497641034424,0.7468855578981339
1761476014823530000,3.031530029296875,-1.7310644989162682,-0.5262511947646736,0.872674376297742
1761476014833567000,3.04156689453125,-1.4227853162080049,-0.27161548556908965,0.9083682054914534
1761476014843603000,3.05160302734375,-1.2412702266722917,0.05215002008453011,0.8702201150134206
1761476014853639000,3.061638916015625,-1.1013976456016301,0.24731121152639388,0.8574193778902292
1761476014863675000,3.0716748046875,-0.847289029020071,0.2586813313245773,0.7934091164030134
1761476014873711900,3.0817119140625,-0.6341419529020786,0.17166107338890432,0.6221000713221728
1761476014883747800,3.091747802734375,-0.571887449041009,0.09310206206738948,0.46866073719188567
1761476014893783800,3.10178369140625,-0.34910686765909194,0.07416764449477195,0.3332745077550411
1761476014903819800,3.11181982421875,-0.03361293126642704,0.08277224510237574,0.20024463218599556
1761476014913857000,3.12185693359375,0.09000468057394027,0.21149740921482443,0.07892068424075842
1761476014923893000,3.13189306640625,0.13754267681837082,0.3895369315944612,-0.04536269803196191
1761476014933929000,3.141928955078125,0.3217541658312082,0.5359544042639434,-0.1661817651949823
1761476014943965000,3.15196484375,0.4226823914796114,0.6592052286185324,-0.3326763957314193
1761476014954002000,3.162001953125,0.45941900772452354,0.7128228370375931,-0.48657063402235506
1761476014964038000,3.172037841796875,0.593978284817934,0.73318494932577,-0.5599306153960526
1761476014974073900,3.182073974609375,0.6710112556159495,0.7215209611475467,-0.575415915428102
1761476014984109800,3.19210986328125,0.6409346817821264,0.7403950268350541,-0.5596734257645904
1761476014994146800,3.202146728515625,0.6559761835694312,0.7647058767490088,-0.50623263521716
1761476015004182800,3.212182861328125,0.7889367932945489,0.7911724433921277,-0.4081907786600292
1761476015014218800,3.22221875,0.8182523196280002,0.8149301894679665,-0.34670886660665273
1761476015024254700,3.232254638671875,0.7420096224248409,0.8646404151849448,-0.32194676579385995
1761476015034292000,3.2422919921875,0.7016834572553634,0.8944397795125841,-0.3199010853104293
1761476015044328000,3.252327880859375,0.668725775027275,0.8700872824139892,-0.3471292839758098
1761476015054364000,3.262364013671875,0.5772159505873918,0.8035501327976584,-0.3772577341273427
1761476015064400000,3.27239990234375,0.5077203895568847,0.7416380126334726,-0.3884079275645315
1761476015074436900,3.282436767578125,0.4093704899638891,0.6983848541013896,-0.3553608134873211
1761476015084472800,3.292472900390625,0.23052023572325706,0.6517940755791962,-0.3563835806638002
1761476015094508800,3.3025087890625,0.15109189422130584,0.6239454069279133,-0.3721792618192732
1761476015104545800,3.3125458984375,0.07574176194369793,0.676651161199063,-0.4635834339275956
1761476015114581800,3.322581787109375,-0.027312369817495345,0.7535372708722948,-0.576484421442449
1761476015124617700,3.33261767578125,-0.09605740474164486,0.7756143703848123,-0.653725482033193
1761476015134653700,3.34265380859375,-0.150714877602458,0.7182387246064841,-0.7118968082338571
1761476015144691000,3.35269091796875,-0.15883388665020465,0.6430730089850724,-0.7470815188616514
1761476015154727000,3.362726806640625,-0.10638298392295836,0.5818441949099302,-0.7767028962738811
1761476015164766000,3.372765869140625,-0.07244739657342433,0.5410140257410705,-0.7636747801356017
1761476015174802200,3.38280224609375,-0.05756371569633484,0.521809997446835,-0.7475548354618251
1761476015184839000,3.3928388671875,-0.06444821451306343,0.4909767600268125,-0.7129336039356887
1761476015194875000,3.402875,-0.07124445052444935,0.41347544106468553,-0.7002857192866504
1761476015204911000,3.4129111328125,-0.06796002202630043,0.354452758731693,-0.7084020979858935
1761476015214947000,3.422947021484375,-0.08868950632214545,0.3325499928727746,-0.7390927120648324
1761476015224983800,3.43298388671875,-0.10890402683317661,0.3496108716584742,-0.7700076364189385
1761476015235020000,3.44302001953125,-0.13558511300981044,0.3703606680899858,-0.8080559197843075
1761476015245056300,3.45305615234375,-0.0848971283018589,0.39046617526859045,-0.8635774621285498
1761476015255092200,3.46309228515625,-0.02115092457830906,0.37370442555993794,-0.9013048429764807
1761476015265129200,3.473129150390625,0.00561316370666027,0.3416295175157487,-0.8970924859784543
1761476015275165200,3.483165283203125,0.048402504119277,0.31171237202733754,-0.8798932216353714
1761476015285201200,3.493201171875,0.17540391317903994,0.33643326404690743,-0.8927313681595027
1761476015295237000,3.503237060546875,0.27958967931866646,0.3694393154613673,-0.9079111093737184
1761476015305274000,3.513274169921875,0.25873276925086974,0.37672128916308284,-0.9328871451981365
1761476015315310000,3.52331005859375,0.21159400145709514,0.3663074471764266,-0.9436838490225374
1761476015325346000,3.533345947265625,0.2708662746369839,0.3292703866802156,-0.9734202311165631
1761476015335383000,3.543383056640625,0.30406711797118186,0.31596798364520073,-0.9943740256875753
1761476015345419000,3.5534189453125,0.15437924532890318,0.32842312220111486,-0.9891969153106211
1761476015355455000,3.563455078125,0.17765607602000236,0.3417065282747149,-0.9948537720285355
1761476015365491200,3.5734912109375,0.2743763285845518,0.3457179558731615,-1.0487459596052766
1761476015375528200,3.583528076171875,0.20773849507272243,0.2755025561355054,-1.066665208785981
1761476015385564200,3.593564208984375,0.09981295788288116,0.1640945836573839,-0.9882640183746814
1761476015395600100,3.60360009765625,0.19941373431980608,0.06571472731754184,-0.8888413749836385
1761476015405636000,3.613635986328125,0.3532908753454685,0.01879077131822705,-0.8082881211049854
1761476015415673000,3.623673095703125,0.39338498532474037,-0.017568389916419982,-0.737195792402327
1761476015425709000,3.633708984375,0.41485388981103893,-0.06357011650428175,-0.6425581913307309
1761476015435745000,3.6437451171875,0.47196050938963885,-0.11193915674537419,-0.5655294583164155
1761476015445781000,3.653781005859375,0.575488688403368,-0.1263509823270142,-0.53430561414361
1761476015455818000,3.66381787109375,0.6571387976080179,-0.1113970126926899,-0.5426533173806966
1761476015465854000,3.67385400390625,0.6291302622199059,-0.084261899138242,-0.53754605736956
1761476015475890000,3.683889892578125,0.648083969014883,-0.04372559834942221,-0.5115922625541687
1761476015485926100,3.693926025390625,0.7072972054839134,-0.011213614062219858,-0.4613032140359282
1761476015495963100,3.703963134765625,0.7181219663590193,0.02792889428064227,-0.39595308224707837
1761476015505999000,3.7139990234375,0.6591553981274366,0.015557926876842975,-0.30887919442802664
1761476015516035000,3.72403515625,0.6234563082367182,0.011381079583615065,-0.2087799669496715
1761476015526072000,3.734072021484375,0.5985293722510338,0.051124622559547424,-0.1530539880745113
1761476015536108000,3.74410791015625,0.5717185222148895,0.10626666406691074,-0.11804244205653666
1761476015546144000,3.75414404296875,0.48689387462735173,0.1700420938849449,-0.09096446551680565
1761476015556180000,3.764179931640625,0.4034054440796375,0.18315043565258382,-0.0773233320467174
1761476015566217000,3.774217041015625,0.32988311175107954,0.1608973950512707,-0.06409574781358242
1761476015576253000,3.7842529296875,0.28050796320736404,0.12922186158820986,-0.06674436262622475
1761476015586289000,3.794288818359375,0.2126934871315956,0.11729863795191049,-0.05117284561544656
1761476015596324900,3.804324951171875,0.09567921907901764,0.08986571049466728,-0.041741731055825945
1761476015606362000,3.814362060546875,0.02682020238637924,0.026228520103543995,0.0158585172586143
1761476015616398000,3.824398193359375,0.00011398176848888397,-0.02379997778236866,0.07278525022566318
1761476015626434000,3.83443408203125,-0.04752396771907806,-0.008594663735479116,0.08817658836394549
1761476015636471000,3.844470947265625,-0.04447568606436252,0.03068433046862483,0.06671791301071643
1761476015646507000,3.854507080078125,-0.05273673393130302,0.04853869771957397,0.005130933147668838
1761476015656543000,3.86454296875,0.02507832715511322,0.0601578238427639,-0.0751589936196804
1761476015666579000,3.874578857421875,0.15647241821587085,0.05673603270053863,-0.13191796880438922
1761476015676616000,3.884615966796875,0.27169863380789755,0.030786621799319982,-0.13608078757226466
1761476015686652000,3.89465185546875,0.3629845863640308,-0.026714842315763234,-0.10196560587212443
1761476015696687900,3.90468798828125,0.4870996263325214,-0.1064830832965672,-0.049828737530112265
1761476015706723800,3.914723876953125,0.6396154158771038,-0.16121552108973264,0.0071541095383465285
1761476015716761000,3.924760986328125,0.7267384035348892,-0.18087766841500996,0.04328311527892947
1761476015726797000,3.934797119140625,0.7510884164154529,-0.1735755287081003,0.08248772907257079
1761476015736833000,3.9448330078125,0.7689268554449081,-0.1737117223083973,0.12195260123759508
1761476015746870000,3.9548701171875,0.7283008305460215,-0.23069354646354912,0.18177885503843424
1761476015756906000,3.964906005859375,0.6694517512142658,-0.31126302082464097,0.25254370535239573
1761476015766942000,3.97494189453125,0.5930015487402677,-0.38128918160051106,0.3060711512699723
1761476015776978000,3.98497802734375,0.5146668476939201,-0.4405824975684285,0.2968617166370153
1761476015787015000,3.995014892578125,0.3889262523502111,-0.4476788855701685,0.2890213784001767
1761476015797051000,4.00505078125,0.2784276498019695,-0.4636103219345212,0.2732521468602121
1761476015807084000,4.015083984375,0.3552256428003311,-0.5181361312396824,0.30289792806133625
1761476015817120000,4.0251201171875,0.3490811486959457,-0.58499169915542,0.3462279512219131
1761476015827157000,4.035156982421875,0.2733738735437393,-0.6548001255273819,0.37433848567977546
1761476015837193000,4.04519287109375,0.2619423789471388,-0.726129770117253,0.3937568873770535
1761476015847229000,4.05522900390625,0.2862497217297554,-0.8201647291205822,0.39971959517374633
1761476015857266000,4.065265869140625,0.28715865326821804,-0.9269659384556114,0.3993392175540328
1761476015867302000,4.075302001953125,0.28861703538298605,-0.9976838808879256,0.40342400264963507
1761476015877337900,4.085337890625,0.2696142287492752,-1.0343129451051354,0.35093934378325936
1761476015887373800,4.095373779296875,0.24760054986178873,-1.0453216842450201,0.2519547995485365
1761476015897411000,4.1054111328125,0.2559025142610073,-1.0320688194401562,0.16174495179131626
1761476015907447000,4.115447021484375,0.23321605067849158,-1.023776353521645,0.07874825028330087
1761476015917483000,4.12548291015625,0.17969079671800137,-1.0685421085737645,0.04508548852577805
1761476015927519000,4.13551904296875,0.16928572255969046,-1.148691019435227,0.02005567668750882
1761476015937556000,4.145555908203125,0.20350246493816374,-1.2384003703244029,-0.024588059420138596
1761476015947592000,4.155592041015625,0.18902444225251674,-1.2973624085113404,-0.07191738134995103
1761476015957628000,4.1656279296875,0.15240239229798316,-1.3213942953534423,-0.08837474128454922
1761476015967665000,4.175664794921875,0.18113222769796847,-1.2863574687637387,-0.15397987074777483
1761476015977700900,4.185700927734375,0.2306231115758419,-1.1489369570203125,-0.28913214529827236
1761476015987736800,4.19573681640625,0.23491642485558986,-0.9010212037295102,-0.47246685147657985
1761476015997773000,4.20577294921875,0.17076690102815628,-0.6089097503595053,-0.6333594242222607
1761476016007810000,4.21581005859375,0.03513035009205341,-0.44672070806249975,-0.6909329306602477
1761476016017846000,4.225845947265625,-0.2621680043965578,-0.5204100675210357,-0.5823999290965497
1761476016027882000,4.235882080078125,-0.5334902061074972,-0.7957280608698726,-0.48313057657107705
1761476016037919000,4.2459189453125,-0.8156447674781083,-1.0871332656666637,-0.40356297272890806
1761476016047955000,4.255954833984375,-1.0249871906161307,-1.1940876197367907,-0.33450492633283135
1761476016057991000,4.265990966796875,-1.1467115360558033,-1.0289821054711936,-0.3176305100299418
1761476016068027100,4.276027099609375,-1.065929441857338,-0.6121775199837982,-0.4444751210927963
1761476016078063900,4.28606396484375,-0.9519552721530199,-0.11968465630561112,-0.6580063742227852
1761476016088099800,4.296099853515625,-0.8094143486559391,0.28867110365778204,-0.8572579037182032
1761476016098136000,4.306135986328125,-0.5512351216346025,0.560875495030731,-0.9500119560655206
1761476016108173000,4.316173095703125,-0.4045557831585407,0.6650095309831202,-0.8768772348150611
1761476016118209000,4.326208984375,-0.29408523766100403,0.6346382119864225,-0.7172359773047268
1761476016128245000,4.336244873046875,-0.14990531478524208,0.6056769059181213,-0.5945032585401088
1761476016138281200,4.34628125,-0.06738894414007664,0.6429889839634298,-0.5545245185688138
1761476016148318000,4.35631787109375,-0.035058453899621964,0.7683858804360032,-0.5324430351421237
1761476016158354000,4.36635400390625,0.05324117632210254,0.9650178750827908,-0.5610223561555147
1761476016168386000,4.376385986328125,0.032419337567687036,1.1491102677606047,-0.5680226633716374
1761476016178423000,4.386423095703125,-0.061675827190279954,1.262822571658343,-0.5641590467460453
1761476016188459000,4.396458984375,0.05268354243934154,1.281195409825444,-0.5847633702922612
1761476016198495200,4.4064951171875,0.11294424213469027,1.2459642297074198,-0.5568062728304416
1761476016208532000,4.416531982421875,0.14387947862446307,1.1975495967589318,-0.5309212689349427
1761476016218568200,4.426568115234375,0.1942494834244251,1.16889238820374,-0.50542931947764
1761476016228604200,4.436604248046875,0.2807791813641786,1.164907556351274,-0.4735399606008082
1761476016238640000,4.44664013671875,0.3685895667642355,1.1485730921439825,-0.43143067487422376
1761476016248677000,4.456677001953125,0.4365706315785646,1.0840727090522646,-0.3968131696751341
1761476016258713000,4.466713134765625,0.4826198505699634,0.9997731082521378,-0.3698442430004477
1761476016268749000,4.4767490234375,0.5034066180109977,0.9641112816318869,-0.3740256934035569
1761476016278786000,4.4867861328125,0.46432373090088364,0.9552332709103822,-0.4111310698956251
1761476016288822000,4.496822021484375,0.38081367304325103,0.9999310752928257,-0.4751708132056519
1761476016298858000,4.50685791015625,0.36188626973330973,1.0492153306826948,-0.5012251457860694
1761476016308894000,4.51689404296875,0.37373277487158774,1.0954491124607622,-0.49377702173721044
1761476016318931200,4.52693115234375,0.3093845136016607,1.1146678999327122,-0.46110495151747016
1761476016328967200,4.53696728515625,0.24571722033321855,1.123678304862231,-0.44722387181166556
1761476016339003100,4.547003173828125,0.23083178589046,1.0884767892301082,-0.41406273943334815
1761476016349040000,4.5570400390625,0.19899404760301112,1.0237839523062109,-0.35321112464014437
1761476016359076000,4.567076171875,0.10153788197934627,0.9381057566292583,-0.2593124323023483
1761476016369112000,4.577112060546875,-0.009028525108098984,0.8886218870140612,-0.17265680642798542
1761476016379149000,4.587149169921875,-0.0439887793302536,0.8600612707011401,-0.08646989404391497
1761476016389189000,4.597189208984375,-0.15296411783397196,0.8187225674882531,-0.010263619861006736
1761476016399225900,4.607225830078125,-0.26616554960012434,0.7630033106148243,0.0747147569835186
1761476016409261800,4.61726171875,-0.37432898719906804,0.671329527784884,0.19742040507812053
1761476016419298000,4.627298095703125,-0.43842064335942266,0.5883173364467918,0.30760526550207284
1761476016429335000,4.6373349609375,-0.47020109850168224,0.5297415210984647,0.37171569942813365
1761476016439371000,4.64737109375,-0.4997533562004566,0.4850187284052372,0.4528522330874577
1761476016449407000,4.657406982421875,-0.4535515769958496,0.42569253308102484,0.5153286360708996
1761476016459444000,4.66744384765625,-0.35364918726384637,0.3557011513575911,0.6091211280878633
1761476016469480000,4.67747998046875,-0.3418623033583164,0.27340061542019245,0.7161922404054551
1761476016479516000,4.687515869140625,-0.27467092761695383,0.19422391059175131,0.7678956127010286
1761476016489552100,4.69755224609375,-0.13965396988391876,0.11448942575007677,0.7830657093040645
1761476016499588900,4.7075888671875,-0.08645955531299114,0.07472104059383272,0.7976914698973298
1761476016509624800,4.717624755859375,-0.09268529796004295,0.04061769546195865,0.8436565177366137
1761476016519661000,4.7276611328125,-0.06205167476534843,-0.00690656451806426,0.8371199555747211
1761476016529698000,4.737697998046875,0.015125672939419745,-0.06112170043885708,0.7817939358025788
1761476016539734000,4.747734130859375,0.014049568140506744,-0.08429404784217476,0.7163304798323661
1761476016549770200,4.757770263671875,0.04509937092065811,-0.09857976282611489,0.6880779065553099
1761476016559806200,4.76780615234375,0.07495967165529728,-0.10925576288029551,0.6743388656686992
1761476016569843000,4.777843017578125,0.06021335342228412,-0.11275777965188026,0.681218615245074
1761476016579879200,4.787879150390625,0.012327566653490066,-0.11871581127345561,0.7313702280540019
1761476016589915100,4.7979150390625,0.06783785695135593,-0.13834712506905197,0.7273189799018204
1761476016599952000,4.807951904296875,0.09323884018957615,-0.17482099872455,0.6735974727168679
1761476016609988000,4.817988037109375,0.06401216118335723,-0.2110153247863054,0.6279487973503768
1761476016620024000,4.828024169921875,0.014079963278770445,-0.2591103703916073,0.6053978697810322
1761476016630061000,4.83806103515625,-0.004530044645071029,-0.2642313666671514,0.6299876097016036
1761476016640097000,4.848096923828125,-0.0612906272649765,-0.2511512280806899,0.6515392240352929
1761476016650133200,4.85813330078125,-0.15995207702517508,-0.22229981212764977,0.6393185518223792
1761476016660170000,4.868169921875,-0.2560848850905895,-0.21354104387164113,0.6181906427934766
1761476016670206000,4.8782060546875,-0.3518237254023552,-0.26482407186329365,0.6219703074626625
1761476016680242200,4.8882421875,-0.4214087182819843,-0.3115177262380719,0.6008839725531637
1761476016690278100,4.898278076171875,-0.46349955503642554,-0.30923648343309756,0.5564211459703743
1761476016700315000,4.90831494140625,-0.4995452664077282,-0.28246421184167264,0.5011475139725953
1761476016710351000,4.91835107421875,-0.5025473708331585,-0.2853700162857771,0.4541281347747892
1761476016720387000,4.928386962890625,-0.5153127443820238,-0.27885990373939273,0.43637693563736973
1761476016730423800,4.938423828125,-0.4534972164601087,-0.24007936057671903,0.36865773662962015
1761476016740460000,4.9484599609375,-0.31448446708917616,-0.16419687498807906,0.24109840142615138
1761476016750496300,4.958496337890625,-0.22744740414917466,-0.07414660170674324,0.1577399539336562
1761476016760533000,4.968532958984375,-0.20695698930621145,-0.015224311008304356,0.12153744456544517
1761476016770569000,4.97856884765625,-0.1453945593625307,0.044976767454296344,0.10508556452356278
1761476016780605200,4.988605224609375,-0.04010404685139656,0.14631108968555925,0.007635901705920696
1761476016790641200,4.99864111328125,-0.008884148201346398,0.28116481968089935,-0.11929302663952111
1761476016800678000,5.008677978515625,-0.005036825123429298,0.3558094340376556,-0.19564247215278446
1761476016810714000,5.018714111328125,-0.01038636945784092,0.37032282029762864,-0.24100319742336868
1761476016820750000,5.02875,-0.06064414605498313,0.3558163021698594,-0.2349506193861365
1761476016830786800,5.038786865234375,-0.0923427681326866,0.34319603618010874,-0.24336561570577322
1761476016840823000,5.048822998046875,-0.16708558216691016,0.3636402737937867,-0.2818730410154909
1761476016850859000,5.05885888671875,-0.29062252998650073,0.382996716170758,-0.32688034973852337
1761476016860896000,5.06889599609375,-0.324065365383029,0.3617281565621495,-0.3587145078293979
1761476016870932200,5.07893212890625,-0.3352127823412418,0.3378723569393158,-0.3679205814614892
1761476016880968200,5.08896826171875,-0.35182664801180363,0.3640707741655409,-0.40313181477002796
1761476016891005000,5.0990048828125,-0.38384091190993785,0.4297274876855314,-0.46197921360135075
1761476016901041200,5.109041259765625,-0.37245559454262256,0.49461292457208034,-0.5205730029977857
1761476016911077000,5.1190771484375,-0.3534305760771036,0.5047586171418428,-0.5487623748455196
1761476016921113000,5.129113037109375,-0.32248072654008864,0.49763271078467364,-0.5799943292595445
1761476016931150000,5.139150146484375,-0.24989070662558077,0.5036737445145845,-0.6076015173051506
1761476016941186000,5.14918603515625,-0.21296236720085143,0.5222800991766154,-0.6550422637201845
1761476016951222000,5.159221923828125,-0.20633038184046745,0.5550038265183568,-0.7242363575860857
1761476016961259000,5.169259033203125,-0.1286374858289957,0.595019756694883,-0.8229665617335588
1761476016971295200,5.179295166015625,-0.0681482380747795,0.6388415088951588,-0.9121626293383538
1761476016981331200,5.189331298828125,-0.05999240414798259,0.6913860812552273,-0.98166206282638
1761476016991368000,5.199367919921875,-0.07546352952420711,0.7324481594838201,-1.0440153508868069
1761476017001404200,5.209404052734375,-0.07787818945050239,0.7497558526374399,-1.0905000386860222
1761476017011440000,5.219440185546875,-0.09299392551779746,0.7518902343176305,-1.1112236777629703
1761476017021476000,5.22947607421875,-0.14002864841520785,0.7318481477640569,-1.121900043143332
1761476017031513000,5.23951318359375,-0.1849304509371519,0.7397599438019097,-1.1154301164768636
1761476017041549000,5.249549072265625,-0.2257131277024746,0.7566958810336888,-1.1126908277060836
1761476017051585000,5.2595849609375,-0.27424305759370327,0.7678783693052827,-1.0672109330352395
1761476017061622000,5.2696220703125,-0.32275428278446194,0.7827516749188304,-1.0538645447280257
1761476017071658200,5.279658203125,-0.3323112156808376,0.8153225497864186,-1.0783137071341276
1761476017081694200,5.289694091796875,-0.3139204034656286,0.8366846328973769,-1.1253645043835043
1761476017091731000,5.29973095703125,-0.34287060361802574,0.8416679742679,-1.1325347613390535
1761476017101767200,5.30976708984375,-0.32164836736917496,0.8618105985864997,-1.1077879311606287
1761476017111803100,5.31980322265625,-0.28305472508072854,0.8761901293337344,-1.1146595704957842
1761476017121839000,5.329839111328125,-0.2682067000389099,0.901385360866785,-1.1423686114806682
1761476017131876000,5.3398759765625,-0.20895137799382207,0.9193500566244125,-1.1524890965439378
1761476017141912000,5.349912109375,-0.14179448904395103,0.9313780558094382,-1.148409645210579
1761476017151948000,5.359947998046875,-0.17855448616445063,0.943273368525505,-1.112020015772432
1761476017161985300,5.3699853515625,-0.2898579753547907,0.8898452913291752,-1.0741520574100314
1761476017172021500,5.380021484375,-0.3080646631747484,0.849119605448097,-1.0878089729711413
1761476017182057500,5.390057373046875,-0.30876082874536515,0.8543206812225281,-1.1512136697806417
1761476017192094200,5.40009423828125,-0.37257308344244955,0.9073713034085928,-1.2037434098977595
1761476017202130400,5.41013037109375,-0.39962183388769623,0.9741600896984338,-1.2205641963172704
1761476017212166400,5.42016650390625,-0.3282715849012136,0.9794131879210471,-1.1785927481587974
1761476017222202400,5.430202392578125,-0.2808504930347204,0.971807973614335,-1.1255686486534773
1761476017232239400,5.4402392578125,-0.2729991950124502,0.9595093407943844,-1.0770094196025282
1761476017242275600,5.450275634765625,-0.19486206236481665,0.9544894668057561,-1.0199480274051427
1761476017252311600,5.4603115234375,-0.07452069571614266,0.9786293440669774,-0.9937387234587222
1761476017262348300,5.470348388671875,-0.04597790732085705,0.9885758608028292,-0.9432952880963683
1761476017272384500,5.480384521484375,-0.007257423782348633,0.9850918180793523,-0.9176764973890036
1761476017282420500,5.49042041015625,0.08150807038545609,0.9973886973336339,-0.8955663723897188
1761476017292457200,5.500457275390625,0.09435644604265689,1.0331240275815128,-0.8805378762144594
1761476017302493400,5.510493408203125,0.0560796146184206,1.0637105967640876,-0.8716320276379584
1761476017312529400,5.520529296875,0.17933891454041004,1.1355132656931877,-0.8855725824460386
1761476017322565400,5.5305654296875,0.23293898730278015,1.1962541501209139,-0.8957087765350937
1761476017332602600,5.5406025390625,0.15338029741942882,1.2379437125980852,-0.8586318224199115
1761476017342638600,5.550638671875,0.13774901304543016,1.2425681575283407,-0.805146681274101
1761476017352674600,5.560674560546875,0.16121172169744968,1.2262930222928523,-0.7645502477958798
1761476017362711600,5.570711669921875,0.11121697995066641,1.2161048057556152,-0.740825088815391
1761476017372747500,5.58074755859375,0.09759586635529995,1.2363035441756247,-0.7306698246996849
1761476017382783500,5.590783447265625,0.12833353444635867,1.2603759091585873,-0.6984717286672443
1761476017392820500,5.600820556640625,0.13609832322895526,1.3037339893698692,-0.6388968192789704
1761476017402856400,5.6108564453125,0.11779168216586113,1.3286658937916158,-0.5706943667989224
1761476017412892400,5.620892333984375,0.12640052055716514,1.332459148594737,-0.4960035021476447
1761476017422928400,5.630928466796875,0.14092238238453864,1.2748647454991935,-0.3928696562137455
1761476017432965600,5.640965576171875,0.1198708265274763,1.1899220244899391,-0.3162525727402419
1761476017443001600,5.651001708984375,0.12422902173697947,1.0951751178249716,-0.25528533221073446
1761476017453037600,5.66103759765625,0.14236848953962325,1.0214794747561216,-0.18809965555779634
1761476017463074600,5.671074462890625,0.1182195521891117,0.9536904253825544,-0.12981646648049353
1761476017473110500,5.681110595703125,0.13110241463780403,0.8538184307888149,-0.09651260116323829
1761476017483146500,5.691146484375,0.18176000420749186,0.7629428125992417,-0.03247764362618327
1761476017493182500,5.701182373046875,0.2513321376055479,0.667368222938478,0.038065672891587014
1761476017503219500,5.711219482421875,0.32192718431055545,0.5788491047471761,0.07486359086968004
1761476017513255400,5.72125537109375,0.326081381380558,0.4964771110087633,0.08886837002038955
1761476017523291400,5.73129150390625,0.40576866607964035,0.44988633248656984,0.09438099596202373
1761476017533328400,5.741328369140625,0.4521569077670574,0.4251818070799112,0.1460804958000779
1761476017543364600,5.751364501953125,0.3779027540326118,0.3585395896539092,0.22844518301486968
1761476017553400600,5.761400634765625,0.22885551738142965,0.2520198276087642,0.3122562696456909
1761476017563436500,5.7714365234375,0.14860416905879972,0.13031272556483744,0.3311019860215485
1761476017573473500,5.7814736328125,0.08985153583884238,0.042241351141035555,0.2986800181053579
1761476017583509500,5.791509521484375,-0.0391565368682146,0.008484627489745617,0.2742069633670151
1761476017593545500,5.80154541015625,-0.12593114947974682,-0.004542904126644134,0.30172859202101826
1761476017603582500,5.81158251953125,-0.23722411727607248,-0.0867617531299591,0.38864845832213757
1761476017613618400,5.821618408203125,-0.37272681269943714,-0.20773177307099103,0.48674087602272625
1761476017623654400,5.831654296875,-0.47266368922293184,-0.3525374266296625,0.5756146528705954
1761476017633690400,5.8416904296875,-0.5785720413714647,-0.5092109203755856,0.635032764261961
1761476017643727400,5.851727294921875,-0.6556640488803386,-0.6573825432360172,0.6605277093939482
1761476017653763300,5.861763427734375,-0.777425803720951,-0.8106871450707316,0.7728830457247793
1761476017663799600,5.871799560546875,-0.9214642722994089,-0.9543754850372671,0.8565756205424666
1761476017673836500,5.88183642578125,-1.0031552980363367,-1.0820005789533256,0.880403947636485
1761476017683872500,5.89187255859375,-0.9494751457750796,-1.12648240249753,0.8263926637247204
1761476017693908500,5.901908447265625,-0.8691074775964022,-1.1197466645017267,0.763798260384798
1761476017703945500,5.911945556640625,-0.7818325142472982,-1.142467030353844,0.742052292522788
1761476017713981400,5.9219814453125,-0.6263064369708299,-1.2139853293836116,0.7613572969734669
1761476017724017400,5.932017333984375,-0.4150584724724293,-1.2794301537185906,0.800308520527929
1761476017734053400,5.942053466796875,-0.2552221307814121,-1.3079405011489986,0.852981833834201
1761476017744090400,5.95209033203125,-0.09390051896870136,-1.300791213916242,0.8570049518704413
1761476017754126300,5.962126220703125,0.08860767325758934,-1.2959744612842798,0.7912873019434511
1761476017764162300,5.972162353515625,0.24391455482542512,-1.2885162542328237,0.7471833718009293
1761476017774199600,5.982199462890625,0.3326870632559061,-1.2125848149359226,0.7494492709062993
1761476017784235500,5.992235595703125,0.3766056999593973,-1.1144815835803747,0.7894960346125066
1761476017794271500,6.002271484375,0.37590310464799404,-1.0406570534348487,0.8476165074087679
1761476017804307500,6.012307373046875,0.38674130952656266,-0.9780003985136747,0.8724147024482488
1761476017814344400,6.022344482421875,0.4781552723765373,-0.8951943972721695,0.8854916261643171
1761476017824380400,6.03238037109375,0.5003875624507665,-0.7786924626559019,0.8644032454282045
1761476017834416400,6.04241650390625,0.49159869131743905,-0.6691904699295759,0.8619345172271132
1761476017844453400,6.052453369140625,0.5004921918690204,-0.5866539332792162,0.8901130023546516
1761476017854489300,6.0624892578125,0.5366156446516513,-0.5120204248383641,0.9249578135035932
1761476017864525300,6.072525390625,0.5596493142366409,-0.44382133335918184,0.9671148473620415
1761476017874561300,6.082561279296875,0.5546978293091058,-0.34852059220373627,0.9879689809508622
1761476017884598500,6.0925986328125,0.5719453167080879,-0.235067231503129,0.9534262214884162
1761476017894634500,6.102634521484375,0.6154138715565204,-0.14450930096060036,0.8922599512554704
1761476017904670500,6.11267041015625,0.6418652406305074,-0.031712358342111106,0.8100988237887621
1761476017914707500,6.12270751953125,0.6065215400487184,0.0645493367999792,0.7188058569699526
1761476017924743400,6.132743408203125,0.5654290666818619,0.12744096952080725,0.6432403283759951
1761476017934779400,6.142779296875,0.532308302846551,0.16098200459480286,0.591619885123521
1761476017944815400,6.1528154296875,0.46828971192240715,0.17529665341228245,0.5863396066330373
1761476017954852400,6.162852294921875,0.3654261342972517,0.17467413759976624,0.6162282566793262
1761476017964888300,6.172888427734375,0.29375381374955173,0.2229237892448902,0.5729530324459076
1761476017974924300,6.18292431640625,0.30202538301050663,0.29334990912377834,0.4863493924871087
1761476017984961500,6.19296142578125,0.2782844419389963,0.35685295174121856,0.3688267365209758
1761476017994997500,6.20299755859375,0.24873744493722913,0.3813277600452304,0.27590397654324766
1761476018005033500,6.213033447265625,0.23408406568467616,0.38921354485899207,0.19456366394013166
1761476018015069400,6.2230693359375,0.2195341468065977,0.3670613342836499,0.09594590719118713
1761476018025106400,6.2331064453125,0.21082184804081916,0.3573150162950158,-0.022376228589564562
1761476018035142400,6.243142333984375,0.21193770032823084,0.33780805953145027,-0.11656360167562961
1761476018045178400,6.253178466796875,0.27450784600973127,0.3473196919813752,-0.1976147220738232
1761476018055215400,6.26321533203125,0.3223901256471872,0.34742402913868425,-0.27596593586355445
1761476018065251300,6.273251220703125,0.34836569390296934,0.3580281330004334,-0.29889453763887286
1761476018075287300,6.283287353515625,0.36773324219584463,0.35428485481888056,-0.3258648160204291
1761476018085324500,6.293324462890625,0.37371991539001465,0.31539924384653567,-0.39159912482127546
1761476018095360500,6.303360595703125,0.38966567254066464,0.26999621380418537,-0.47516295869275926
1761476018105396500,6.313396484375,0.38878596709668634,0.19692805498391389,-0.5831355498947203
1761476018115432400,6.323432373046875,0.4064338519901037,0.12214695476591586,-0.6656761781983077
1761476018125469400,6.333469482421875,0.35647651964426036,0.0671396455541253,-0.7224133799426257
1761476018135505400,6.34350537109375,0.32684418244659896,0.02761135276407003,-0.7807960108064115
1761476018145541400,6.353541259765625,0.33639293203651904,-0.00006868132203817368,-0.7968124951057136
1761476018155578400,6.363578369140625,0.260854583710432,-0.05154723188579082,-0.7993122029669583
1761476018165615000,6.373614990234375,0.20698329279124736,-0.13627017266452313,-0.8388299743629991
1761476018175651000,6.383651123046875,0.14744447762966156,-0.20283815581053494,-0.886429783797264
1761476018185687000,6.39368701171875,0.14264379934966565,-0.24997224742919205,-0.9653481299504637
1761476018195724000,6.40372412109375,0.10972060391306876,-0.2888724714487791,-1.0435511674411595
1761476018205760000,6.413760009765625,0.04452361685931682,-0.309755100479722,-1.1054381531640887
1761476018215796000,6.4237958984375,0.16494389396309853,-0.31981150733083485,-1.1629432705409823
1761476018225833000,6.4338330078125,0.2755208224445581,-0.3238034995764494,-1.189247924620658
1761476018235869000,6.443868896484375,0.27583821783065793,-0.32550562731921673,-1.1963783610224723
1761476018245905000,6.45390478515625,0.3057394350975752,-0.3393178795725107,-1.1843377946168183
1761476018255941000,6.463941162109375,0.44154783546924586,-0.34150282239615914,-1.1937966739661992
1761476018265978000,6.47397802734375,0.5401929186165333,-0.3342255248695612,-1.194392740163207
1761476018276014000,6.48401416015625,0.5405032997399568,-0.329026202660799,-1.1859149808056653
1761476018286050000,6.494050048828125,0.5378133300036192,-0.3416644426986575,-1.1997018063567577
1761476018296087000,6.504087158203125,0.5229097753822803,-0.31351211492568254,-1.2339349153481423
1761476018306123000,6.514123046875,0.4822632922172546,-0.24981501104086637,-1.272222998818755
1761476018316159000,6.524158935546875,0.4789169043987989,-0.19455168124139308,-1.2848469180703161
1761476018326196000,6.534196044921875,0.4431389040529728,-0.13997458014041184,-1.250097530119866
1761476018336232000,6.54423193359375,0.3699392278075218,-0.11101444311589002,-1.1885958173874764
1761476018346268000,6.554267822265625,0.3363502619385719,-0.08060323050022125,-1.1434413552787155
1761476018356304000,6.564303955078125,0.40071138269007206,-0.03520166176259518,-1.101464865618944
1761476018366341000,6.574341064453125,0.4562216729879379,-0.015182663823664188,-1.0403332283079623
1761476018376377000,6.584377197265625,0.5187281057834625,-0.03571662554740906,-0.9964508319616318
1761476018386413000,6.5944130859375,0.594352963349223,-0.08184124786257743,-0.9574237666919827
1761476018396450000,6.604449951171875,0.6675374420255422,-0.14206424589604139,-0.8779614498551934
1761476018406486000,6.614486083984375,0.6844394769877195,-0.21721622525304554,-0.7769047024562954
1761476018416522000,6.62452197265625,0.6934580652236938,-0.27087153533399105,-0.7150872017730027
1761476018426558000,6.634557861328125,0.7830448126465082,-0.2792275680080056,-0.7148121842239051
1761476018436595000,6.644594970703125,0.8880407261252403,-0.2082318315476179,-0.7369476628601551
1761476018446631000,6.654630859375,0.9132470635741948,-0.10025544095337391,-0.7479544292386621
1761476018456667000,6.6646669921875,0.9208177910894155,-0.0075856328234076495,-0.6936967693503946
1761476018466704100,6.6747041015625,0.8541197518229484,0.06232698457539081,-0.6167559338152409
1761476018476740000,6.684739990234375,0.7673942390501499,0.18413491664528844,-0.638966377383843
1761476018486776000,6.694776123046875,0.6868669963955879,0.38964813688397404,-0.7678463667318225
1761476018496812000,6.70481201171875,0.4912731126248836,0.5809077908426523,-0.8455920889090747
1761476018506849000,6.71484912109375,0.15203122089803217,0.5738461818933487,-0.800025027411431
1761476018516885000,6.724885009765625,-0.257674784630537,0.2304018700405955,-0.5926381222553551
1761476018526921000,6.7349208984375,-0.7484639131307601,-0.3644564124822616,-0.22568857778310775
1761476018536958000,6.7449580078125,-1.1130711322605609,-0.8409042964190244,0.14633732010535894
1761476018546994000,6.754993896484375,-1.1997662498950958,-0.9121579531632363,0.286064866682142
1761476018557030000,6.76502978515625,-1.0525959130316973,-0.6075000296920537,0.24252134690135715
1761476018567067100,6.775067138671875,-0.828368639972806,-0.13566066246405242,0.22915318515375255
1761476018577103000,6.78510302734375,-0.5360428131997585,0.26992987056970597,0.2176674761518836
1761476018587139000,6.79513916015625,-0.18651158264875412,0.536532350282371,0.18530805207788942
1761476018597175000,6.805175048828125,0.1407405960768461,0.6394707467094063,0.2229851640433073
1761476018607212000,6.8152119140625,0.4726911617517471,0.6217185246586799,0.23884346210621296
1761476018617248000,6.825248046875,0.6468740087032318,0.536036383458972,0.3280255011856556
1761476018627284000,6.835283935546875,0.6929314110010862,0.4561722808882594,0.42750097074247895
1761476018637321000,6.845321044921875,0.7939443923234939,0.45023733788132664,0.4211893033776432
1761476018647357000,6.85535693359375,0.7624445076882839,0.5329655977115034,0.40979470672532914
1761476018657393000,6.865392822265625,0.6487474013596772,0.638229222215712,0.4037737659353763
1761476018667430000,6.875429931640625,0.5221878908485174,0.7017761039748788,0.4338636376421898
1761476018677466000,6.885466064453125,0.36578093908429143,0.7587766328305006,0.445539681584388
1761476018687502000,6.895502197265625,0.241171393597126,0.8414511166468263,0.44254174187742173
1761476018697538000,6.9055380859375,0.14722352835536,0.8983125292927027,0.44330615037865934
1761476018707575000,6.915574951171875,0.03485504028201103,0.8979419424146413,0.4691796464994549
1761476018717611000,6.925611083984375,-0.09403203639388084,0.7821095776230096,0.544274415776506
1761476018727647000,6.93564697265625,-0.19185235915482043,0.6303554201006889,0.6784497350536286
1761476018737684000,6.94568408203125,-0.21452537873387337,0.5451265756264329,0.8063768075909465
1761476018747720000,6.955719970703125,-0.15742051272094248,0.5287085247889161,0.8732238268740474
1761476018757756000,6.965755859375,-0.22284020261466503,0.5747662193477153,0.924407413079217
1761476018767793000,6.97579296875,-0.34790918230712414,0.6130275609418749,0.9635892305191606
1761476018777828900,6.985828857421875,-0.4746294363379478,0.6569198941603303,0.9632856444627046
1761476018787864800,6.99586474609375,-0.637548546475172,0.7305132458984851,0.9399507269088179
1761476018797901000,7.005901123046875,-0.7468833659410476,0.8406742870554328,0.849175427288562
1761476018807938000,7.01593798828125,-0.8392214578986168,0.947977016171813,0.7076802134521305
1761476018817974000,7.02597412109375,-0.9210650438487529,1.0164769902937114,0.5939934093218296
1761476018828010000,7.036010009765625,-1.0167483545809983,1.0220169426336885,0.546814090321958
1761476018838047000,7.046046875,-1.1878361581265926,0.9901862186089158,0.49331740486882625
1761476018848083000,7.0560830078125,-1.3289309744685887,0.9324320949070155,0.4661275654524564
1761476018858119000,7.066118896484375,-1.4182061717242003,0.8692194135382771,0.47711818441376086
1761476018868156000,7.076156005859375,-1.453990017288923,0.8167961294703185,0.4802803017064929
1761476018878191900,7.08619189453125,-1.4375982699364422,0.8286647003099322,0.47302828475162384
1761476018888227800,7.096227783203125,-1.3268038993120193,0.8753659534692764,0.49034372282028194
1761476018898265000,7.10626513671875,-1.2053864278644322,0.9252695098012685,0.5240767733350395
1761476018908301000,7.116301025390625,-1.0479887114971875,0.9386870636485517,0.5871741577610373
1761476018918337000,7.1263369140625,-0.853628168913722,0.9336350409559905,0.6577662087913603
1761476018928373000,7.136373046875,-0.6999298915863037,0.9074581049092113,0.6892418357681482
1761476018938410000,7.146409912109375,-0.5865700543880462,0.8676829977512359,0.6957408423986285
1761476018948446000,7.156446044921875,-0.51453649931252,0.8381449147082864,0.6675090196486562
1761476018958482000,7.16648193359375,-0.516875171393156,0.8041805396556854,0.6053329147860408
1761476018968519000,7.176518798828125,-0.471523871538043,0.7764166266784072,0.5569158706847578
1761476018978555000,7.186554931640625,-0.4429927735805511,0.7841666562832892,0.5390764818072319
1761476018988590800,7.1965908203125,-0.4351794694811105,0.819711286264658,0.5045333570186048
1761476018998628000,7.206628173828125,-0.506350854769349,0.8759059055648744,0.4912775696042925
1761476019008664000,7.2166640625,-0.4765840775370598,0.9129178316198289,0.46751836222372944
1761476019018700000,7.226699951171875,-0.3944862245649099,0.958019248367101,0.4280841043926775
1761476019028736000,7.236736083984375,-0.38670097751617427,0.9580886603415012,0.40499483216293153
1761476019038773000,7.24677294921875,-0.3412128995388746,0.9386135600209236,0.4020443848595023
1761476019048809000,7.25680908203125,-0.25188275722563264,0.8958739039689302,0.37684301584661006
1761476019058845000,7.266844970703125,-0.19016133732795715,0.8141285176962614,0.3350373527090996
1761476019068882000,7.2768818359375,-0.1413777249366045,0.7349860073983668,0.3046643532119691
1761476019078918000,7.28691796875,-0.09408931953907013,0.7324807465791702,0.2573849348384887
1761476019088953900,7.296953857421875,-0.03404080128967762,0.8329013149663805,0.1607669736046344
1761476019098990800,7.306990966796875,0.03362111457288265,0.9879264569833874,0.03282828369475901
1761476019109027000,7.317027099609375,0.07975450471639632,1.114590889173746,-0.06783456901572645
1761476019119063000,7.32706298828125,0.07527882060706614,1.161913781362772,-0.09735599318481981
1761476019129100000,7.33710009765625,-0.033031331986188885,1.085873913255334,-0.04905972591899335
1761476019139136000,7.347135986328125,-0.12737550306916237,0.9657973350226878,0.02389686228558421
1761476019149172000,7.357171875,-0.16593290500044822,0.8893930175170301,0.034365649329870934
1761476019159208000,7.3672080078125,-0.16804069093465804,0.8405757951170205,0.025778730509430168
1761476019169245400,7.377245361328125,-0.1989332573264837,0.794001967729628,0.06408471496291458
1761476019179281400,7.387281494140625,-0.2352975331276655,0.757011376723647,0.12638839172795413
1761476019189317400,7.3973173828125,-0.24590485185980795,0.7143404019936919,0.17691621743813157
1761476019199354400,7.407354248046875,-0.1976665983915329,0.6762018099963665,0.17027268777042626
1761476019209390300,7.417390380859375,-0.14528291568160057,0.6273243818417191,0.1323512456551194
1761476019219426300,7.42742626953125,-0.13896481857597828,0.5547644648045301,0.10767163549400866
1761476019229463300,7.43746337890625,-0.11976152093410491,0.4638718954801559,0.1016156964559108
1761476019239499300,7.447499267578125,-0.03912263459861278,0.4221636283025145,0.08149075392447412
1761476019249535200,7.45753515625,-0.02122398981451988,0.4157026155948639,0.10162892126366495
1761476019259572500,7.467572509765625,-0.0006909048736095428,0.3682420685008168,0.12974756596274672
1761476019269608400,7.4776083984375,0.03941548006534576,0.3040580578818917,0.14177658806107937
1761476019279644400,7.48764453125,0.03050970455408096,0.22072335659116504,0.10697846559807657
1761476019289681400,7.497681396484375,0.006991466322541237,0.1338809394404292,0.12820296686924992
1761476019299717400,7.50771728515625,0.03212590757906437,0.09150544052571058,0.08904584547914564
1761476019309753300,7.51775341796875,0.0692985771536827,0.08450374507009982,0.006267828223109245
1761476019319789300,7.527789306640625,0.08955401419699191,0.0673947893589735,-0.04360920542813837
1761476019329826300,7.537826416015625,0.08295300849676132,0.006480301930010319,-0.06722841981612146
1761476019339862300,7.5478623046875,0.12407879961133003,-0.06632306847423315,-0.10089096237793564
1761476019349898200,7.557898193359375,0.170769239115715,-0.1312958913832903,-0.1091558096371591
1761476019359935500,7.567935546875,0.1987900494635105,-0.18735037156045437,-0.11562376354224979
1761476019369971500,7.577971435546875,0.2445487610757351,-0.24151772281676528,-0.16123049946315585
1761476019380007400,7.58800732421875,0.24864509047865865,-0.3191308315902948,-0.17918313945680855
1761476019390044400,7.59804443359375,0.2783978391855955,-0.35300504414141176,-0.1719227930650115
1761476019400080400,7.608080322265625,0.2978010433137417,-0.3466284948468208,-0.17391396688222885
1761476019410116400,7.618116455078125,0.32238954112529755,-0.3644681029200554,-0.1558530442085117
1761476019420153300,7.6281533203125,0.3555670035839081,-0.3663929335027933,-0.15303711000494657
1761476019430189300,7.638189208984375,0.4411386701464653,-0.34186054979264735,-0.19043949668221175
1761476019440225300,7.648225341796875,0.47208501255214214,-0.2982838583946228,-0.19871355016119777
1761476019450262300,7.65826220703125,0.4267945029735565,-0.3156026574641466,-0.14903079697303473
1761476019460298200,7.66829833984375,0.445756977596879,-0.3531327621743083,-0.11501856419071554
1761476019470334500,7.67833447265625,0.4821843817621469,-0.3960024743467569,-0.047954614221304655
1761476019480370400,7.688370361328125,0.4791542202860117,-0.4070630898043513,0.04762333644032478
1761476019490407400,7.698407470703125,0.4661199666678905,-0.41523879747539755,0.14956534224115312
1761476019500443400,7.708443359375,0.48470425562858577,-0.4135010138973593,0.23829050439856944
1761476019510479400,7.718479248046875,0.46601825985908507,-0.4257701283618808,0.2870354652799666
1761476019520516400,7.728516357421875,0.43012101704776284,-0.46864510123133657,0.3263623172137886
1761476019530552300,7.73855224609375,0.4068552922725677,-0.5214920175388456,0.35975174192264675
1761476019540588300,7.74858837890625,0.39351825631558895,-0.596216419133544,0.4242576779723167
1761476019550625300,7.758625244140625,0.40082361089289187,-0.6777388103052974,0.5263673684902489
1761476019560661200,7.7686611328125,0.3617670272678137,-0.7651832850024104,0.6433072561323643
1761476019570697200,7.778697265625,0.28534955801963807,-0.8300473868399858,0.740753338753432
1761476019580734500,7.788734375,0.22415479234457014,-0.823500741675496,0.7707808127485215
1761476019590770400,7.7987705078125,0.26999592154324054,-0.8013561298847198,0.7736071222156286
1761476019600806400,7.808806396484375,0.3334633083254099,-0.8329179738402366,0.8086651377238333
1761476019610843400,7.818843505859375,0.29648937619328497,-0.9062719638645649,0.8917692451290786
1761476019620879400,7.82887939453125,0.2575900289565325,-0.9890879019781946,1.0103029778338968
1761476019630915300,7.838915283203125,0.2205763493359089,-1.051318732702732,1.1186407490864396
1761476019640952300,7.848952392578125,0.26971125938296314,-1.005283249975741,1.0965243404768408
1761476019650988300,7.85898828125,0.3371569021463394,-0.8548033501729368,0.9859728386975825
1761476019661024300,7.869024169921875,0.32766192857027054,-0.6457888438150287,0.8819918013498187
1761476019671060200,7.879060302734375,0.19691373419761657,-0.5080503521636128,0.9121599989898502
1761476019681097500,7.889097412109375,-0.03240413999855518,-0.6289373699963092,1.0729764377593993
1761476019691133400,7.899133544921875,-0.2079664586097002,-0.973879811452329,1.2962595618359745
1761476019701169400,7.90916943359375,-0.32394027769863604,-1.2194338040478527,1.4258356436893342
1761476019711206400,7.919206298828125,-0.3596183248013258,-1.0888136199690401,1.3217657590143381
1761476019721242400,7.929242431640625,-0.33457682252526283,-0.6340463835731148,1.109383237528056
1761476019731278300,7.9392783203125,-0.4079407494217157,-0.14533216165080665,0.9454949900977313
1761476019741315300,7.9493154296875,-0.5813654714822769,0.040809564772248265,0.9559471182681619
1761476019751351300,7.959351318359375,-0.7744248683393001,-0.1291214699536562,1.0589318380549548
1761476019761387300,7.96938720703125,-0.9131891959071159,-0.4231435792505741,1.1694906463578343
1761476019771424300,7.97942431640625,-1.0628829137682914,-0.6366808237299323,1.2483112312249838
1761476019781460500,7.98946044921875,-1.1780360641241072,-0.7008296169050038,1.2904820013478397
1761476019791496400,7.999496337890625,-1.1316162582546472,-0.653373307594657,1.287687694454193
1761476019801528600,8.009528564453126,-0.9389368006259202,-0.5125361192755401,1.2207603764764965
1761476019811564500,8.019564453125,-0.6974304759860038,-0.31962460645660756,1.0599166113086045
1761476019821601300,8.029601318359376,-0.2981172696560621,-0.21126403885036707,0.8888932513013481
1761476019831637500,8.039637451171876,0.16123860970437526,-0.19200974167361853,0.798967627312988
1761476019841673500,8.049673583984376,0.4443009335696697,-0.20988675914779303,0.7095028988346457
1761476019851710200,8.059710205078124,0.5391968933165073,-0.16109934736415743,0.7024538571059703
1761476019861746400,8.069746337890624,0.6395569636881351,-0.07044613975360989,0.6888745368257164
1761476019871782400,8.079782470703124,0.8037059078812598,0.07503858211040497,0.5670328486166895
1761476019881819400,8.0898193359375,0.8828945954084396,0.21352306982353328,0.3384624317869544
1761476019891855400,8.09985546875,0.8436211541622877,0.2867754991695285,0.10707871110215783
1761476019901891600,8.1098916015625,0.6506359915852546,0.2778561335243285,-0.046575434822589155
1761476019911928300,8.11992822265625,0.4947545249998569,0.259401754553616,-0.17877952709197997
1761476019921964300,8.12996435546875,0.4596247594296932,0.3018631781861186,-0.32194004379212854
1761476019932000500,8.14000048828125,0.41321079877913,0.37028570315763354,-0.40120983373150226
1761476019942037200,8.150037353515625,0.31167759297490116,0.42667277629002925,-0.4375216486930847
1761476019952073200,8.1600732421875,0.20071195743679998,0.43035219545513387,-0.424556514788419
1761476019962109400,8.170109375,0.16474924817383288,0.4219230975449085,-0.41981034317463634
1761476019972146400,8.180146484375,0.13045768699347973,0.4460264421880245,-0.4419895878873765
1761476019982182400,8.190182373046875,0.03313245427310466,0.5209720853179693,-0.4935528941251337
1761476019992218400,8.20021826171875,-0.03304185338020325,0.6016268998749554,-0.5135092020913958
1761476020002255400,8.21025537109375,-0.13246376611888408,0.6828161135695874,-0.5139205593712628
1761476020012291300,8.220291259765625,-0.22015081740021705,0.740557523920387,-0.5906834810562431
1761476020022327300,8.230327392578126,-0.21148878751695155,0.7806077947579324,-0.6706558663070201
1761476020032364300,8.2403642578125,-0.2782745050668716,0.8018278390496969,-0.752298668988049
1761476020042400300,8.250400146484376,-0.43122342533171176,0.8129768634431064,-0.8116235491380095
1761476020052436200,8.260436279296876,-0.4881546883434057,0.8554498313829302,-0.8113058614909648
1761476020062473200,8.27047314453125,-0.6152876148283482,0.9044679831825196,-0.7694444495782256
1761476020072509400,8.280509521484374,-0.7528858212262391,0.9033154521465301,-0.7563878379978239
1761476020082545400,8.29054541015625,-0.8001239577412604,0.8812485817670822,-0.7871595544889569
1761476020092581600,8.30058154296875,-0.8100152371585368,0.8685982129000127,-0.8360634322591125
1761476020102618400,8.310618408203124,-0.9005039018571376,0.8454210431911051,-0.9162883309662342
1761476020112654300,8.320654296875,-0.8848901531398295,0.7779596183367073,-0.9817181038625538
1761476020122691300,8.33069140625,-0.7685749732673167,0.69998337533921,-1.0139677839517593
1761476020132727300,8.340727294921875,-0.681195380499959,0.6567025981478393,-1.0469245893970132
1761476020142763300,8.35076318359375,-0.6919073286503553,0.6552335485085845,-1.025401762766391
1761476020152799500,8.360799560546875,-0.6450035386562347,0.634643911074847,-0.9705522744648158
1761476020162836200,8.370836181640625,-0.5241080452561379,0.602003478102386,-0.9607155017137526
1761476020172871000,8.380870849609375,-0.40519115845263004,0.598223082780838,-0.9943417308531701
1761476020182907000,8.390906982421875,-0.34572365496158597,0.5973555061660707,-1.047366049554199
1761476020192943900,8.40094384765625,-0.18840835618078708,0.5845587145656347,-1.1252721499249339
1761476020202979800,8.410979736328125,-0.07752689179480075,0.5922362634561955,-1.1834335392534732
1761476020213015800,8.421015869140625,-0.04884557171165943,0.6318214010000228,-1.2202939280085265
1761476020223052800,8.431052734375,0.07764905686974526,0.6725992554597556,-1.2051172555342315
1761476020233088800,8.4410888671875,0.19015666115283966,0.6732067198336124,-1.183920738248527
1761476020243124700,8.451124755859375,0.25224516079723835,0.6530071046307683,-1.1694038448572157
1761476020253161700,8.46116162109375,0.30232407369613645,0.6488638673461973,-1.1202318176701664
1761476020263198000,8.471197998046875,0.3489800264090299,0.6239229028351605,-1.0297074971362947
1761476020273234000,8.48123388671875,0.3861298996299505,0.5763844681993127,-0.9135241269499063
1761476020283271000,8.49127099609375,0.4572580302983522,0.5027870248079299,-0.7850371555075049
1761476020293307000,8.501306884765626,0.4946066409617662,0.4620990405887365,-0.6830072522275149
1761476020303342800,8.5113427734375,0.3685807989358902,0.4559609762251377,-0.6040002048775553
1761476020313379800,8.5213798828125,0.4386410081118345,0.4689472990483045,-0.5604746591448784
1761476020323415800,8.531415771484374,0.6757388686597346,0.4760205984354019,-0.5349466885261237
1761476020333451800,8.54145166015625,0.7490326529294252,0.4822977790087461,-0.4856856678813696
1761476020343488800,8.55148876953125,0.7225736850708723,0.4536129517942667,-0.41365781189426776
1761476020353524700,8.561524658203124,0.7403869896590709,0.3818605517476797,-0.31758038727790117
1761476020363560700,8.571560791015624,0.7906085258990526,0.2993028261788189,-0.21421762795895335
1761476020373598000,8.581597900390625,0.8411012802958489,0.2701066884413361,-0.1498264043301344
1761476020383634000,8.591634033203125,0.8731465238541364,0.282565187998116,-0.0719590285345912
1761476020393674800,8.6016748046875,0.8479805184155702,0.3120211457155645,-0.023916443768888712
1761476020403710700,8.611710693359376,0.780027510651946,0.3198321117274463,0.0394724709495902
1761476020413747700,8.621747802734374,0.7635960158109665,0.2783732892662287,0.10675196336582303
1761476020423783700,8.63178369140625,0.7791817074775695,0.24298721084743738,0.15353431893736122
1761476020433819600,8.641819580078124,0.6464473077237606,0.2417885025821626,0.15493264142796395
1761476020443856600,8.651856689453124,0.528203205615282,0.26153452879860994,0.14469196405112741
1761476020453892600,8.661892578125,0.6511848576396704,0.2508198041692376,0.15789002992883325
1761476020463928600,8.671928466796874,0.6269570098340511,0.19553981549590824,0.2256280797675252
1761476020473965800,8.6819658203125,0.45898178535103795,0.10527838368192315,0.30820334099307656
1761476020484001800,8.692001708984375,0.4462351165026426,0.015351882910728453,0.39707521814480423
1761476020494037800,8.702037841796875,0.5252092844963073,-0.040730654317140576,0.4455673002436757
1761476020504074800,8.71207470703125,0.519262358790636,-0.08885024984180927,0.4400817084394395
1761476020514110700,8.72211083984375,0.48582127695977684,-0.12505568181946872,0.43167168055586513
1761476020524146700,8.732146728515625,0.5019020586669445,-0.17524930713921785,0.44066725324243305
1761476020534183700,8.74218359375,0.5138508551359177,-0.20779460917413234,0.47747993039824066
1761476020544219600,8.7522197265625,0.4686953701138496,-0.21472937687337398,0.5206514019962399
1761476020554255600,8.762255615234375,0.44564182678461073,-0.225610690241307,0.5409210136953742
1761476020564292600,8.772292724609375,0.5110416429340839,-0.2674392227977514,0.5518199357852339
1761476020574328800,8.782328857421875,0.5379191284656525,-0.3463211824633181,0.5810883350413293
1761476020584364800,8.79236474609375,0.5441811114698648,-0.44954614074677224,0.6371976872108877
1761476020594401800,8.80240185546875,0.6285030702322721,-0.5116042452529073,0.7043051840610802
1761476020604437800,8.812437744140626,0.6692769791692494,-0.5675235547430812,0.7678702590640634
1761476020614473700,8.8224736328125,0.7383610367894172,-0.607941635979712,0.8207305463097989
1761476020624510700,8.8325107421875,0.8140309025406837,-0.6506821688145399,0.8432297436919063
1761476020634546700,8.842546630859376,0.8632897312283515,-0.7126597554303705,0.8649054227966815
1761476020644582700,8.852582763671874,0.8764970033258199,-0.764827895693481,0.8880451100394129
1761476020654619600,8.86261962890625,0.9299936157137155,-0.8010963099047541,0.9107619687601923
1761476020664655600,8.872655517578124,0.9220289204448461,-0.8222830364488065,0.9347774159241468
1761476020674691600,8.882691650390624,0.9079331750750541,-0.8413478024028241,0.9631021776545792
1761476020684728800,8.892728759765625,0.8348632626891136,-0.8629439865306019,0.9851130800630896
1761476020694764800,8.902764892578125,0.6851987709224223,-0.9240421599633991,1.0171909837819635
1761476020704801800,8.9128017578125,0.604483896741271,-1.0101884115435182,1.0334002141743899
1761476020714837800,8.922837646484375,0.5032832838922738,-1.059817680978775,1.0131767066393047
1761476020724873700,8.932873779296875,0.34646892037093635,-1.0386996357567608,0.970239409123361
1761476020734910700,8.94291064453125,0.2325491112023592,-0.9926663449868559,0.8894522734235971
1761476020744946700,8.95294677734375,0.10065759201347828,-0.9368386593028902,0.7788071750767529
1761476020754982700,8.962982666015625,-0.025814824736118316,-0.9279935279376804,0.7312279700390995
1761476020765020000,8.97302001953125,-0.16289572926163673,-0.9290652488224208,0.734152186922729
1761476020775056000,8.983055908203125,-0.30966859124004836,-0.9118640847831964,0.6837911691468208
1761476020785091800,8.993091796875,-0.367794032472372,-0.8239910094104707,0.5649891408946365
1761476020795128800,9.00312890625,-0.4781365676760673,-0.6644838996738195,0.42281529714427885
1761476020805164800,9.013164794921876,-0.7332932320058345,-0.48199806540980933,0.30286402579173444
1761476020815200800,9.02320068359375,-1.0660948615521193,-0.398120051022619,0.2244778137538582
1761476020825237800,9.03323779296875,-1.3258265787124632,-0.42353842378705736,0.10646474392227828
1761476020835273700,9.043273681640626,-1.4761545028239487,-0.420611138163507,-0.041088162517920135
1761476020845309700,9.053309814453126,-1.615716118249297,-0.3260010096207261,-0.17896226324774323
1761476020855346700,9.0633466796875,-1.8310820394605396,-0.23481135704591868,-0.2737139191530645
1761476020865382700,9.073382568359374,-2.0928823795884846,-0.2972331802979111,-0.2924894929021597
1761476020875419000,9.0834189453125,-2.181165643197298,-0.5435740854874253,-0.22942206522300837
1761476020885456000,9.093455810546875,-2.200788627555966,-0.8383341536700725,-0.15309380862824618
1761476020895491800,9.103491943359375,-2.169904828992486,-1.0064474714495242,-0.060019730546325444
1761476020905527800,9.11352783203125,-2.000457778391242,-1.0024408661566675,0.03503288106694817
1761476020915564800,9.123564697265625,-1.7897341300278902,-0.8586699624732136,0.03503251574076712
1761476020925600800,9.133600830078125,-1.510380597552657,-0.6801236596152186,-0.03500146301537752
1761476020935636700,9.14363671875,-1.1480629506647586,-0.5284300001084804,-0.13040383791439233
1761476020945673700,9.153673828125,-0.7557365344822407,-0.4412083743818104,-0.1627490873325616
1761476020955709700,9.163709716796875,-0.3250087837129831,-0.3533801610641181,-0.15021715721338985
1761476020965745700,9.17374560546875,-0.11031856980621814,-0.2334834694430232,-0.11900580719597637
1761476020975783000,9.183782958984375,0.03242459826469421,-0.1490305777773261,-0.19479170054234562
1761476020985819000,9.19381884765625,0.25706746638715267,-0.10892331605553626,-0.29702457904852925
1761476020995854800,9.203854736328125,0.4667921668410301,-0.06566475069597363,-0.37712380554936825
1761476021005891800,9.213891845703126,0.5506780722737312,0.02626709854826331,-0.4016388727985322
1761476021015927800,9.223927734375,0.5353028084874153,0.18604060413613915,-0.3836104641549289
1761476021025963800,9.2339638671875,0.5157622417151928,0.3322266061373055,-0.3896702025853097
1761476021036000800,9.244000732421876,0.5101671981871128,0.442377564291656,-0.4102225036833435
1761476021046036700,9.25403662109375,0.37736499389410016,0.5465097005479037,-0.39197380335256454
1761476021056072700,9.26407275390625,0.17430384298264978,0.6343773690931499,-0.4118656677804887
1761476021066110000,9.27410986328125,0.14512334120571613,0.7191748364128172,-0.44202582824453707
1761476021076146000,9.28414599609375,0.07158347322046757,0.7595444023326039,-0.44553464008308946
1761476021086183000,9.294182861328125,-0.0958504839926958,0.738789345204085,-0.3910159181058407
1761476021096219000,9.304218994140625,-0.23494740451574325,0.6977728596828877,-0.3087025957521051
1761476021106254800,9.3142548828125,-0.33118776460886,0.644548926756531,-0.2326579053390771
1761476021116291800,9.324291748046875,-0.3552297344535589,0.6678136286184191,-0.185086445216462
1761476021126327800,9.334327880859375,-0.39158758051395415,0.7501046660751104,-0.18696699826605617
1761476021136363800,9.34436376953125,-0.4311299018293619,0.7915693337552249,-0.14089732100851832
1761476021146400800,9.35440087890625,-0.48911856493949885,0.7881563104413449,-0.048143707052618265
1761476021156436700,9.364436767578125,-0.5612906517028808,0.7781045797653496,-0.021842194778099656
1761476021166474200,9.37447412109375,-0.6064706866443157,0.794340552034229,-0.03415215270966291
1761476021176511200,9.38451123046875,-0.5543102912962437,0.7861981621108949,-0.03361994552910328
1761476021186547200,9.394547119140626,-0.5063064311057329,0.7463289469286799,-0.012551365472003816
1761476021196583200,9.404583251953126,-0.5047983646303414,0.7068637825027108,0.01873297671638429
1761476021206620200,9.4146201171875,-0.49221360834538935,0.6810302530661225,0.03204692405872047
1761476021216656100,9.42465625,-0.41701428271532054,0.6776349115394056,0.024288930343091486
1761476021226692000,9.434692138671876,-0.3844593360692262,0.6934868529267608,0.04890216073710471
1761476021236729300,9.444729248046874,-0.3994634284555912,0.6951680840119719,0.05985632014553994
1761476021246765300,9.454765380859374,-0.49533320167064665,0.6830904004663229,0.04609908601511269
1761476021256801300,9.46480126953125,-0.6046101534694432,0.6091080494105815,0.013181370471231638
1761476021266838300,9.47483837890625,-0.6425777728140354,0.5569936851613223,-0.019395751474052668
1761476021276874200,9.484874267578125,-0.6640642129570246,0.5469619743600488,-0.10548307594116776
1761476021286910200,9.49491015625,-0.7026701302051543,0.5480614600345493,-0.23505806181598454
1761476021296947200,9.504947265625,-0.7617056720197201,0.526395133280009,-0.3344184536257759
1761476021306983200,9.514983154296875,-0.8941559941351414,0.4884463647663593,-0.3288378770144656
1761476021317019100,9.52501904296875,-0.9583750760674477,0.44726972024738787,-0.3073269965499639
1761476021327056100,9.53505615234375,-0.8074895180732011,0.4094434090696275,-0.322510317960754
1761476021337092400,9.54509228515625,-0.8698626798778771,0.3450169679969549,-0.19637436662390828
1761476021347128300,9.55512841796875,-0.6566571515709161,0.4224113194532692,-0.08022394885905086
1761476021357165300,9.565165283203125,-0.599191051030159,0.5019185714103281,-0.08877185084335505
1761476021367201300,9.575201171875,-0.39955169126093387,0.4895232002176344,-0.1956144151020795
1761476021377237200,9.5852373046875,-0.13585574664473532,0.3947181336246431,-0.2976837736096233
1761476021387274200,9.595274169921876,-0.04996960730552673,0.3648813598960638,-0.4335980455085635
1761476021397310200,9.605310302734376,0.1525280645042658,0.48212505279034373,-0.5734295639164746
1761476021407347200,9.61534716796875,0.43663843611776826,0.6839150147221982,-0.6624939679656178
1761476021417383200,9.625383056640626,0.49335810220539567,0.8374769523188471,-0.7229668491069227
1761476021427419100,9.635419189453126,0.2773182272553444,0.8802462728567421,-0.6682705786056816
1761476021437456400,9.645456298828124,0.10099369210004806,0.8460071725159883,-0.6319279301144183
1761476021447492400,9.655492431640624,0.441444959616661,0.7561278718873858,-0.6081073479354381
1761476021457528300,9.6655283203125,0.803936794027686,0.7206754502341151,-0.6998044385757297
1761476021467565300,9.6755654296875,0.8831699052184819,0.7386134041152894,-0.727214204353094
1761476021477601300,9.685601318359375,0.722779436776042,0.7465415667660534,-0.6143577866323292
1761476021487637200,9.69563720703125,0.5285591794461012,0.7443544319853186,-0.5397136106669902
1761476021497674200,9.70567431640625,0.7348971600711345,0.7064334282614291,-0.5391790653988718
1761476021507710200,9.715710205078125,0.9997580568134784,0.6412080918960273,-0.5556345256373286
1761476021517746200,9.72574609375,1.101744851604104,0.6279425137400627,-0.6184612764284014
1761476021527783400,9.735783447265625,1.0791741233557461,0.6154052498586475,-0.6918149741917848
1761476021537819400,9.7458193359375,0.9045768503844738,0.5745442471601069,-0.6759117410086095
1761476021547855400,9.75585546875,0.7506319048196077,0.5417405864499509,-0.6637918988216668
1761476021557892400,9.765892333984375,0.721391781809926,0.565744854632765,-0.6795297853752971
1761476021567928300,9.77592822265625,0.6562263589382171,0.6214909995131194,-0.6644358958136289
1761476021577964300,9.78596435546875,0.6702969698667526,0.6471114707209169,-0.6559709228724241
1761476021588001300,9.796001220703126,0.7987140909433365,0.6333735988780855,-0.6595486352287232
1761476021598037200,9.806037353515626,0.930319194406271,0.5698392843395471,-0.6482357255104929
1761476021608073200,9.8160732421875,0.9477806168168783,0.42290027201399205,-0.6052507163953036
1761476021618110200,9.826110107421876,0.8422498658090829,0.2547656191855669,-0.4934189655471593
1761476021628146200,9.836146240234376,0.7579185546964406,0.19646336008161305,-0.3546808683991432
1761476021638182400,9.846182373046876,0.6999333987176418,0.22558380223438143,-0.29145920000635084
1761476021648219400,9.856219482421874,0.6735983494997024,0.2855751834690571,-0.3286218596436083
1761476021658255400,9.86625537109375,0.508303742402792,0.27392303185909983,-0.3998841380856931
1761476021668291300,9.876291259765624,0.4545645534306764,0.24628771369755267,-0.4220155981339514
1761476021678328300,9.886328369140625,0.4578834687203169,0.17820713403150437,-0.40727534431554374
1761476021688364300,9.8963642578125,0.4913017541974783,0.08329393088892102,-0.39044586313292384
1761476021698401300,9.9064013671875,0.525062569501996,0.03481660796776414,-0.3766767924342304
1761476021708437200,9.916437255859375,0.529141363248229,-0.007955781310051679,-0.37252391053847966
1761476021718473200,9.92647314453125,0.6094318745374679,-0.06419950044900179,-0.3919203926648944
1761476021728510500,9.936510498046875,0.690628394755721,-0.13290566466748713,-0.3538802926059812
1761476021738546400,9.94654638671875,0.6808832458108663,-0.16976298468261955,-0.2614632171280682
1761476021748582400,9.95658251953125,0.6922849297910928,-0.16924100663512945,-0.22267748633362353
1761476021758619400,9.966619384765625,0.6609522184163331,-0.19028642501235007,-0.20997071110419926
1761476021768655400,9.9766552734375,0.5706821649044752,-0.24080928228646514,-0.20657938816547392
1761476021778691300,9.98669140625,0.5789852983474731,-0.26675810866579414,-0.2644181944761425
1761476021788728300,9.996728271484375,0.6472118623554706,-0.26828590275496245,-0.36334377506524324
1761476021798764300,10.006764404296876,0.6501572681576013,-0.26128596086502076,-0.4194615297369659
1761476021808800300,10.01680029296875,0.4984370129048824,-0.29116832730099557,-0.4014401353560388
1761476021818837500,10.02683740234375,0.4613619584858417,-0.3469989355944097,-0.4052268142879009
1761476021828873500,10.03687353515625,0.5629857651829719,-0.349890126991272,-0.3918753114141524
1761476021838909400,10.046909423828126,0.5165010773837566,-0.3420689318463206,-0.3462894721508026
1761476021848946400,10.056946533203124,0.3339385246217251,-0.3681982293590903,-0.21175664467290042
1761476021858982400,10.066982421875,0.21740940973758696,-0.4204137158952653,-0.06087393622286617
1761476021869018400,10.077018310546874,0.1309983697414398,-0.44707448993623256,-0.08037212515808641
1761476021879055400,10.087055419921874,0.19202946928739548,-0.343613384809345,-0.3333162280049175
1761476021889091300,10.09709130859375,0.45882571800649163,0.010644143611192702,-0.7299913409162312
1761476021899127300,10.107127197265624,0.43333354935348034,0.5070546191245318,-1.0610347286183386
1761476021909164300,10.117164306640625,0.07118658285737037,0.9009548604950308,-1.1430690148349851
1761476021919200300,10.1272001953125,-0.38049218600392337,1.002088545587659,-0.9500433741170913
1761476021929236200,10.137236328125,-0.932874139586091,0.7094004613734781,-0.5343613629188388
1761476021939273500,10.1472734375,-1.6772867314994335,0.18954159799441694,-0.06688347883597016
1761476021949309400,10.157309326171875,-2.2685078265637157,-0.151236124997586,0.14262597143203018
1761476021959345400,10.167345458984375,-2.3229110324025153,-0.09130407273471355,0.06329787543416023
1761476021969382400,10.17738232421875,-2.1498405306071042,0.24064883102774617,-0.06360840268805623
1761476021979418400,10.18741845703125,-1.964920016542077,0.6373185371115804,-0.22411416807323692
1761476021989454300,10.197454345703125,-1.4877905800819395,0.905226400334388,-0.31295112004205583
1761476021999491300,10.2074912109375,-0.629763883948326,1.0904634330026806,-0.4299053284704685
1761476022009527300,10.21752734375,-0.17724515713155267,1.0422200649678706,-0.3028948593214154
1761476022019563300,10.227563232421875,-0.0127922615557909,0.7644388963758945,0.0259146318487823
1761476022029600300,10.237600341796876,0.17656944982707498,0.4521434637635946,0.26221505840867754
1761476022039636500,10.247636474609376,0.3683966745406389,0.29828093578517434,0.34066016102693975
1761476022049672400,10.25767236328125,0.3312538155823946,0.31819471978396174,0.3644304012581706
1761476022059709200,10.267709228515624,0.32935587300658226,0.4910450029574334,0.2664600755672902
1761476022069745400,10.277745361328124,0.3095972795695066,0.653948331003636,0.09921163098886608
1761476022079781400,10.287781494140624,0.36296997331678865,0.7094605209976435,-0.1124685143817216
1761476022089818000,10.297818115234374,0.34229426503479476,0.7114609010346233,-0.32450171097368
1761476022099854300,10.307854248046874,0.22296470577716826,0.7055771036930382,-0.5106862536251545
1761476022109890300,10.317890380859374,0.11261457178890705,0.6985445747077464,-0.5944746900327503
1761476022119927000,10.327927001953125,-0.04209492840766906,0.6747850750662386,-0.5959473929338157
1761476022129963500,10.337963623046875,-0.08203706269562244,0.6078806995727122,-0.5779892730474472
1761476022139999500,10.34799951171875,0.0032610476225614546,0.48691900906860824,-0.5541980630934238
1761476022150036200,10.3580361328125,0.08633154501914977,0.40981107333824035,-0.5172266151793301
1761476022160072400,10.368072509765625,0.18736030843257903,0.4052328056372702,-0.4663371165499091
1761476022170108200,10.378108154296875,0.22098376109302043,0.39430297695249317,-0.433578464025259
1761476022180145200,10.388145263671875,0.21835224354565141,0.3399631917387247,-0.39269773371294137
1761476022190181000,10.39818115234375,0.15613690265119076,0.309233853084594,-0.35872386017963287
1761476022200217000,10.408217041015625,0.13085165474712848,0.35167306488528843,-0.4129659571725875
1761476022210254000,10.418254150390625,0.16152385638654232,0.3590837795332074,-0.5451048021860421
1761476022220290000,10.4282900390625,0.22995441853404044,0.3098611912027001,-0.6512169332783669
1761476022230326000,10.438325927734375,0.16937983058393,0.25061551376879215,-0.6745518508322537
1761476022240363000,10.448363037109376,0.030707272952795028,0.23254005111306905,-0.6318298765674233
1761476022250399200,10.458399169921876,-0.03648760991990566,0.3048269964277744,-0.596083732664585
1761476022260435200,10.468435302734376,-0.04373860396146774,0.3857319863535464,-0.6569186520513147
1761476022270472000,10.478471923828126,-0.06385083314180373,0.3998746396049857,-0.7551382032629103
1761476022280508200,10.488508056640624,-0.17934417523741722,0.3691857790917158,-0.778478673774749
1761476022290544000,10.498544189453124,-0.3514917169690132,0.3750650463886559,-0.7653598106130958
1761476022300580900,10.508580810546874,-0.3779395789116621,0.39219592167064543,-0.7868380674496293
1761476022310617000,10.5186171875,-0.25889409729242324,0.393229940893501,-0.8604636409569532
1761476022320653000,10.528653076171874,-0.14235855266749858,0.3768102826207876,-0.9175064015191048
1761476022330690000,10.53868994140625,-0.09344050024151801,0.37058717032223937,-0.910779212155938
1761476022340726000,10.54872607421875,-0.140257780995965,0.3903207754485309,-0.8473159900922328
1761476022350762200,10.55876220703125,-0.20371873803734777,0.4096060522854328,-0.7803449060380458
1761476022360799000,10.568799072265625,-0.1774275279611349,0.40717458735480905,-0.7553704776488244
1761476022370835000,10.5788349609375,-0.06286532923579216,0.35687735553011296,-0.7682954987388104
1761476022380871200,10.58887109375,0.010994272223114967,0.2759692968644202,-0.7694417461644858
1761476022390908000,10.598907958984375,0.14537410109639168,0.22777926645204424,-0.7715809501502663
1761476022400943900,10.60894384765625,0.17851181606650351,0.23388810472115873,-0.8213437828373163
1761476022410980000,10.61897998046875,0.1690010603994131,0.22212124069035052,-0.8311919537652284
1761476022421016800,10.629016845703125,0.11268120728433131,0.19960005067214368,-0.7860553926393389
1761476022431052800,10.639052734375,0.11019698925316333,0.24116247963830828,-0.773066950924322
1761476022441089300,10.64908935546875,0.11267536206543445,0.31877208128049966,-0.8454128598846494
1761476022451126000,10.6591259765625,0.1315004740446806,0.3562869884215295,-0.9246228093955665
1761476022461162000,10.669161865234376,0.23451076666414736,0.34722003099918364,-0.9271684022251516
1761476022471198200,10.6791982421875,0.2230769339799881,0.3548541791394353,-0.8602212835684419
1761476022481235000,10.68923486328125,0.18284370779097078,0.3439775419466197,-0.7998133574221282
1761476022491271000,10.69927099609375,0.24878654477596282,0.3140941525973379,-0.7826102206215262
1761476022501307100,10.70930712890625,0.37947979409098626,0.3051576896868646,-0.7587004257891327
1761476022511343000,10.719343017578124,0.42805999286472796,0.3327176045246422,-0.7240810208939016
1761476022521379800,10.7293798828125,0.41658524364829064,0.37252383747324347,-0.6762833507999777
1761476022531416000,10.739416015625,0.3979202906668186,0.36322190225124357,-0.6453099011916666
1761476022541452000,10.7494521484375,0.5528951638013124,0.377106050696969,-0.6378550551410764
1761476022551489000,10.759489013671875,0.6482073031336069,0.4033811864212155,-0.6859400177437812
1761476022561525000,10.76952490234375,0.5594827254980802,0.38176249820068475,-0.6864689369887114
1761476022571561200,10.779561279296875,0.4302916974395513,0.3249674287892878,-0.6060350351734086
1761476022581598000,10.789597900390625,0.4581301369577646,0.32257410391196606,-0.5329281883105635
1761476022591634000,10.799634033203125,0.5228361256241798,0.391020886541903,-0.49084659430850297
1761476022601670100,10.809670166015625,0.5373042114377021,0.44970805331021546,-0.48263365989960727
1761476022611707000,10.819706787109375,0.4699941777527332,0.4746684531740844,-0.4773357726871967
1761476022621742800,10.829742919921875,0.49222997495830056,0.4257197133488953,-0.4613693015420809
1761476022631779000,10.839779052734375,0.40043548835813997,0.39993119209781286,-0.4898046840401366
1761476022641816000,10.849816162109375,0.29003274739980694,0.38235637244060633,-0.5362811885328963
1761476022651852000,10.85985205078125,0.3377940310060978,0.4095809178441763,-0.5861727256335317
1761476022661888000,10.869887939453125,0.41912849839031696,0.43307241419926285,-0.603380429011397
1761476022671924200,10.87992431640625,0.4222451691061258,0.4509878639876842,-0.5566322314377874
1761476022681961000,10.8899609375,0.3766740890204906,0.44463659526482224,-0.4887098014755174
1761476022691997000,10.899996826171876,0.3252881851762533,0.46953474354743957,-0.440163322308287
1761476022702033200,10.910033203125,0.3038134354710579,0.4913336106404662,-0.3951753758728504
1761476022712070000,10.92006982421875,0.23878011454641818,0.48755014657899737,-0.3272373464826494
1761476022722105900,10.93010595703125,0.13845979166328906,0.4909994102500379,-0.18568322379952296
1761476022732142000,10.94014208984375,0.10696399868130683,0.5023525789134204,-0.10637016097400337
1761476022742179000,10.950178955078124,0.2951969982951879,0.5936863161340356,-0.1789586099859327
1761476022752215000,10.960215087890624,0.11215689114928244,0.6043596858397126,-0.16108071572892366
1761476022762251300,10.970251220703124,-0.430594479778409,0.4342709763340652,-0.08117032633107155
1761476022772287200,10.980287353515624,-0.455510894370079,0.4088319991730153,-0.1598913232812658
1761476022782324000,10.990323974609375,-0.28145547319054603,0.4849252049028873,-0.22074849103242158
1761476022792360200,11.000360107421875,-0.15927052450180051,0.5187416959173977,-0.2373106630483642
1761476022802396200,11.010396240234375,-0.28249241502285,0.532948792707175,-0.18370363082224503
1761476022812433000,11.020432861328125,-0.20453063894212245,0.4859722297377884,-0.20855819569146258
1761476022822469000,11.03046923828125,-0.15979951681196689,0.39251317092627286,-0.24580577539950607
