time,seconds_elapsed,z,y,x
1761476011913008600,0.121008544921875,-0.7934111952781677,-0.2904720902442932,0.03691881522536278
1761476011923044600,0.131044677734375,-0.7814980745315552,-0.30250078439712524,0.07034335285425186
1761476011933081600,0.14108154296875,-0.7629035115242004,-0.30142730474472046,0.09647860378026962
1761476011943117600,0.15111767578125,-0.7390583753585815,-0.2991204857826233,0.10983435809612274
1761476011953153500,0.161153564453125,-0.7221693396568298,-0.29981428384780884,0.11452833563089371
1761476011963189500,0.171189453125,-0.7069791555404663,-0.301410049200058,0.0933133214712143
1761476011973226800,0.181226806640625,-0.6955053210258484,-0.31301912665367126,0.06403382122516632
1761476011983262700,0.1912626953125,-0.6941769123077393,-0.3369694650173187,0.02366536296904087
1761476011993298700,0.201298583984375,-0.699539303779602,-0.3703208267688751,-0.014700861647725105
1761476012003335700,0.211335693359375,-0.7142103910446167,-0.4143652617931366,-0.04606384411454201
1761476012013371600,0.22137158203125,-0.7408736944198608,-0.43922507762908936,-0.06845229119062424
1761476012023407600,0.23140771484375,-0.7704347968101501,-0.44146931171417236,-0.07868042588233948
1761476012033443600,0.241443603515625,-0.7956604957580566,-0.45827439427375793,-0.08235980570316315
1761476012043480600,0.25148046875,-0.8190393447875977,-0.4607447385787964,-0.08176857978105545
1761476012053516500,0.2615166015625,-0.832679808139801,-0.4302612245082855,-0.07297836989164352
1761476012063552500,0.271552490234375,-0.8472110629081726,-0.3744352459907532,-0.07065023481845856
1761476012073589800,0.28158984375,-0.8545688390731812,-0.3244713246822357,-0.07677560299634933
1761476012083625700,0.291625732421875,-0.8520625829696655,-0.3036520779132843,-0.0864252969622612
1761476012093661700,0.30166162109375,-0.8474839925765991,-0.30833256244659424,-0.10137569904327393
1761476012103697700,0.31169775390625,-0.8350419998168945,-0.32024967670440674,-0.10526205599308014
1761476012113734700,0.321734619140625,-0.8252770900726318,-0.31500720977783203,-0.11042969673871994
1761476012123770600,0.3317705078125,-0.8141453266143799,-0.29940640926361084,-0.1126457154750824
1761476012133806600,0.341806640625,-0.8073751926422119,-0.3024727702140808,-0.1126861423254013
1761476012143843600,0.351843505859375,-0.8044766187667847,-0.31416165828704834,-0.10867010056972504
1761476012153879600,0.361879638671875,-0.8017445802688599,-0.31491008400917053,-0.10266531258821487
1761476012163916000,0.371916015625,-0.7934491038322449,-0.300261914730072,-0.0937674269080162
1761476012173953000,0.381953125,-0.7854840755462646,-0.27035796642303467,-0.08695723116397858
1761476012183989000,0.391989013671875,-0.7765409350395203,-0.24184884130954742,-0.0798034518957138
1761476012194025200,0.402025146484375,-0.7668350338935852,-0.21473811566829681,-0.07826009392738342
1761476012204061200,0.412061279296875,-0.7636853456497192,-0.18259002268314362,-0.07800709456205368
1761476012214098200,0.42209814453125,-0.7630061507225037,-0.1368180513381958,-0.08570131659507751
1761476012224134100,0.432134033203125,-0.7546728849411011,-0.10716935992240906,-0.0965409129858017
1761476012234170000,0.442170166015625,-0.7389872074127197,-0.10279227793216705,-0.11468861252069473
1761476012244207000,0.45220703125,-0.717750608921051,-0.11743886023759842,-0.13256853818893433
1761476012254243000,0.4622431640625,-0.6877825260162354,-0.14956195652484894,-0.14717607200145721
1761476012264279000,0.472279052734375,-0.6638486981391907,-0.19470520317554474,-0.15146295726299286
1761476012274315000,0.48231494140625,-0.6510535478591919,-0.2150534689426422,-0.15184727311134338
1761476012284352000,0.49235205078125,-0.6530681848526001,-0.2073444128036499,-0.1462317258119583
1761476012294388000,0.502387939453125,-0.6638050079345703,-0.20356325805187225,-0.1504838615655899
1761476012304424000,0.512423828125,-0.6821933388710022,-0.2378471940755844,-0.1766747236251831
1761476012314461200,0.522461181640625,-0.6940215229988098,-0.36105433106422424,-0.21633918583393097
1761476012324497200,0.5324970703125,-0.6888324022293091,-0.5033936500549316,-0.24278411269187927
1761476012334533000,0.542533203125,-0.6701756715774536,-0.591592013835907,-0.23836083710193634
1761476012344569000,0.552569091796875,-0.6358259320259094,-0.6482023000717163,-0.20260417461395264
1761476012354606000,0.562606201171875,-0.6110115647315979,-0.6240001320838928,-0.14290425181388855
1761476012364642000,0.57264208984375,-0.598666250705719,-0.5469220876693726,-0.09909125417470932
1761476012374678000,0.582677978515625,-0.5942552089691162,-0.47432541847229004,-0.08281271159648895
1761476012384715000,0.592715087890625,-0.5750189423561096,-0.42159295082092285,-0.10182475298643112
1761476012394751000,0.6027509765625,-0.5396532416343689,-0.4160337448120117,-0.15547721087932587
1761476012404787000,0.612786865234375,-0.47635653614997864,-0.43646764755249023,-0.21532216668128967
1761476012414823200,0.6228232421875,-0.386720210313797,-0.4412744641304016,-0.2500857710838318
1761476012424860200,0.632860107421875,-0.29356229305267334,-0.40773460268974304,-0.2370605170726776
1761476012434896100,0.642896240234375,-0.2161864936351776,-0.32517969608306885,-0.18864642083644867
1761476012444932000,0.65293212890625,-0.15057845413684845,-0.17227724194526672,-0.12382560968399048
1761476012454969000,0.662968994140625,-0.09462920576334,0.038232993334531784,-0.05839522182941437
1761476012465005000,0.673005126953125,-0.038725461810827255,0.23436522483825684,0.00137277040630579
1761476012475041000,0.683041015625,0.02306346222758293,0.34274181723594666,0.052572235465049744
1761476012485077200,0.6930771484375,0.09160816669464111,0.35830801725387573,0.10673107951879501
1761476012495114000,0.703114013671875,0.1561678647994995,0.2852621078491211,0.16514618694782257
1761476012505150000,0.71314990234375,0.2091306746006012,0.18119028210639954,0.2364904135465622
1761476012515186200,0.723186279296875,0.24059265851974487,0.06860344856977463,0.32264164090156555
1761476012525223200,0.73322314453125,0.24521777033805847,-0.04972505569458008,0.407644659280777
1761476012535259100,0.743259033203125,0.21439619362354279,-0.16651490330696106,0.47482582926750183
1761476012545295400,0.75329541015625,0.16327975690364838,-0.3076730966567993,0.49005433917045593
1761476012555331300,0.763331298828125,0.08524849265813828,-0.4691905677318573,0.46178776025772095
1761476012565368000,0.7733681640625,0.007045034319162369,-0.5709882974624634,0.40547308325767517
1761476012575404300,0.783404296875,-0.054196231067180634,-0.6094651222229004,0.33209219574928284
1761476012585440300,0.793440185546875,-0.10536114871501923,-0.6249293088912964,0.24182197451591492
1761476012595477000,0.80347705078125,-0.15350760519504547,-0.6152439117431641,0.1357516646385193
1761476012605513200,0.81351318359375,-0.20797429978847504,-0.5837674736976624,0.020894058048725128
1761476012615549200,0.823549072265625,-0.26832106709480286,-0.5392796397209167,-0.09056426584720612
1761476012625586200,0.833586181640625,-0.34164801239967346,-0.4918324947357178,-0.1766485571861267
1761476012635622100,0.8436220703125,-0.4140561819076538,-0.4361400604248047,-0.2187408208847046
1761476012645658400,0.853658447265625,-0.4825825095176697,-0.35897204279899597,-0.21572904288768768
1761476012655694300,0.8636943359375,-0.532321035861969,-0.2726151943206787,-0.17444688081741333
1761476012665731000,0.87373095703125,-0.5789237022399902,-0.16401629149913788,-0.11390817910432816
1761476012675767300,0.883767333984375,-0.6149271130561829,-0.07123897224664688,-0.0626215860247612
1761476012685803300,0.89380322265625,-0.6495513916015625,-0.017682012170553207,-0.04064571484923363
1761476012695840000,0.903840087890625,-0.6687031388282776,0.0071709491312503815,-0.04932689294219017
1761476012705876200,0.913876220703125,-0.6773538589477539,0.006114473100751638,-0.07879050821065903
1761476012715912200,0.923912109375,-0.6715935468673706,-0.03006558306515217,-0.11652740836143494
1761476012725948200,0.9339482421875,-0.6546342968940735,-0.06888008862733841,-0.1444418728351593
1761476012735985200,0.943985107421875,-0.6179750561714172,-0.11205219477415085,-0.15790994465351105
1761476012746021400,0.954021484375,-0.5625855922698975,-0.14796999096870422,-0.15507128834724426
1761476012756057300,0.964057373046875,-0.4998469352722168,-0.15995988249778748,-0.13438183069229126
1761476012766094000,0.974093994140625,-0.4417218267917633,-0.15710709989070892,-0.09945367276668549
1761476012776130300,0.98413037109375,-0.39053773880004883,-0.14747072756290436,-0.05097668617963791
1761476012786166300,0.994166259765625,-0.35722532868385315,-0.1366574913263321,0.00765973050147295
1761476012796203300,1.004203369140625,-0.33310067653656006,-0.11951267719268799,0.06730502098798752
1761476012806239200,1.0142392578125,-0.32075637578964233,-0.1217702329158783,0.12301222234964371
1761476012816275200,1.024275146484375,-0.315341055393219,-0.13110384345054626,0.17099569737911224
1761476012826311200,1.034311279296875,-0.31196150183677673,-0.15185466408729553,0.20973217487335205
1761476012836348200,1.04434814453125,-0.3070889115333557,-0.1904716044664383,0.2303420901298523
1761476012846384000,1.054384033203125,-0.2927911877632141,-0.22241568565368652,0.22573216259479523
1761476012856420400,1.06442041015625,-0.2767481803894043,-0.22224117815494537,0.21389633417129517
1761476012866457300,1.074457275390625,-0.2539624571800232,-0.19692596793174744,0.20052193105220795
1761476012876493300,1.084493408203125,-0.23736731708049774,-0.1692528873682022,0.18800078332424164
1761476012886529300,1.094529296875,-0.23372037708759308,-0.1344965100288391,0.19830907881259918
1761476012896565200,1.104565185546875,-0.24519450962543488,-0.05721322447061539,0.2203999161720276
1761476012906602200,1.114602294921875,-0.26965752243995667,0.02394873835146427,0.24271267652511597
1761476012916638200,1.12463818359375,-0.3070950508117676,0.08415493369102478,0.25168970227241516
1761476012926674200,1.134674072265625,-0.3437547981739044,0.10640645027160645,0.25553449988365173
1761476012936711200,1.144711181640625,-0.369669646024704,0.09776293486356735,0.24246129393577576
1761476012946747100,1.1547470703125,-0.38229167461395264,0.05359760299324989,0.22112300992012024
1761476012956783000,1.164783203125,-0.38697874546051025,0.006887843832373619,0.19994772970676422
1761476012966819000,1.174819091796875,-0.379375696182251,-0.03677548095583916,0.1767590492963791
1761476012976856300,1.184856201171875,-0.3753691613674164,-0.07437602430582047,0.15634968876838684
1761476012986892300,1.194892333984375,-0.37586504220962524,-0.1051776111125946,0.13649316132068634
1761476012996928300,1.20492822265625,-0.3897830843925476,-0.12471412122249603,0.11778512597084045
1761476013006965200,1.21496533203125,-0.4236457347869873,-0.15537242591381073,0.09998509287834167
1761476013017001200,1.225001220703125,-0.4799942672252655,-0.1955827921628952,0.09940022975206375
1761476013027037200,1.235037109375,-0.544253408908844,-0.18782447278499603,0.11956088989973068
1761476013037074200,1.24507421875,-0.6073830723762512,-0.15828603506088257,0.14663147926330566
1761476013047110100,1.255110107421875,-0.6558893918991089,-0.14693164825439453,0.16239818930625916
1761476013057146000,1.26514599609375,-0.6805335283279419,-0.1767069697380066,0.16000986099243164
1761476013067182000,1.27518212890625,-0.6883493661880493,-0.2232302576303482,0.1310168206691742
1761476013077219300,1.28521923828125,-0.6785880923271179,-0.2710634171962738,0.0844598188996315
1761476013087255300,1.29525537109375,-0.6655101180076599,-0.30271294713020325,0.030204569920897484
1761476013097291300,1.305291259765625,-0.6571217775344849,-0.3238842487335205,-0.029302218928933144
1761476013107328300,1.315328369140625,-0.6456009745597839,-0.32617881894111633,-0.0731186717748642
1761476013117364200,1.3253642578125,-0.6389957666397095,-0.2840031385421753,-0.0971398800611496
1761476013127400200,1.335400146484375,-0.627373456954956,-0.2060084491968155,-0.11275266110897064
1761476013137436200,1.345436279296875,-0.6125599145889282,-0.15256933867931366,-0.12192010134458542
1761476013147473200,1.35547314453125,-0.5877006649971008,-0.126914843916893,-0.11536073684692383
1761476013157509000,1.365509033203125,-0.5587933659553528,-0.10016872733831406,-0.0999831110239029
1761476013167545300,1.37554541015625,-0.5248854756355286,-0.06980389356613159,-0.0789065882563591
1761476013177582300,1.385582275390625,-0.4877404272556305,-0.06206198409199715,-0.06651174277067184
1761476013187618300,1.395618408203125,-0.45467329025268555,-0.072923943400383,-0.06238517537713051
1761476013197654300,1.405654296875,-0.4219934642314911,-0.09988320618867874,-0.07437577098608017
1761476013207691300,1.415691162109375,-0.3982372581958771,-0.11302563548088074,-0.10090005397796631
1761476013217727200,1.425727294921875,-0.3764727711677551,-0.11208772659301758,-0.13955193758010864
1761476013227763200,1.43576318359375,-0.3621707856655121,-0.1121913269162178,-0.18631145358085632
1761476013237799200,1.445799072265625,-0.34748613834381104,-0.10776565968990326,-0.23172222077846527
1761476013247836400,1.45583642578125,-0.3275478482246399,-0.09693937748670578,-0.26752498745918274
1761476013257872400,1.465872314453125,-0.30315837264060974,-0.08525076508522034,-0.28252071142196655
1761476013267908400,1.475908447265625,-0.275529146194458,-0.054193247109651566,-0.28456148505210876
1761476013277945300,1.4859453125,-0.2490069717168808,-0.015453318133950233,-0.27570053935050964
1761476013287981300,1.495981201171875,-0.22537700831890106,0.03541785478591919,-0.26215943694114685
1761476013298017300,1.506017333984375,-0.2117716372013092,0.09901849925518036,-0.2432541400194168
1761476013308053200,1.51605322265625,-0.19989927113056183,0.18575285375118256,-0.2261449247598648
1761476013318090200,1.52609033203125,-0.1810203641653061,0.2712942361831665,-0.20646482706069946
1761476013328126200,1.536126220703125,-0.15347501635551453,0.32126444578170776,-0.19186615943908691
1761476013338162200,1.546162109375,-0.10627547651529312,0.3211166262626648,-0.1808987706899643
1761476013348199400,1.556199462890625,-0.04902949929237366,0.268421471118927,-0.17182990908622742
1761476013358235400,1.5662353515625,0.004168707877397537,0.19355563819408417,-0.15229758620262146
1761476013368271400,1.576271240234375,0.06416679918766022,0.1432192325592041,-0.12018118053674698
1761476013378307300,1.586307373046875,0.11912823468446732,0.13251641392707825,-0.07923578470945358
1761476013388344300,1.59634423828125,0.17020872235298157,0.12743644416332245,-0.03463982045650482
1761476013398380300,1.60638037109375,0.20752373337745667,0.12200780212879181,0.001261584460735321
1761476013408416300,1.616416259765625,0.2156309336423874,0.10194700956344604,0.01955270767211914
1761476013418453200,1.626453369140625,0.20547795295715332,0.062471721321344376,0.020722469314932823
1761476013428489200,1.6364892578125,0.18119552731513977,0.021625755354762077,0.01919674687087536
1761476013438525200,1.646525146484375,0.16197319328784943,0.014044887386262417,0.016869790852069855
1761476013448561200,1.65656103515625,0.150741845369339,0.025662127882242203,0.020431770011782646
1761476013458598400,1.666598388671875,0.15801212191581726,0.028025217354297638,0.026208490133285522
1761476013468634400,1.67663427734375,0.16267265379428864,0.031435128301382065,0.02643992006778717
1761476013478670300,1.68667041015625,0.1634013056755066,0.029293157160282135,0.01871342584490776
1761476013488707300,1.696707275390625,0.16389691829681396,0.02197958342730999,0.002537917345762253
1761476013498743300,1.706743408203125,0.16994020342826843,0.0030343784019351006,-0.01485510915517807
1761476013508779300,1.716779296875,0.178586944937706,-0.01219464186578989,-0.030994664877653122
1761476013518815200,1.726815185546875,0.19343262910842896,-0.022416740655899048,-0.037318989634513855
1761476013528852200,1.736852294921875,0.20327673852443695,-0.04400938004255295,-0.02452942356467247
1761476013538888200,1.74688818359375,0.20288990437984467,-0.04046690836548805,0.007584298029541969
1761476013548924200,1.756924072265625,0.19224151968955994,0.0261030625551939,0.05604024976491928
1761476013558961400,1.76696142578125,0.16389180719852448,0.1213405579328537,0.1041308268904686
1761476013568997400,1.776997314453125,0.12443654984235764,0.23122018575668335,0.12806172668933868
1761476013579033300,1.787033447265625,0.06774210929870605,0.349226176738739,0.12967653572559357
1761476013589069300,1.7970693359375,0.007506730034947395,0.4303910732269287,0.08908570557832718
1761476013599106300,1.807106201171875,-0.030696455389261246,0.43068182468414307,0.01953018829226494
1761476013609142300,1.817142333984375,-0.03152097016572952,0.36966854333877563,-0.053913671523332596
1761476013619178200,1.82717822265625,0.0015728529542684555,0.31325504183769226,-0.11064257472753525
1761476013629215200,1.83721533203125,0.03465224429965019,0.2941141128540039,-0.13253241777420044
1761476013639251200,1.847251220703125,0.04016975685954094,0.30562177300453186,-0.1221046969294548
1761476013649287200,1.857287109375,0.006976384669542313,0.3041471838951111,-0.10417576879262924
1761476013659323100,1.8673232421875,-0.042287666350603104,0.26149046421051025,-0.0818476676940918
1761476013669360400,1.8773603515625,-0.0788147822022438,0.18901465833187103,-0.06190059334039688
1761476013679396400,1.887396240234375,-0.09275725483894348,0.090314581990242,-0.05643819645047188
1761476013689432300,1.897432373046875,-0.07552580535411835,-0.028036562725901604,-0.05550369247794151
1761476013699468300,1.90746826171875,-0.03687728941440582,-0.14152486622333527,-0.05622411519289017
1761476013709505300,1.91750537109375,0.009518707171082497,-0.21279184520244598,-0.0457184761762619
1761476013719541200,1.927541259765625,0.03916511684656143,-0.22275546193122864,-0.020481714978814125
1761476013729577200,1.9375771484375,0.042718306183815,-0.18450208008289337,0.036386359483003616
1761476013739613200,1.94761328125,0.011907628737390041,-0.10067415237426758,0.10529031604528427
1761476013749650200,1.957650146484375,-0.045139942318201065,0.013667602092027664,0.18388712406158447
1761476013759686100,1.96768603515625,-0.11116857081651688,0.13737346231937408,0.2548869550228119
1761476013769722000,1.97772216796875,-0.1769678294658661,0.2660081684589386,0.30585479736328125
1761476013779759000,1.987759033203125,-0.23805615305900574,0.3593258559703827,0.31615912914276123
1761476013789795300,1.99779541015625,-0.27516862750053406,0.40215879678726196,0.28386563062667847
1761476013799831300,2.007831298828125,-0.2914215326309204,0.4124099016189575,0.22225792706012726
1761476013809867300,2.0178671875,-0.2870406210422516,0.38978394865989685,0.15005269646644592
1761476013819904300,2.027904296875,-0.2814660668373108,0.3413557708263397,0.07864505052566528
1761476013829940200,2.037940185546875,-0.2685662508010864,0.28778496384620667,0.009627100080251694
1761476013839976200,2.04797607421875,-0.25466015934944153,0.2436692714691162,-0.03856247290968895
1761476013850013200,2.05801318359375,-0.23034150898456573,0.18292737007141113,-0.07728510349988937
1761476013860049200,2.068049072265625,-0.19042600691318512,0.1419062614440918,-0.09151028096675873
1761476013870085000,2.078085205078125,-0.130808487534523,0.12663382291793823,-0.08974914252758026
1761476013880121300,2.088121337890625,-0.061787355691194534,0.142577663064003,-0.06060770899057388
1761476013890158000,2.098157958984375,0.00837575364857912,0.1720908135175705,-0.015288962982594967
1761476013900194000,2.108194091796875,0.07210744917392731,0.19224953651428223,0.03385221213102341
1761476013910230300,2.118230224609375,0.1283123940229416,0.1871301531791687,0.08489702641963959
1761476013920266500,2.1282666015625,0.1837150752544403,0.19184812903404236,0.12831248342990875
1761476013930303200,2.13830322265625,0.23435615003108978,0.19343137741088867,0.16078440845012665
1761476013940339200,2.148339111328125,0.28813236951828003,0.1823444664478302,0.1748182326555252
1761476013950375400,2.15837548828125,0.33104389905929565,0.1622897982597351,0.16843250393867493
1761476013960412200,2.168412109375,0.3620043992996216,0.13837170600891113,0.14939872920513153
1761476013970448100,2.1784482421875,0.3841792345046997,0.094652459025383,0.11307081580162048
1761476013980484400,2.188484375,0.3957950174808502,0.03917102888226509,0.09197372943162918
1761476013990520300,2.198520263671875,0.4012491703033447,0.01103073637932539,0.08764422684907913
1761476014000557300,2.208557373046875,0.403281569480896,0.020346663892269135,0.09641116112470627
1761476014010593300,2.21859326171875,0.40646085143089294,0.03372478857636452,0.1051734983921051
1761476014020629200,2.228629150390625,0.41329425573349,0.017428256571292877,0.10480955988168716
1761476014030666200,2.238666259765625,0.43001917004585266,-0.029413018375635147,0.0923992320895195
1761476014040702500,2.248702392578125,0.4486846923828125,-0.08451191335916519,0.07710093259811401
1761476014050738400,2.258738525390625,0.4614100754261017,-0.12030532956123352,0.0726553201675415
1761476014060774400,2.2687744140625,0.4632260799407959,-0.12049643695354462,0.09389764070510864
1761476014070811400,2.278811279296875,0.45053374767303467,-0.09606459736824036,0.13524243235588074
1761476014080847400,2.288847412109375,0.41874125599861145,-0.0450470969080925,0.19150212407112122
1761476014090883300,2.29888330078125,0.3793027698993683,0.01940113492310047,0.23949842154979706
1761476014100919300,2.308919189453125,0.334250807762146,0.07575975358486176,0.26842954754829407
1761476014110956300,2.318956298828125,0.29319682717323303,0.1199040412902832,0.28305935859680176
1761476014120992300,2.3289921875,0.24744616448879242,0.16142034530639648,0.27906137704849243
1761476014131028200,2.3390283203125,0.20008184015750885,0.20307272672653198,0.2750389575958252
1761476014141064400,2.349064453125,0.1590442955493927,0.20626278221607208,0.27028223872184753
1761476014151101400,2.359101318359375,0.1219153106212616,0.16937294602394104,0.2648576498031616
1761476014161137000,2.369136962890625,0.09602785110473633,0.09001248329877853,0.25303715467453003
1761476014171172900,2.3791728515625,0.07557930052280426,-0.00047534285113215446,0.2433144748210907
1761476014181209900,2.3892099609375,0.05887250602245331,-0.034867171198129654,0.22738315165042877
1761476014191245800,2.399245849609375,0.03999655321240425,-0.02021312713623047,0.1891590654850006
1761476014201282000,2.409281982421875,0.0231516994535923,-0.025891993194818497,0.11357569694519043
1761476014211318000,2.419318115234375,0.006165260449051857,-0.06288249790668488,0.010481542907655239
1761476014221355000,2.42935498046875,0.019458889961242676,-0.1266285479068756,-0.10122398287057877
1761476014231391000,2.439390869140625,0.05360966920852661,-0.22953015565872192,-0.20161743462085724
1761476014241427000,2.449427001953125,0.09925121068954468,-0.326687216758728,-0.2780660092830658
1761476014251463000,2.459462890625,0.1448461264371872,-0.3704243302345276,-0.3130631446838379
1761476014261500000,2.4695,0.17166940867900848,-0.4008823037147522,-0.31588858366012573
1761476014271535900,2.479535888671875,0.18260835111141205,-0.40010973811149597,-0.2950104773044586
1761476014281571800,2.48957177734375,0.1746835857629776,-0.3806490898132324,-0.25081390142440796
1761476014291607800,2.49960791015625,0.14885252714157104,-0.3201116919517517,-0.18248251080513
1761476014301644800,2.509644775390625,0.11058700084686279,-0.2038983255624771,-0.09972279518842697
1761476014311680800,2.5196806640625,0.07195092737674713,-0.10338611155748367,-0.03194588050246239
1761476014321717000,2.529717041015625,0.04529821127653122,-0.04570440948009491,0.007989585399627686
1761476014331754000,2.53975390625,0.03791672736406326,-0.029503600671887398,0.012057032436132431
1761476014341790000,2.5497900390625,0.048748213797807693,-0.04717893525958061,-0.015637444332242012
1761476014351826000,2.559825927734375,0.07611486315727234,-0.08429327607154846,-0.06411655992269516
1761476014361862000,2.56986181640625,0.10269545018672943,-0.13781702518463135,-0.11888100951910019
1761476014371899000,2.57989892578125,0.11608955264091492,-0.17165008187294006,-0.1728648841381073
1761476014381934800,2.589934814453125,0.12247046828269958,-0.18895141780376434,-0.21211469173431396
1761476014391970800,2.599970703125,0.11319653689861298,-0.20251889526844025,-0.23226630687713623
1761476014402006800,2.6100068359375,0.09861268103122711,-0.1867581307888031,-0.22399072349071503
1761476014412043800,2.620043701171875,0.08812010288238525,-0.1581009179353714,-0.19175022840499878
1761476014422079700,2.630079833984375,0.08672048151493073,-0.15297508239746094,-0.15218590199947357
1761476014432115700,2.64011572265625,0.09695474058389664,-0.19015254080295563,-0.11375489085912704
1761476014442152000,2.65015185546875,0.11758806556463242,-0.23079168796539307,-0.08277882635593414
1761476014452189000,2.66018896484375,0.14188382029533386,-0.27153298258781433,-0.056492358446121216
1761476014462225000,2.670224853515625,0.15958081185817719,-0.2925322949886322,-0.03989199548959732
1761476014472260900,2.6802607421875,0.16194570064544678,-0.29915106296539307,-0.022304482758045197
1761476014482297900,2.6902978515625,0.14215712249279022,-0.28978073596954346,-0.006150467786937952
1761476014492333800,2.700333740234375,0.10962207615375519,-0.2924652099609375,0.0016406094655394554
1761476014502369800,2.710369873046875,0.0713030993938446,-0.2960483133792877,0.01562456600368023
1761476014512405800,2.72040576171875,0.018787967041134834,-0.27983418107032776,0.03278730809688568
1761476014522442800,2.73044287109375,-0.042883992195129395,-0.23967261612415314,0.04459632933139801
1761476014532478700,2.740478759765625,-0.11843787878751755,-0.2016834318637848,0.04795191064476967
1761476014542514700,2.7505146484375,-0.20506231486797333,-0.17776766419410706,0.028633106499910355
1761476014552551000,2.760551025390625,-0.2826676368713379,-0.16882744431495667,-0.011853600852191448
1761476014562588000,2.770587890625,-0.35054928064346313,-0.16863523423671722,-0.0633784830570221
1761476014572624000,2.780623779296875,-0.39580410718917847,-0.18077445030212402,-0.11259929090738297
1761476014582659800,2.790659912109375,-0.41611558198928833,-0.20335228741168976,-0.15612052381038666
1761476014592696000,2.800696044921875,-0.4304708242416382,-0.23044942319393158,-0.18529865145683289
1761476014602732800,2.81073291015625,-0.44076889753341675,-0.2584833800792694,-0.199935644865036
1761476014612768800,2.820768798828125,-0.451550155878067,-0.2659015953540802,-0.19699977338314056
1761476014622805000,2.830804931640625,-0.47596049308776855,-0.24835270643234253,-0.18485651910305023
1761476014632841000,2.840841064453125,-0.49273601174354553,-0.23201313614845276,-0.1642947942018509
1761476014642877700,2.850877685546875,-0.49349382519721985,-0.2027374505996704,-0.1473345160484314
1761476014652914000,2.860913818359375,-0.47977694869041443,-0.18314485251903534,-0.12723404169082642
1761476014662950000,2.870949951171875,-0.45602795481681824,-0.17559927701950073,-0.10949575155973434
1761476014672986000,2.880986083984375,-0.4311862587928772,-0.1535419076681137,-0.08019085973501205
1761476014683022800,2.89102294921875,-0.41751065850257874,-0.09668612480163574,-0.05056643858551979
1761476014693059000,2.90105908203125,-0.4304642677307129,-0.017424326390028,-0.03545086830854416
1761476014703095000,2.911094970703125,-0.45764636993408203,0.018149003386497498,-0.048545513302087784
1761476014713132000,2.921132080078125,-0.47761449217796326,-0.03259726241230965,-0.09123172610998154
1761476014723168000,2.93116796875,-0.47779837250709534,-0.12641172111034393,-0.14113423228263855
1761476014733204000,2.941203857421875,-0.4605378806591034,-0.19155849516391754,-0.17987923324108124
1761476014743240000,2.951239990234375,-0.4503834843635559,-0.2268666923046112,-0.20898005366325378
1761476014753277000,2.96127685546875,-0.4917343854904175,-0.24580974876880646,-0.23184248805046082
1761476014763313000,2.97131298828125,-0.5954098105430603,-0.26236018538475037,-0.2716411054134369
1761476014773348900,2.981348876953125,-0.7269164323806763,-0.3056144416332245,-0.3320288062095642
1761476014783384800,2.991384765625,-0.8450886607170105,-0.3579774796962738,-0.4111139178276062
1761476014793422000,3.001422119140625,-0.9098806977272034,-0.3861933946609497,-0.49754947423934937
1761476014803458000,3.0114580078125,-0.9093465805053711,-0.37155449390411377,-0.576804518699646
1761476014813494000,3.021493896484375,-0.8693187236785889,-0.2982341945171356,-0.6303170323371887
1761476014823530000,3.031530029296875,-0.8175103068351746,-0.12426802515983582,-0.646082878112793
1761476014833567000,3.04156689453125,-0.7640262842178345,0.10140158236026764,-0.6203029155731201
1761476014843603000,3.05160302734375,-0.6974272727966309,0.28660470247268677,-0.5578429698944092
1761476014853639000,3.061638916015625,-0.6023404598236084,0.4176809787750244,-0.4689599275588989
1761476014863675000,3.0716748046875,-0.4678877294063568,0.46857136487960815,-0.3665763735771179
1761476014873711900,3.0817119140625,-0.302933931350708,0.4307081401348114,-0.2553102970123291
1761476014883747800,3.091747802734375,-0.12984880805015564,0.30614325404167175,-0.15116570889949799
1761476014893783800,3.10178369140625,0.03542323410511017,0.17703479528427124,-0.04775489866733551
1761476014903819800,3.11181982421875,0.17360416054725647,0.04675927013158798,0.0512029193341732
1761476014913857000,3.12185693359375,0.26704755425453186,-0.09969274699687958,0.15676182508468628
1761476014923893000,3.13189306640625,0.3009921610355377,-0.2193252444267273,0.24579302966594696
1761476014933929000,3.141928955078125,0.27844318747520447,-0.2801430821418762,0.3142263889312744
1761476014943965000,3.15196484375,0.2118847519159317,-0.30539825558662415,0.3529461622238159
1761476014954002000,3.162001953125,0.11770603805780411,-0.2825097441673279,0.36171168088912964
1761476014964038000,3.172037841796875,0.013878501951694489,-0.2303132563829422,0.3234393298625946
1761476014974073900,3.182073974609375,-0.0747765302658081,-0.1609746664762497,0.2626843750476837
1761476014984109800,3.19210986328125,-0.14917634427547455,-0.09957365691661835,0.18628346920013428
1761476014994146800,3.202146728515625,-0.20340496301651,-0.02191960997879505,0.11127687245607376
1761476015004182800,3.212182861328125,-0.24272970855236053,0.06164581701159477,0.032249655574560165
1761476015014218800,3.22221875,-0.2756626009941101,0.1219128891825676,-0.038876451551914215
1761476015024254700,3.232254638671875,-0.29502201080322266,0.1492099016904831,-0.1070367693901062
1761476015034292000,3.2422919921875,-0.2941402196884155,0.1449083685874939,-0.15794521570205688
1761476015044328000,3.252327880859375,-0.26450198888778687,0.1024061068892479,-0.19305410981178284
1761476015054364000,3.262364013671875,-0.21395254135131836,0.024115297943353653,-0.20217810571193695
1761476015064400000,3.27239990234375,-0.14849233627319336,-0.058513227850198746,-0.18079660832881927
1761476015074436900,3.282436767578125,-0.07247185707092285,-0.15674418210983276,-0.1346975564956665
1761476015084472800,3.292472900390625,-0.007619092240929604,-0.22967690229415894,-0.06082524359226227
1761476015094508800,3.3025087890625,0.0387934148311615,-0.25192734599113464,0.018910065293312073
1761476015104545800,3.3125458984375,0.05603128299117088,-0.24247391521930695,0.08820666372776031
1761476015114581800,3.322581787109375,0.05099178105592728,-0.21439382433891296,0.13773372769355774
1761476015124617700,3.33261767578125,0.03308708220720291,-0.1696132868528366,0.15414825081825256
1761476015134653700,3.34265380859375,0.0035233311355113983,-0.12335123866796494,0.14910954236984253
1761476015144691000,3.35269091796875,-0.03161981329321861,-0.07709343731403351,0.12823837995529175
1761476015154727000,3.362726806640625,-0.06762069463729858,-0.04959550127387047,0.09028515219688416
1761476015164766000,3.372765869140625,-0.1041954830288887,-0.02420930191874504,0.0450986884534359
1761476015174802200,3.38280224609375,-0.13980993628501892,-0.020551450550556183,0.0022404389455914497
1761476015184839000,3.3928388671875,-0.16810165345668793,-0.026613933965563774,-0.03448862582445145
1761476015194875000,3.402875,-0.18284651637077332,-0.032813768833875656,-0.05070488154888153
1761476015204911000,3.4129111328125,-0.19758687913417816,-0.03342442587018013,-0.06095120310783386
1761476015214947000,3.422947021484375,-0.21611341834068298,-0.029714111238718033,-0.055015016347169876
1761476015224983800,3.43298388671875,-0.2351350486278534,-0.016475919634103775,-0.03881295025348663
1761476015235020000,3.44302001953125,-0.2618955671787262,0.015436472371220589,-0.011445507407188416
1761476015245056300,3.45305615234375,-0.27991417050361633,0.05608369782567024,0.020303800702095032
1761476015255092200,3.46309228515625,-0.28803443908691406,0.08591456711292267,0.054458312690258026
1761476015265129200,3.473129150390625,-0.2838234603404999,0.09050203114748001,0.08698541671037674
1761476015275165200,3.483165283203125,-0.2783440053462982,0.08721382915973663,0.1111069992184639
1761476015285201200,3.493201171875,-0.27211374044418335,0.08232197165489197,0.13211505115032196
1761476015295237000,3.503237060546875,-0.26510295271873474,0.06281324476003647,0.1253998875617981
1761476015305274000,3.513274169921875,-0.25251781940460205,0.02341505140066147,0.1051560565829277
1761476015315310000,3.52331005859375,-0.23685576021671295,-0.02007223665714264,0.07056185603141785
1761476015325346000,3.533345947265625,-0.21515710651874542,-0.04490995034575462,0.040231991559267044
1761476015335383000,3.543383056640625,-0.1970747709274292,-0.080124132335186,0.010948670096695423
1761476015345419000,3.5534189453125,-0.19058457016944885,-0.11196786910295486,-0.004483440890908241
1761476015355455000,3.563455078125,-0.18564361333847046,-0.0997634008526802,-0.006066423375159502
1761476015365491200,3.5734912109375,-0.17439408600330353,-0.07984404265880585,0.0008742716163396835
1761476015375528200,3.583528076171875,-0.15582972764968872,-0.1008012592792511,0.005096713081002235
1761476015385564200,3.593564208984375,-0.13047094643115997,-0.13270947337150574,0.026450015604496002
1761476015395600100,3.60360009765625,-0.10901466012001038,-0.1348799467086792,0.05056919902563095
1761476015405636000,3.613635986328125,-0.09550568461418152,-0.13216184079647064,0.07601821422576904
1761476015415673000,3.623673095703125,-0.09480713307857513,-0.14431384205818176,0.08645594120025635
1761476015425709000,3.633708984375,-0.10609746724367142,-0.1574873924255371,0.09128652513027191
1761476015435745000,3.6437451171875,-0.13111573457717896,-0.16591496765613556,0.07998619973659515
1761476015445781000,3.653781005859375,-0.15988750755786896,-0.15844064950942993,0.06611490249633789
1761476015455818000,3.66381787109375,-0.19686415791511536,-0.14587745070457458,0.04444502666592598
1761476015465854000,3.67385400390625,-0.24073879420757294,-0.14078181982040405,0.030305583029985428
1761476015475890000,3.683889892578125,-0.2861347794532776,-0.1263115406036377,0.016923461109399796
1761476015485926100,3.693926025390625,-0.31997817754745483,-0.11948602646589279,0.0038627469912171364
1761476015495963100,3.703963134765625,-0.3413045108318329,-0.13234935700893402,-0.013338077813386917
1761476015505999000,3.7139990234375,-0.35494595766067505,-0.15712931752204895,-0.04114997759461403
1761476015516035000,3.72403515625,-0.3593255281448364,-0.18430474400520325,-0.06667930632829666
1761476015526072000,3.734072021484375,-0.3621654808521271,-0.19202816486358643,-0.09244776517152786
1761476015536108000,3.74410791015625,-0.3694620132446289,-0.19160738587379456,-0.11029946058988571
1761476015546144000,3.75414404296875,-0.37101614475250244,-0.1925685703754425,-0.1312456578016281
1761476015556180000,3.764179931640625,-0.3705309331417084,-0.19017839431762695,-0.14940094947814941
1761476015566217000,3.774217041015625,-0.3679254949092865,-0.17110008001327515,-0.1605139672756195
1761476015576253000,3.7842529296875,-0.36188438534736633,-0.1518947035074234,-0.16234007477760315
1761476015586289000,3.794288818359375,-0.34901663661003113,-0.14456360042095184,-0.15842397511005402
1761476015596324900,3.804324951171875,-0.33040672540664673,-0.1517173796892166,-0.14342132210731506
1761476015606362000,3.814362060546875,-0.3061411380767822,-0.16157063841819763,-0.11685765534639359
1761476015616398000,3.824398193359375,-0.2869245707988739,-0.1617583930492401,-0.08544247597455978
1761476015626434000,3.83443408203125,-0.26765599846839905,-0.15283259749412537,-0.05366260185837746
1761476015636471000,3.844470947265625,-0.26486873626708984,-0.13308605551719666,-0.024160636588931084
1761476015646507000,3.854507080078125,-0.27548399567604065,-0.09190802276134491,0.0013321740552783012
1761476015656543000,3.86454296875,-0.2950795590877533,-0.021930532529950142,0.01675853505730629
1761476015666579000,3.874578857421875,-0.3167268633842468,0.05225982517004013,0.020078806206583977
1761476015676616000,3.884615966796875,-0.3365146815776825,0.10207745432853699,0.011636054143309593
1761476015686652000,3.89465185546875,-0.34245723485946655,0.12692968547344208,-0.012006758712232113
1761476015696687900,3.90468798828125,-0.34115681052207947,0.1267099678516388,-0.036663636565208435
1761476015706723800,3.914723876953125,-0.3408322334289551,0.11889932304620743,-0.06588365882635117
1761476015716761000,3.924760986328125,-0.342563271522522,0.09820576757192612,-0.0937938541173935
1761476015726797000,3.934797119140625,-0.3470938205718994,0.07177666574716568,-0.11928167939186096
1761476015736833000,3.9448330078125,-0.3545016646385193,0.04510723054409027,-0.1489514261484146
1761476015746870000,3.9548701171875,-0.35513949394226074,0.013292454183101654,-0.17118728160858154
1761476015756906000,3.964906005859375,-0.34162527322769165,-0.0050263660959899426,-0.18221676349639893
1761476015766942000,3.97494189453125,-0.3281773626804352,-0.010755358263850212,-0.18870368599891663
1761476015776978000,3.98497802734375,-0.31939080357551575,-0.0026194010861217976,-0.1856335997581482
1761476015787015000,3.995014892578125,-0.31688013672828674,0.009098043665289879,-0.1732349991798401
1761476015797051000,4.00505078125,-0.3277093470096588,0.050414592027664185,-0.1411958485841751
1761476015807084000,4.015083984375,-0.33928364515304565,0.10976523905992508,-0.10292306542396545
1761476015817120000,4.0251201171875,-0.3440115749835968,0.14570032060146332,-0.07799933850765228
1761476015827157000,4.035156982421875,-0.34712812304496765,0.1551845520734787,-0.0678279846906662
1761476015837193000,4.04519287109375,-0.3357127606868744,0.14831307530403137,-0.07307974249124527
1761476015847229000,4.05522900390625,-0.31182777881622314,0.13190874457359314,-0.09011363983154297
1761476015857266000,4.065265869140625,-0.28728407621383667,0.11120638996362686,-0.1024605929851532
1761476015867302000,4.075302001953125,-0.2661910355091095,0.10193432867527008,-0.11343121528625488
1761476015877337900,4.085337890625,-0.2599027752876282,0.10128531605005264,-0.10834963619709015
1761476015887373800,4.095373779296875,-0.2713221311569214,0.12380339205265045,-0.09222119301557541
1761476015897411000,4.1054111328125,-0.2991470992565155,0.16082772612571716,-0.06671929359436035
1761476015907447000,4.115447021484375,-0.3379254937171936,0.1934947818517685,-0.039427414536476135
1761476015917483000,4.12548291015625,-0.36884695291519165,0.20700713992118835,-0.011432796716690063
1761476015927519000,4.13551904296875,-0.38898372650146484,0.22520507872104645,0.00924321636557579
1761476015937556000,4.145555908203125,-0.39916926622390747,0.23046109080314636,0.028547408059239388
1761476015947592000,4.155592041015625,-0.40250664949417114,0.22718766331672668,0.044881194829940796
1761476015957628000,4.1656279296875,-0.4107848107814789,0.22576099634170532,0.06136483699083328
1761476015967665000,4.175664794921875,-0.429840087890625,0.23777148127555847,0.07897468656301498
1761476015977700900,4.185700927734375,-0.4688892364501953,0.25530627369880676,0.09320129454135895
1761476015987736800,4.19573681640625,-0.5296885371208191,0.25665321946144104,0.09773547202348709
1761476015997773000,4.20577294921875,-0.6072483062744141,0.23484964668750763,0.07753193378448486
1761476016007810000,4.21581005859375,-0.6644115447998047,0.15804095566272736,0.03475011885166168
1761476016017846000,4.225845947265625,-0.6810219287872314,0.036133427172899246,-0.017825206741690636
1761476016027882000,4.235882080078125,-0.6418629884719849,-0.09742336720228195,-0.05879874527454376
1761476016037919000,4.2459189453125,-0.5783615112304688,-0.1995723843574524,-0.0537339448928833
1761476016047955000,4.255954833984375,-0.5439345240592957,-0.2585375905036926,0.0047751301899552345
1761476016057991000,4.265990966796875,-0.5792464017868042,-0.21443137526512146,0.10002761334180832
1761476016068027100,4.276027099609375,-0.6878983378410339,-0.062296949326992035,0.20527423918247223
1761476016078063900,4.28606396484375,-0.8462603092193604,0.14176377654075623,0.2988278865814209
1761476016088099800,4.296099853515625,-1.0131736993789673,0.36535242199897766,0.34794434905052185
1761476016098136000,4.306135986328125,-1.14677894115448,0.5229479074478149,0.3401756286621094
1761476016108173000,4.316173095703125,-1.2218188047409058,0.5809579491615295,0.28076741099357605
1761476016118209000,4.326208984375,-1.2330360412597656,0.5518205761909485,0.18444113433361053
1761476016128245000,4.336244873046875,-1.1901214122772217,0.47090843319892883,0.07956897467374802
1761476016138281200,4.34628125,-1.1229060888290405,0.3607707619667053,-0.013175071217119694
1761476016148318000,4.35631787109375,-1.0523604154586792,0.2693961560726166,-0.07466734945774078
1761476016158354000,4.36635400390625,-0.9945796728134155,0.1992039829492569,-0.10325585305690765
1761476016168386000,4.376385986328125,-0.9551529288291931,0.13678361475467682,-0.09581731259822845
1761476016178423000,4.386423095703125,-0.9217957854270935,0.11429828405380249,-0.05294068530201912
1761476016188459000,4.396458984375,-0.8808947205543518,0.12918566167354584,0.015359973534941673
1761476016198495200,4.4064951171875,-0.8395469784736633,0.15449021756649017,0.08968693017959595
1761476016208532000,4.416531982421875,-0.8049793839454651,0.17777952551841736,0.1504821628332138
1761476016218568200,4.426568115234375,-0.7855910062789917,0.1807851642370224,0.1766703575849533
1761476016228604200,4.436604248046875,-0.778292715549469,0.16786421835422516,0.1712571531534195
1761476016238640000,4.44664013671875,-0.7743885517120361,0.1380983293056488,0.12935523688793182
1761476016248677000,4.456677001953125,-0.7662320733070374,0.0971643403172493,0.05934375524520874
1761476016258713000,4.466713134765625,-0.7419272661209106,0.053809672594070435,-0.01654754765331745
1761476016268749000,4.4767490234375,-0.7177349328994751,0.013550188392400742,-0.0933857336640358
1761476016278786000,4.4867861328125,-0.6914151906967163,-0.016614636406302452,-0.1520434468984604
1761476016288822000,4.496822021484375,-0.6646921038627625,-0.040527500212192535,-0.17926247417926788
1761476016298858000,4.50685791015625,-0.6449743509292603,-0.04743947088718414,-0.17866407334804535
1761476016308894000,4.51689404296875,-0.6296952366828918,-0.04946571961045265,-0.1521894782781601
1761476016318931200,4.52693115234375,-0.6168130040168762,-0.062355417758226395,-0.11931993067264557
1761476016328967200,4.53696728515625,-0.6057960391044617,-0.08645181357860565,-0.08843481540679932
1761476016339003100,4.547003173828125,-0.5901992321014404,-0.115846186876297,-0.06642884761095047
1761476016349040000,4.5570400390625,-0.5733292102813721,-0.16092140972614288,-0.06607042998075485
1761476016359076000,4.567076171875,-0.5549824237823486,-0.2218417525291443,-0.09037870168685913
1761476016369112000,4.577112060546875,-0.5360581874847412,-0.2773163616657257,-0.12738528847694397
1761476016379149000,4.587149169921875,-0.5207404494285583,-0.31187647581100464,-0.1751892864704132
1761476016389189000,4.597189208984375,-0.5025365352630615,-0.33004727959632874,-0.22369283437728882
1761476016399225900,4.607225830078125,-0.47786393761634827,-0.33145982027053833,-0.2620870769023895
1761476016409261800,4.61726171875,-0.4544571340084076,-0.3151063024997711,-0.2819860875606537
1761476016419298000,4.627298095703125,-0.4261871576309204,-0.2726150453090668,-0.28360316157341003
1761476016429335000,4.6373349609375,-0.3896675407886505,-0.22296597063541412,-0.2704346477985382
1761476016439371000,4.64737109375,-0.34820690751075745,-0.17812898755073547,-0.24465258419513702
1761476016449407000,4.657406982421875,-0.30369263887405396,-0.1338031142950058,-0.20755226910114288
1761476016459444000,4.66744384765625,-0.24753615260124207,-0.11531703919172287,-0.16593638062477112
1761476016469480000,4.67747998046875,-0.1822589933872223,-0.1348574012517929,-0.12582282721996307
1761476016479516000,4.687515869140625,-0.1136905699968338,-0.15432165563106537,-0.08429349213838577
1761476016489552100,4.69755224609375,-0.04441436380147934,-0.17499493062496185,-0.05478417128324509
1761476016499588900,4.7075888671875,0.011049161665141582,-0.20814383029937744,-0.03254890441894531
1761476016509624800,4.717624755859375,0.05949487164616585,-0.23752495646476746,-0.03038288652896881
1761476016519661000,4.7276611328125,0.10081008076667786,-0.24893155694007874,-0.037087924778461456
1761476016529698000,4.737697998046875,0.13754282891750336,-0.24909602105617523,-0.053803566843271255
1761476016539734000,4.747734130859375,0.17686094343662262,-0.24325333535671234,-0.07225900888442993
1761476016549770200,4.757770263671875,0.21030780673027039,-0.23148545622825623,-0.07986441999673843
1761476016559806200,4.76780615234375,0.23356465995311737,-0.21966686844825745,-0.08404532074928284
1761476016569843000,4.777843017578125,0.24587231874465942,-0.2336682379245758,-0.08863288164138794
1761476016579879200,4.787879150390625,0.25083592534065247,-0.23835113644599915,-0.09255758672952652
1761476016589915100,4.7979150390625,0.24867524206638336,-0.2262176126241684,-0.10719560086727142
1761476016599952000,4.807951904296875,0.24795274436473846,-0.21845024824142456,-0.13521870970726013
1761476016609988000,4.817988037109375,0.24811488389968872,-0.2220183163881302,-0.16996647417545319
1761476016620024000,4.828024169921875,0.2480458915233612,-0.22251233458518982,-0.20196089148521423
1761476016630061000,4.83806103515625,0.2475724071264267,-0.21299022436141968,-0.22434309124946594
1761476016640097000,4.848096923828125,0.24881477653980255,-0.20933450758457184,-0.23721787333488464
1761476016650133200,4.85813330078125,0.2561863958835602,-0.19819048047065735,-0.2307886779308319
1761476016660170000,4.868169921875,0.2678603529930115,-0.1971457302570343,-0.20923225581645966
1761476016670206000,4.8782060546875,0.2818184792995453,-0.18749135732650757,-0.18062366545200348
1761476016680242200,4.8882421875,0.3049064874649048,-0.17681953310966492,-0.14221714437007904
1761476016690278100,4.898278076171875,0.3174613416194916,-0.16654567420482635,-0.10632862895727158
1761476016700315000,4.90831494140625,0.32689613103866577,-0.1460595726966858,-0.07487882673740387
1761476016710351000,4.91835107421875,0.3261948227882385,-0.1166682168841362,-0.04504355043172836
1761476016720387000,4.928386962890625,0.32525739073753357,-0.07423713803291321,-0.014643300324678421
1761476016730423800,4.938423828125,0.3140547573566437,0.002095589879900217,0.018342861905694008
1761476016740460000,4.9484599609375,0.30501705408096313,0.07403023540973663,0.045235730707645416
1761476016750496300,4.958496337890625,0.2921667695045471,0.1084183007478714,0.07155068963766098
1761476016760533000,4.968532958984375,0.27984511852264404,0.10626806318759918,0.09114675968885422
1761476016770569000,4.97856884765625,0.2629747986793518,0.09348928928375244,0.10005231201648712
1761476016780605200,4.988605224609375,0.248525008559227,0.08519008010625839,0.10464412719011307
1761476016790641200,4.99864111328125,0.22744351625442505,0.06371591240167618,0.10441453754901886
1761476016800678000,5.008677978515625,0.21298520267009735,0.03397772088646889,0.08773702383041382
1761476016810714000,5.018714111328125,0.2012408822774887,-0.004209988750517368,0.07337582856416702
1761476016820750000,5.02875,0.18439744412899017,-0.0365639328956604,0.049512043595314026
1761476016830786800,5.038786865234375,0.1659431904554367,-0.060264114290475845,0.023495614528656006
1761476016840823000,5.048822998046875,0.14422298967838287,-0.07666518539190292,0.004216457717120647
1761476016850859000,5.05885888671875,0.12577684223651886,-0.07486195117235184,-0.002522749826312065
1761476016860896000,5.06889599609375,0.10860930383205414,-0.050545964390039444,0.00020805560052394867
1761476016870932200,5.07893212890625,0.08947096765041351,-0.008714068681001663,0.019762422889471054
1761476016880968200,5.08896826171875,0.06752359867095947,0.04135415703058243,0.04743559658527374
1761476016891005000,5.0990048828125,0.044903188943862915,0.08495758473873138,0.0778263658285141
1761476016901041200,5.109041259765625,0.028465624898672104,0.11814270168542862,0.10564254969358444
1761476016911077000,5.1190771484375,0.011325563304126263,0.133279949426651,0.1337553709745407
1761476016921113000,5.129113037109375,0.005424797534942627,0.13257154822349548,0.16375881433486938
1761476016931150000,5.139150146484375,0.0019143056124448776,0.12432783842086792,0.18416333198547363
1761476016941186000,5.14918603515625,0.0055013177916407585,0.09916575998067856,0.19580507278442383
1761476016951222000,5.159221923828125,0.011371474713087082,0.07292574644088745,0.20519950985908508
1761476016961259000,5.169259033203125,0.013774445280432701,0.058872781693935394,0.21818907558918
1761476016971295200,5.179295166015625,0.0019250931218266487,0.04317418485879898,0.22505202889442444
1761476016981331200,5.189331298828125,-0.018886445090174675,0.019789766520261765,0.22066393494606018
1761476016991368000,5.199367919921875,-0.0547163151204586,-0.0022543082013726234,0.21155889332294464
1761476017001404200,5.209404052734375,-0.09520567953586578,-0.013226266019046307,0.19267520308494568
1761476017011440000,5.219440185546875,-0.13235332071781158,-0.020999234169721603,0.1697254180908203
1761476017021476000,5.22947607421875,-0.1613444834947586,-0.0266408734023571,0.14603260159492493
1761476017031513000,5.23951318359375,-0.1822279542684555,-0.02823423035442829,0.12218285351991653
1761476017041549000,5.249549072265625,-0.20032572746276855,-0.03329929709434509,0.11530496925115585
1761476017051585000,5.2595849609375,-0.22028128802776337,-0.03649191930890083,0.1164628118276596
1761476017061622000,5.2696220703125,-0.23414038121700287,-0.02949099987745285,0.13988584280014038
1761476017071658200,5.279658203125,-0.2512001395225525,-0.018069854006171227,0.16207490861415863
1761476017081694200,5.289694091796875,-0.26789629459381104,-0.01412358321249485,0.1869024932384491
1761476017091731000,5.29973095703125,-0.28612378239631653,-0.011431392282247543,0.20796330273151398
1761476017101767200,5.30976708984375,-0.29638439416885376,-0.010231371968984604,0.2203720360994339
1761476017111803100,5.31980322265625,-0.30612844228744507,-0.017017466947436333,0.22895978391170502
1761476017121839000,5.329839111328125,-0.3120582401752472,-0.03287898749113083,0.22338125109672546
1761476017131876000,5.3398759765625,-0.3171631693840027,-0.038627590984106064,0.2219744622707367
1761476017141912000,5.349912109375,-0.3241249620914459,-0.053807877004146576,0.21335594356060028
1761476017151948000,5.359947998046875,-0.3295670747756958,-0.09591779112815857,0.19826750457286835
1761476017161985300,5.3699853515625,-0.335976779460907,-0.13870492577552795,0.18835468590259552
1761476017172021500,5.380021484375,-0.34543848037719727,-0.15669551491737366,0.19049157202243805
1761476017182057500,5.390057373046875,-0.36500072479248047,-0.16147774457931519,0.1995423287153244
1761476017192094200,5.40009423828125,-0.3943861126899719,-0.16224950551986694,0.2215055376291275
1761476017202130400,5.41013037109375,-0.4316194951534271,-0.15000589191913605,0.25505417585372925
1761476017212166400,5.42016650390625,-0.4620877802371979,-0.1285380870103836,0.28126874566078186
1761476017222202400,5.430202392578125,-0.48893216252326965,-0.1361403465270996,0.3005460202693939
1761476017232239400,5.4402392578125,-0.5093855857849121,-0.1493370532989502,0.307116836309433
1761476017242275600,5.450275634765625,-0.533966600894928,-0.15353232622146606,0.30099210143089294
1761476017252311600,5.4603115234375,-0.561143696308136,-0.15663407742977142,0.2823774516582489
1761476017262348300,5.470348388671875,-0.5905420780181885,-0.1638600379228592,0.2568315863609314
1761476017272384500,5.480384521484375,-0.6262447834014893,-0.15832167863845825,0.2430850714445114
1761476017282420500,5.49042041015625,-0.6578580737113953,-0.15431495010852814,0.2185664027929306
1761476017292457200,5.500457275390625,-0.6897515654563904,-0.1678565889596939,0.20945937931537628
1761476017302493400,5.510493408203125,-0.7165645360946655,-0.17849113047122955,0.20893767476081848
1761476017312529400,5.520529296875,-0.7402289509773254,-0.1729290932416916,0.20941954851150513
1761476017322565400,5.5305654296875,-0.7628048062324524,-0.18593037128448486,0.2082459032535553
1761476017332602600,5.5406025390625,-0.7764328122138977,-0.22065392136573792,0.20676878094673157
1761476017342638600,5.550638671875,-0.7852750420570374,-0.24646048247814178,0.19533184170722961
1761476017352674600,5.560674560546875,-0.7929648160934448,-0.27611619234085083,0.1783571094274521
1761476017362711600,5.570711669921875,-0.7943928241729736,-0.30366551876068115,0.16210757195949554
1761476017372747500,5.58074755859375,-0.8034801483154297,-0.3000516891479492,0.14396846294403076
1761476017382783500,5.590783447265625,-0.8175248503684998,-0.28530338406562805,0.12347090989351273
1761476017392820500,5.600820556640625,-0.8360041975975037,-0.2777968943119049,0.10106003284454346
1761476017402856400,5.6108564453125,-0.8505700826644897,-0.28271523118019104,0.06964804232120514
1761476017412892400,5.620892333984375,-0.8536498546600342,-0.29731485247612,0.03713599219918251
1761476017422928400,5.630928466796875,-0.8451312184333801,-0.32031604647636414,0.007452133111655712
1761476017432965600,5.640965576171875,-0.8231861591339111,-0.3490360677242279,-0.026227664202451706
1761476017443001600,5.651001708984375,-0.7868614196777344,-0.3641037046909332,-0.04756038263440132
1761476017453037600,5.66103759765625,-0.7464064359664917,-0.38367602229118347,-0.057768192142248154
1761476017463074600,5.671074462890625,-0.7004304528236389,-0.39959266781806946,-0.05757378414273262
1761476017473110500,5.681110595703125,-0.6554400324821472,-0.40901678800582886,-0.048170484602451324
1761476017483146500,5.691146484375,-0.6165522933006287,-0.4226263463497162,-0.03461046516895294
1761476017493182500,5.701182373046875,-0.5896183848381042,-0.4284975826740265,-0.02520463615655899
1761476017503219500,5.711219482421875,-0.5780405402183533,-0.43695446848869324,-0.026111707091331482
1761476017513255400,5.72125537109375,-0.5813574194908142,-0.4372067153453827,-0.0346163809299469
1761476017523291400,5.73129150390625,-0.6063858270645142,-0.4322178065776825,-0.05795525759458542
1761476017533328400,5.741328369140625,-0.6363224387168884,-0.4449009895324707,-0.09542054682970047
1761476017543364600,5.751364501953125,-0.651983380317688,-0.4901576638221741,-0.15156903862953186
1761476017553400600,5.761400634765625,-0.6493461728096008,-0.5502309799194336,-0.2000894695520401
1761476017563436500,5.7714365234375,-0.6314523816108704,-0.5801262855529785,-0.2375771850347519
1761476017573473500,5.7814736328125,-0.6025124788284302,-0.5886513590812683,-0.25645217299461365
1761476017583509500,5.791509521484375,-0.5842642784118652,-0.5911411643028259,-0.26319420337677
1761476017593545500,5.80154541015625,-0.5722633004188538,-0.5889695882797241,-0.26536837220191956
1761476017603582500,5.81158251953125,-0.5745224356651306,-0.6037544012069702,-0.27119988203048706
1761476017613618400,5.821618408203125,-0.5784946084022522,-0.6338464617729187,-0.2844398021697998
1761476017623654400,5.831654296875,-0.5707890391349792,-0.6662499308586121,-0.30731555819511414
1761476017633690400,5.8416904296875,-0.5529189109802246,-0.7066971063613892,-0.3386416733264923
1761476017643727400,5.851727294921875,-0.5241812467575073,-0.7398186326026917,-0.3697388470172882
1761476017653763300,5.861763427734375,-0.4884667992591858,-0.7722678184509277,-0.39250683784484863
1761476017663799600,5.871799560546875,-0.44834229350090027,-0.7863034605979919,-0.39385920763015747
1761476017673836500,5.88183642578125,-0.4227006435394287,-0.7399199604988098,-0.3684914708137512
1761476017683872500,5.89187255859375,-0.41301393508911133,-0.6367586851119995,-0.3154783248901367
1761476017693908500,5.901908447265625,-0.424336314201355,-0.505204439163208,-0.2635495960712433
1761476017703945500,5.911945556640625,-0.44463759660720825,-0.395444393157959,-0.21247069537639618
1761476017713981400,5.9219814453125,-0.4632422924041748,-0.3243601322174072,-0.17348842322826385
1761476017724017400,5.932017333984375,-0.4760773777961731,-0.30394622683525085,-0.14522136747837067
1761476017734053400,5.942053466796875,-0.47985005378723145,-0.32630306482315063,-0.11926226317882538
1761476017744090400,5.95209033203125,-0.4860871732234955,-0.34940436482429504,-0.09943609684705734
1761476017754126300,5.962126220703125,-0.5012408494949341,-0.35899028182029724,-0.08200657367706299
1761476017764162300,5.972162353515625,-0.5476917028427124,-0.34698423743247986,-0.07850877940654755
1761476017774199600,5.982199462890625,-0.6121230721473694,-0.33906322717666626,-0.09515683352947235
1761476017784235500,5.992235595703125,-0.6871587038040161,-0.32993391156196594,-0.11969386786222458
1761476017794271500,6.002271484375,-0.7537500858306885,-0.32675909996032715,-0.14628025889396667
1761476017804307500,6.012307373046875,-0.8071064949035645,-0.3086099326610565,-0.15464551746845245
1761476017814344400,6.022344482421875,-0.849647581577301,-0.27431029081344604,-0.1548852026462555
1761476017824380400,6.03238037109375,-0.8974227905273438,-0.22390541434288025,-0.14599370956420898
1761476017834416400,6.04241650390625,-0.9508631229400635,-0.1784234195947647,-0.14840200543403625
1761476017844453400,6.052453369140625,-1.0036404132843018,-0.13963927328586578,-0.16030766069889069
1761476017854489300,6.0624892578125,-1.0482898950576782,-0.11973466724157333,-0.17472083866596222
1761476017864525300,6.072525390625,-1.0701030492782593,-0.12273577600717545,-0.18805581331253052
1761476017874561300,6.082561279296875,-1.0769290924072266,-0.14116162061691284,-0.19361841678619385
1761476017884598500,6.0925986328125,-1.0720088481903076,-0.15799039602279663,-0.1866648942232132
1761476017894634500,6.102634521484375,-1.074305534362793,-0.15519513189792633,-0.17646120488643646
1761476017904670500,6.11267041015625,-1.0824012756347656,-0.14036744832992554,-0.161552295088768
1761476017914707500,6.12270751953125,-1.0985779762268066,-0.12883460521697998,-0.16279339790344238
1761476017924743400,6.132743408203125,-1.1169675588607788,-0.12571923434734344,-0.1778985857963562
1761476017934779400,6.142779296875,-1.1268548965454102,-0.13685496151447296,-0.1975291669368744
1761476017944815400,6.1528154296875,-1.122825026512146,-0.158652663230896,-0.21518538892269135
1761476017954852400,6.162852294921875,-1.107494831085205,-0.1929299384355545,-0.21833600103855133
1761476017964888300,6.172888427734375,-1.084113359451294,-0.20623590052127838,-0.2072383463382721
1761476017974924300,6.18292431640625,-1.059244990348816,-0.19714614748954773,-0.18949605524539948
1761476017984961500,6.19296142578125,-1.035569190979004,-0.18168143928050995,-0.16218213737010956
1761476017994997500,6.20299755859375,-1.0145806074142456,-0.1572936624288559,-0.14162595570087433
1761476018005033500,6.213033447265625,-1.001198649406433,-0.1283821165561676,-0.12280379980802536
1761476018015069400,6.2230693359375,-0.9931585192680359,-0.10844322293996811,-0.11135654151439667
1761476018025106400,6.2331064453125,-0.9880481362342834,-0.09382699429988861,-0.10867074131965637
1761476018035142400,6.243142333984375,-0.9820014834403992,-0.07010316103696823,-0.1051020398736
1761476018045178400,6.253178466796875,-0.9743456840515137,-0.041542358696460724,-0.10311266034841537
1761476018055215400,6.26321533203125,-0.9702482223510742,-0.024524183943867683,-0.10942152142524719
1761476018065251300,6.273251220703125,-0.9746954441070557,-0.016535764560103416,-0.12693074345588684
1761476018075287300,6.283287353515625,-0.9822533130645752,-0.019535230472683907,-0.16205769777297974
1761476018085324500,6.293324462890625,-0.9856001138687134,-0.025428274646401405,-0.209090456366539
1761476018095360500,6.303360595703125,-0.9867705702781677,-0.023327305912971497,-0.2598540186882019
1761476018105396500,6.313396484375,-0.9805222749710083,-0.016105612739920616,-0.3000059723854065
1761476018115432400,6.323432373046875,-0.9666377305984497,-0.015877995640039444,-0.3285219073295593
1761476018125469400,6.333469482421875,-0.9543213844299316,-0.021044261753559113,-0.3418222665786743
1761476018135505400,6.34350537109375,-0.9431833624839783,-0.030401896685361862,-0.3381853401660919
1761476018145541400,6.353541259765625,-0.9289889335632324,-0.05614854022860527,-0.3187948763370514
1761476018155578400,6.363578369140625,-0.9105546474456787,-0.09856078028678894,-0.2950788140296936
1761476018165615000,6.373614990234375,-0.8920171856880188,-0.14670461416244507,-0.2686224579811096
1761476018175651000,6.383651123046875,-0.8746466636657715,-0.1765775829553604,-0.23812264204025269
1761476018185687000,6.39368701171875,-0.8628603219985962,-0.1940641552209854,-0.21019886434078217
1761476018195724000,6.40372412109375,-0.8596275448799133,-0.20194856822490692,-0.17138263583183289
1761476018205760000,6.413760009765625,-0.8634539842605591,-0.18244676291942596,-0.12896567583084106
1761476018215796000,6.4237958984375,-0.8843785524368286,-0.13201510906219482,-0.08658762276172638
1761476018225833000,6.4338330078125,-0.9053376317024231,-0.08246727287769318,-0.057378873229026794
1761476018235869000,6.443868896484375,-0.9418985247612,-0.06017889454960823,-0.049197763204574585
1761476018245905000,6.45390478515625,-0.9729709625244141,-0.05017552897334099,-0.06775839626789093
1761476018255941000,6.463941162109375,-1.0046619176864624,-0.04685156047344208,-0.09697068482637405
1761476018265978000,6.47397802734375,-1.0332101583480835,-0.05836094543337822,-0.12861569225788116
1761476018276014000,6.48401416015625,-1.0590901374816895,-0.08658155798912048,-0.17021191120147705
1761476018286050000,6.494050048828125,-1.0928447246551514,-0.10944905877113342,-0.20669642090797424
1761476018296087000,6.504087158203125,-1.123505711555481,-0.13077031075954437,-0.2329816371202469
1761476018306123000,6.514123046875,-1.1613529920578003,-0.14051614701747894,-0.2508048415184021
1761476018316159000,6.524158935546875,-1.193682312965393,-0.14106017351150513,-0.2542365789413452
1761476018326196000,6.534196044921875,-1.2206547260284424,-0.14557263255119324,-0.2508474588394165
1761476018336232000,6.54423193359375,-1.2348111867904663,-0.15958091616630554,-0.24514570832252502
1761476018346268000,6.554267822265625,-1.2388781309127808,-0.15406949818134308,-0.2299947291612625
1761476018356304000,6.564303955078125,-1.2272838354110718,-0.14179445803165436,-0.20803828537464142
1761476018366341000,6.574341064453125,-1.2093242406845093,-0.12559710443019867,-0.19065424799919128
1761476018376377000,6.584377197265625,-1.1768146753311157,-0.11332929134368896,-0.18115583062171936
1761476018386413000,6.5944130859375,-1.1339194774627686,-0.1098346933722496,-0.18213215470314026
1761476018396450000,6.604449951171875,-1.0830422639846802,-0.13179917633533478,-0.18252083659172058
1761476018406486000,6.614486083984375,-1.0316818952560425,-0.17035774886608124,-0.179872065782547
1761476018416522000,6.62452197265625,-0.9910600781440735,-0.1987093985080719,-0.16659797728061676
1761476018426558000,6.634557861328125,-0.9675342440605164,-0.1908903419971466,-0.1405155211687088
1761476018436595000,6.644594970703125,-0.96636563539505,-0.16335980594158173,-0.11461804807186127
1761476018446631000,6.654630859375,-0.9940601587295532,-0.14078445732593536,-0.10572921484708786
1761476018456667000,6.6646669921875,-1.0285700559616089,-0.1400887668132782,-0.11792651563882828
1761476018466704100,6.6747041015625,-1.0692583322525024,-0.17937704920768738,-0.1543082296848297
1761476018476740000,6.684739990234375,-1.098111867904663,-0.2495473325252533,-0.21403665840625763
1761476018486776000,6.694776123046875,-1.108229160308838,-0.3476877510547638,-0.2870541214942932
1761476018496812000,6.70481201171875,-1.0976380109786987,-0.4934925436973572,-0.38271206617355347
1761476018506849000,6.71484912109375,-1.0357283353805542,-0.6799905300140381,-0.4756385385990143
1761476018516885000,6.724885009765625,-0.927335798740387,-0.8816052675247192,-0.5403457880020142
1761476018526921000,6.7349208984375,-0.808979868888855,-1.0355921983718872,-0.5420593023300171
1761476018536958000,6.7449580078125,-0.7302743196487427,-1.069222092628479,-0.46107956767082214
1761476018546994000,6.754993896484375,-0.7366992235183716,-0.9363968968391418,-0.3101300001144409
1761476018557030000,6.76502978515625,-0.827684760093689,-0.6642849445343018,-0.11712983250617981
1761476018567067100,6.775067138671875,-0.9774883389472961,-0.3248453736305237,0.06458750367164612
1761476018577103000,6.78510302734375,-1.136794090270996,-0.0030780560337007046,0.1958271712064743
1761476018587139000,6.79513916015625,-1.2678385972976685,0.21055540442466736,0.2516654133796692
1761476018597175000,6.805175048828125,-1.330693244934082,0.3149492144584656,0.2273116260766983
1761476018607212000,6.8152119140625,-1.3346935510635376,0.32783037424087524,0.1304207593202591
1761476018617248000,6.825248046875,-1.2919292449951172,0.2363521307706833,0.0036362633109092712
1761476018627284000,6.835283935546875,-1.2245696783065796,0.10106728225946426,-0.12202472984790802
1761476018637321000,6.845321044921875,-1.1513422727584839,-0.0518801286816597,-0.21026669442653656
1761476018647357000,6.85535693359375,-1.089913010597229,-0.22377519309520721,-0.24774989485740662
1761476018657393000,6.865392822265625,-1.0521219968795776,-0.3742682635784149,-0.23429416120052338
1761476018667430000,6.875429931640625,-1.0432262420654297,-0.47324037551879883,-0.19224204123020172
1761476018677466000,6.885466064453125,-1.062756896018982,-0.5038064122200012,-0.14108231663703918
1761476018687502000,6.895502197265625,-1.1020601987838745,-0.4638422429561615,-0.10798854380846024
1761476018697538000,6.9055380859375,-1.1552762985229492,-0.380398690700531,-0.11589618027210236
1761476018707575000,6.915574951171875,-1.206077218055725,-0.2787458300590515,-0.15866388380527496
1761476018717611000,6.925611083984375,-1.2446390390396118,-0.1756470948457718,-0.23137924075126648
1761476018727647000,6.93564697265625,-1.2639496326446533,-0.08508364111185074,-0.3041815459728241
1761476018737684000,6.94568408203125,-1.2704322338104248,0.013225317001342773,-0.3653527796268463
1761476018747720000,6.955719970703125,-1.2614468336105347,0.07675662636756897,-0.399373322725296
1761476018757756000,6.965755859375,-1.2345317602157593,0.0820152685046196,-0.4116035997867584
1761476018767793000,6.97579296875,-1.1878286600112915,0.030188027769327164,-0.39901217818260193
1761476018777828900,6.985828857421875,-1.1323939561843872,-0.04919278994202614,-0.36936989426612854
1761476018787864800,6.99586474609375,-1.0639667510986328,-0.12989190220832825,-0.3204862177371979
1761476018797901000,7.005901123046875,-0.9908379912376404,-0.1984041929244995,-0.2564477026462555
1761476018807938000,7.01593798828125,-0.9122012257575989,-0.26103296875953674,-0.18842631578445435
1761476018817974000,7.02597412109375,-0.8390083312988281,-0.31195563077926636,-0.12825587391853333
1761476018828010000,7.036010009765625,-0.7760961651802063,-0.37269672751426697,-0.08707781136035919
1761476018838047000,7.046046875,-0.7313451766967773,-0.43231162428855896,-0.06484652310609818
1761476018848083000,7.0560830078125,-0.7153989672660828,-0.47459569573402405,-0.06169787049293518
1761476018858119000,7.066118896484375,-0.7118276357650757,-0.4839777648448944,-0.06521894037723541
1761476018868156000,7.076156005859375,-0.7209748029708862,-0.46484294533729553,-0.06509749591350555
1761476018878191900,7.08619189453125,-0.7340975999832153,-0.39616596698760986,-0.055092860013246536
1761476018888227800,7.096227783203125,-0.7542127370834351,-0.30367013812065125,-0.037663534283638
1761476018898265000,7.10626513671875,-0.7665689587593079,-0.19937479496002197,-0.02461007423698902
1761476018908301000,7.116301025390625,-0.7861852645874023,-0.10047324746847153,-0.015853334218263626
1761476018918337000,7.1263369140625,-0.8009750843048096,-0.022913597524166107,-0.013586328364908695
1761476018928373000,7.136373046875,-0.8144275546073914,0.019868753850460052,-0.026608919724822044
1761476018938410000,7.146409912109375,-0.8247957825660706,0.021770397201180458,-0.05155782401561737
1761476018948446000,7.156446044921875,-0.825507640838623,-0.013108756393194199,-0.07273847609758377
1761476018958482000,7.16648193359375,-0.8103644251823425,-0.06392558664083481,-0.08305151760578156
1761476018968519000,7.176518798828125,-0.7844300270080566,-0.11318821460008621,-0.07166863232851028
1761476018978555000,7.186554931640625,-0.7527713775634766,-0.1523982584476471,-0.038210101425647736
1761476018988590800,7.1965908203125,-0.7275978326797485,-0.1838318109512329,0.007446334697306156
1761476018998628000,7.206628173828125,-0.7157363891601562,-0.1871868371963501,0.06568565219640732
1761476019008664000,7.2166640625,-0.7178360223770142,-0.15088102221488953,0.12287117540836334
1761476019018700000,7.226699951171875,-0.7274301052093506,-0.10446742177009583,0.16310232877731323
1761476019028736000,7.236736083984375,-0.7397112846374512,-0.07425493001937866,0.18522600829601288
1761476019038773000,7.24677294921875,-0.7458350658416748,-0.06353818625211716,0.18565014004707336
1761476019048809000,7.25680908203125,-0.7462843656539917,-0.06860645115375519,0.17250317335128784
1761476019058845000,7.266844970703125,-0.7448194622993469,-0.08018702268600464,0.14954873919487
1761476019068882000,7.2768818359375,-0.7533621191978455,-0.07896995544433594,0.12609854340553284
1761476019078918000,7.28691796875,-0.7809298038482666,-0.06364747136831284,0.0943329706788063
1761476019088953900,7.296953857421875,-0.8263816833496094,-0.034460559487342834,0.06965931504964828
1761476019098990800,7.306990966796875,-0.882524311542511,-0.005807178560644388,0.040804143995046616
1761476019109027000,7.317027099609375,-0.9420720338821411,0.005827639251947403,0.0003089169040322304
1761476019119063000,7.32706298828125,-0.9808211922645569,-0.025998421013355255,-0.04194179177284241
1761476019129100000,7.33710009765625,-0.9908202886581421,-0.08839895576238632,-0.08233395218849182
1761476019139136000,7.347135986328125,-0.9730280637741089,-0.15849356353282928,-0.11678079515695572
1761476019149172000,7.357171875,-0.9387657046318054,-0.2036333531141281,-0.1254163533449173
1761476019159208000,7.3672080078125,-0.89992356300354,-0.22571811079978943,-0.1181190013885498
1761476019169245400,7.377245361328125,-0.8714535236358643,-0.23463383316993713,-0.1071166843175888
1761476019179281400,7.387281494140625,-0.8585318922996521,-0.23972490429878235,-0.096733458340168
1761476019189317400,7.3973173828125,-0.8566762208938599,-0.23176763951778412,-0.09181646257638931
1761476019199354400,7.407354248046875,-0.8637716770172119,-0.21664832532405853,-0.09402882307767868
1761476019209390300,7.417390380859375,-0.8656955361366272,-0.2082148939371109,-0.10415496677160263
1761476019219426300,7.42742626953125,-0.8611100316047668,-0.20736658573150635,-0.11737678945064545
1761476019229463300,7.43746337890625,-0.8495625257492065,-0.20534124970436096,-0.12772130966186523
1761476019239499300,7.447499267578125,-0.8417193293571472,-0.20217739045619965,-0.1348610669374466
1761476019249535200,7.45753515625,-0.8354665040969849,-0.21559172868728638,-0.13659851253032684
1761476019259572500,7.467572509765625,-0.821683943271637,-0.2217080444097519,-0.13829290866851807
1761476019269608400,7.4776083984375,-0.8038279414176941,-0.23686276376247406,-0.13864737749099731
1761476019279644400,7.48764453125,-0.7782785296440125,-0.26534706354141235,-0.13603204488754272
1761476019289681400,7.497681396484375,-0.7472047805786133,-0.2843351364135742,-0.13422802090644836
1761476019299717400,7.50771728515625,-0.716214120388031,-0.28702878952026367,-0.11961726099252701
1761476019309753300,7.51775341796875,-0.6882005929946899,-0.28870925307273865,-0.10783330351114273
1761476019319789300,7.527789306640625,-0.6643790006637573,-0.29103103280067444,-0.08692990243434906
1761476019329826300,7.537826416015625,-0.6474788784980774,-0.290879487991333,-0.05982717499136925
1761476019339862300,7.5478623046875,-0.636342465877533,-0.2928600013256073,-0.03206247836351395
1761476019349898200,7.557898193359375,-0.6295506358146667,-0.30327457189559937,-0.00764928013086319
1761476019359935500,7.567935546875,-0.6239020228385925,-0.32063308358192444,-0.003861287608742714
1761476019369971500,7.577971435546875,-0.6165644526481628,-0.34379273653030396,-0.0035078860819339752
1761476019380007400,7.58800732421875,-0.6069369912147522,-0.363006591796875,-0.012128777801990509
1761476019390044400,7.59804443359375,-0.6022847294807434,-0.38531750440597534,-0.022398725152015686
1761476019400080400,7.608080322265625,-0.5978132486343384,-0.404361754655838,-0.026236262172460556
1761476019410116400,7.618116455078125,-0.5942150354385376,-0.4146815240383148,-0.023448199033737183
1761476019420153300,7.6281533203125,-0.5931037068367004,-0.4101616144180298,-0.017934922128915787
1761476019430189300,7.638189208984375,-0.5951913595199585,-0.39508572220802307,-0.0011772476136684418
1761476019440225300,7.648225341796875,-0.6046379208564758,-0.3912084996700287,0.007230237126350403
1761476019450262300,7.65826220703125,-0.6194341778755188,-0.3976437747478485,0.01960514858365059
1761476019460298200,7.66829833984375,-0.6320924162864685,-0.4144893288612366,0.022698942571878433
1761476019470334500,7.67833447265625,-0.640937328338623,-0.4342441260814667,0.02244247868657112
1761476019480370400,7.688370361328125,-0.6453260779380798,-0.47588807344436646,0.0165526382625103
1761476019490407400,7.698407470703125,-0.6392527222633362,-0.5028549432754517,0.002765452489256859
1761476019500443400,7.708443359375,-0.6357260346412659,-0.5251843929290771,-0.019261211156845093
1761476019510479400,7.718479248046875,-0.6339238286018372,-0.5173438191413879,-0.04837249219417572
1761476019520516400,7.728516357421875,-0.6350805163383484,-0.49494460225105286,-0.08491667360067368
1761476019530552300,7.73855224609375,-0.639664888381958,-0.46656519174575806,-0.12219453603029251
1761476019540588300,7.74858837890625,-0.6367030739784241,-0.442228764295578,-0.14871928095817566
1761476019550625300,7.758625244140625,-0.6322079300880432,-0.4377772808074951,-0.1674242615699768
1761476019560661200,7.7686611328125,-0.6294758915901184,-0.44205063581466675,-0.17135483026504517
1761476019570697200,7.778697265625,-0.6294345855712891,-0.45308971405029297,-0.16678990423679352
1761476019580734500,7.788734375,-0.6254789233207703,-0.4497533440589905,-0.1492002010345459
1761476019590770400,7.7987705078125,-0.6172620058059692,-0.43087419867515564,-0.12327273190021515
1761476019600806400,7.808806396484375,-0.5981199145317078,-0.4110122621059418,-0.1068105548620224
1761476019610843400,7.818843505859375,-0.5693145990371704,-0.4106801748275757,-0.0999012440443039
1761476019620879400,7.82887939453125,-0.5417143106460571,-0.42337140440940857,-0.10898563265800476
1761476019630915300,7.838915283203125,-0.5167402625083923,-0.4192938506603241,-0.12568844854831696
1761476019640952300,7.848952392578125,-0.5060130953788757,-0.3852327764034271,-0.1469540297985077
1761476019650988300,7.85898828125,-0.5092530846595764,-0.35309532284736633,-0.18253758549690247
1761476019661024300,7.869024169921875,-0.5208569169044495,-0.35370683670043945,-0.2375960499048233
1761476019671060200,7.879060302734375,-0.523271918296814,-0.4109645485877991,-0.3124580681324005
1761476019681097500,7.889097412109375,-0.4979824125766754,-0.5002414584159851,-0.3837953805923462
1761476019691133400,7.899133544921875,-0.44493117928504944,-0.5706660747528076,-0.4261974096298218
1761476019701169400,7.90916943359375,-0.39582252502441406,-0.5934704542160034,-0.4349060356616974
1761476019711206400,7.919206298828125,-0.3899310827255249,-0.5315434336662292,-0.4172609746456146
1761476019721242400,7.929242431640625,-0.43519890308380127,-0.4148566722869873,-0.4081013798713684
1761476019731278300,7.9392783203125,-0.5083469152450562,-0.3255675435066223,-0.44002628326416016
1761476019741315300,7.9493154296875,-0.5623312592506409,-0.3035421669483185,-0.5086532831192017
1761476019751351300,7.959351318359375,-0.5588030815124512,-0.3222426176071167,-0.6015734076499939
1761476019761387300,7.96938720703125,-0.4990170896053314,-0.3559860289096832,-0.6824500560760498
1761476019771424300,7.97942431640625,-0.40424370765686035,-0.3761943578720093,-0.7321845889091492
1761476019781460500,7.98946044921875,-0.3017726242542267,-0.34712255001068115,-0.7396667003631592
1761476019791496400,7.999496337890625,-0.2139197289943695,-0.24871712923049927,-0.6956814527511597
1761476019801528600,8.009528564453126,-0.140694260597229,-0.11221641302108765,-0.6088221669197083
1761476019811564500,8.019564453125,-0.06884030997753143,0.03563537076115608,-0.48616915941238403
1761476019821601300,8.029601318359376,0.010499446652829647,0.16142675280570984,-0.3394755721092224
1761476019831637500,8.039637451171876,0.0961935818195343,0.2417045533657074,-0.19030579924583435
1761476019841673500,8.049673583984376,0.17408525943756104,0.23321062326431274,-0.05832415074110031
1761476019851710200,8.059710205078124,0.23627912998199463,0.15243534743785858,0.05853695422410965
1761476019861746400,8.069746337890624,0.2721008360385895,0.04061891511082649,0.14144910871982574
1761476019871782400,8.079782470703124,0.28637057542800903,-0.07740093022584915,0.19069227576255798
1761476019881819400,8.0898193359375,0.28988057374954224,-0.1874798834323883,0.19919313490390778
1761476019891855400,8.09985546875,0.27971261739730835,-0.27944204211235046,0.15135903656482697
1761476019901891600,8.1098916015625,0.25816452503204346,-0.3529725968837738,0.07021421194076538
1761476019911928300,8.11992822265625,0.2171206921339035,-0.37552371621131897,-0.02419164776802063
1761476019921964300,8.12996435546875,0.16650989651679993,-0.35579630732536316,-0.10793977975845337
1761476019932000500,8.14000048828125,0.09880834817886353,-0.32121676206588745,-0.17672523856163025
1761476019942037200,8.150037353515625,0.03494056314229965,-0.28620943427085876,-0.2149176299571991
1761476019952073200,8.1600732421875,-0.04206500202417374,-0.26198211312294006,-0.24198172986507416
1761476019962109400,8.170109375,-0.1177181750535965,-0.22599206864833832,-0.2528195083141327
1761476019972146400,8.180146484375,-0.20461951196193695,-0.19224050641059875,-0.26361197233200073
1761476019982182400,8.190182373046875,-0.2993045747280121,-0.16223809123039246,-0.275069922208786
1761476019992218400,8.20021826171875,-0.3943783640861511,-0.13181918859481812,-0.27821165323257446
1761476020002255400,8.21025537109375,-0.4697552025318146,-0.11772290617227554,-0.27644169330596924
1761476020012291300,8.220291259765625,-0.5254759788513184,-0.09538991004228592,-0.26226142048835754
1761476020022327300,8.230327392578126,-0.5437618494033813,-0.07827840000391006,-0.2435743808746338
1761476020032364300,8.2403642578125,-0.5426518321037292,-0.09318757802248001,-0.2218959927558899
1761476020042400300,8.250400146484376,-0.5290945172309875,-0.1241874247789383,-0.20391568541526794
1761476020052436200,8.260436279296876,-0.5180759429931641,-0.16069136559963226,-0.1978204995393753
1761476020062473200,8.27047314453125,-0.5060887336730957,-0.2025526911020279,-0.199685201048851
1761476020072509400,8.280509521484374,-0.5078656077384949,-0.22192345559597015,-0.21362951397895813
1761476020082545400,8.29054541015625,-0.5212852954864502,-0.208840012550354,-0.23278145492076874
1761476020092581600,8.30058154296875,-0.543655276298523,-0.18218176066875458,-0.2465236335992813
1761476020102618400,8.310618408203124,-0.5755503177642822,-0.14144477248191833,-0.24487422406673431
1761476020112654300,8.320654296875,-0.6154178380966187,-0.06763020157814026,-0.22641852498054504
1761476020122691300,8.33069140625,-0.6552438139915466,0.011179422959685326,-0.20039206743240356
1761476020132727300,8.340727294921875,-0.6995623111724854,0.0663023293018341,-0.17458471655845642
1761476020142763300,8.35076318359375,-0.7375344038009644,0.0889962837100029,-0.14992673695087433
1761476020152799500,8.360799560546875,-0.7611140608787537,0.11433412879705429,-0.12892398238182068
1761476020162836200,8.370836181640625,-0.7654324173927307,0.14296022057533264,-0.1092817485332489
1761476020172871000,8.380870849609375,-0.7515221834182739,0.17126989364624023,-0.08788218349218369
1761476020182907000,8.390906982421875,-0.7260338068008423,0.19229525327682495,-0.061220839619636536
1761476020192943900,8.40094384765625,-0.7014951705932617,0.21574518084526062,-0.030718320980668068
1761476020202979800,8.410979736328125,-0.6856381893157959,0.2196674644947052,0.009538369253277779
1761476020213015800,8.421015869140625,-0.6791818737983704,0.20088046789169312,0.05948355793952942
1761476020223052800,8.431052734375,-0.687407374382019,0.18778546154499054,0.10588312149047852
1761476020233088800,8.4410888671875,-0.7108434438705444,0.1787794530391693,0.13961844146251678
1761476020243124700,8.451124755859375,-0.7418493032455444,0.18265913426876068,0.15886180102825165
1761476020253161700,8.46116162109375,-0.7814262509346008,0.18207085132598877,0.15208885073661804
1761476020263198000,8.471197998046875,-0.816338837146759,0.1713569015264511,0.12408748269081116
1761476020273234000,8.48123388671875,-0.8349705934524536,0.1625192016363144,0.07959963381290436
1761476020283271000,8.49127099609375,-0.839148998260498,0.1593693047761917,0.03226972371339798
1761476020293307000,8.501306884765626,-0.831514298915863,0.15003599226474762,-0.0019132792949676514
1761476020303342800,8.5113427734375,-0.8235754370689392,0.14841973781585693,-0.01085421908646822
1761476020313379800,8.5213798828125,-0.8259317874908447,0.19411639869213104,0.01402689516544342
1761476020323415800,8.531415771484374,-0.8375239372253418,0.2601606249809265,0.036139365285634995
1761476020333451800,8.54145166015625,-0.8568539619445801,0.2852934002876282,0.06125776469707489
1761476020343488800,8.55148876953125,-0.8706440329551697,0.2673572599887848,0.07214219868183136
1761476020353524700,8.561524658203124,-0.8768883347511292,0.21959558129310608,0.06822389364242554
1761476020363560700,8.571560791015624,-0.8738963007926941,0.16259023547172546,0.06071923300623894
1761476020373598000,8.581597900390625,-0.8549066185951233,0.11145701259374619,0.04491576552391052
1761476020383634000,8.591634033203125,-0.8325821757316589,0.0691756010055542,0.023754555732011795
1761476020393674800,8.6016748046875,-0.8055771589279175,0.02350318804383278,-0.000021881423890590668
1761476020403710700,8.611710693359376,-0.7679467797279358,-0.009374421089887619,-0.018912862986326218
1761476020413747700,8.621747802734374,-0.7259330153465271,-0.022456400096416473,-0.034965068101882935
1761476020423783700,8.63178369140625,-0.6937195658683777,-0.013713437132537365,-0.04674296826124191
1761476020433819600,8.641819580078124,-0.6775632500648499,-0.017731614410877228,-0.045493148267269135
1761476020443856600,8.651856689453124,-0.6792070865631104,0.010809045284986496,-0.029313674196600914
1761476020453892600,8.661892578125,-0.6858530640602112,0.056052956730127335,-0.011818837374448776
1761476020463928600,8.671928466796874,-0.6883068084716797,0.06286117434501648,0.0024810265749692917
1761476020473965800,8.6819658203125,-0.6762323379516602,0.039845872670412064,0.013098517432808876
1761476020484001800,8.692001708984375,-0.6559295654296875,0.019792839884757996,0.0058579398319125175
1761476020494037800,8.702037841796875,-0.6246294379234314,0.00448019802570343,-0.004729189909994602
1761476020504074800,8.71207470703125,-0.5906425714492798,-0.013962781056761742,-0.03467751294374466
1761476020514110700,8.72211083984375,-0.5621309876441956,-0.021041996777057648,-0.06919234991073608
1761476020524146700,8.732146728515625,-0.5362176895141602,-0.015651477500796318,-0.10264646261930466
1761476020534183700,8.74218359375,-0.5167737007141113,0.00043454812839627266,-0.1324152648448944
1761476020544219600,8.7522197265625,-0.5028606057167053,0.014461444690823555,-0.1500471532344818
1761476020554255600,8.762255615234375,-0.4975025951862335,0.0349707156419754,-0.15162107348442078
1761476020564292600,8.772292724609375,-0.4836684763431549,0.060002539306879044,-0.14310094714164734
1761476020574328800,8.782328857421875,-0.45934128761291504,0.07624489068984985,-0.12042146176099777
1761476020584364800,8.79236474609375,-0.432179719209671,0.09052836149930954,-0.10324454307556152
1761476020594401800,8.80240185546875,-0.40641069412231445,0.09933943301439285,-0.0894957035779953
1761476020604437800,8.812437744140626,-0.3808588683605194,0.08968007564544678,-0.07681333273649216
1761476020614473700,8.8224736328125,-0.3577607572078705,0.09390225261449814,-0.07141483575105667
1761476020624510700,8.8325107421875,-0.33815255761146545,0.09973850101232529,-0.07121635973453522
1761476020634546700,8.842546630859376,-0.3174472749233246,0.10164079815149307,-0.07540737837553024
1761476020644582700,8.852582763671874,-0.3027559518814087,0.10742025822401047,-0.0880378931760788
1761476020654619600,8.86261962890625,-0.2919403314590454,0.11123976856470108,-0.10602594912052155
1761476020664655600,8.872655517578124,-0.2862933278083801,0.11511716991662979,-0.12007523328065872
1761476020674691600,8.882691650390624,-0.2713325023651123,0.11320928484201431,-0.1345607042312622
1761476020684728800,8.892728759765625,-0.25393038988113403,0.10738818347454071,-0.14092501997947693
1761476020694764800,8.902764892578125,-0.23073427379131317,0.08340242505073547,-0.14031276106834412
1761476020704801800,8.9128017578125,-0.20764821767807007,0.061542052775621414,-0.13224802911281586
1761476020714837800,8.922837646484375,-0.18599405884742737,0.034773021936416626,-0.12319861352443695
1761476020724873700,8.932873779296875,-0.17250217497348785,0.010634902864694595,-0.11727318167686462
1761476020734910700,8.94291064453125,-0.16702644526958466,-0.0024159178137779236,-0.12395212799310684
1761476020744946700,8.95294677734375,-0.15664750337600708,0.0023890561424195766,-0.13355572521686554
1761476020754982700,8.962982666015625,-0.14405260980129242,0.020992301404476166,-0.15124496817588806
1761476020765020000,8.97302001953125,-0.12819106876850128,0.031312040984630585,-0.16944320499897003
1761476020775056000,8.983055908203125,-0.10724290460348129,0.04702974855899811,-0.19028030335903168
1761476020785091800,8.993091796875,-0.09912053495645523,0.05523121729493141,-0.2169746309518814
1761476020795128800,9.00312890625,-0.0975886881351471,0.03448519483208656,-0.24985800683498383
1761476020805164800,9.013164794921876,-0.10478032380342484,-0.04137932136654854,-0.29048383235931396
1761476020815200800,9.02320068359375,-0.09792934358119965,-0.12814244627952576,-0.3384271264076233
1761476020825237800,9.03323779296875,-0.07641427218914032,-0.19364191591739655,-0.3749105930328369
1761476020835273700,9.043273681640626,-0.058560170233249664,-0.2276640683412552,-0.39207974076271057
1761476020845309700,9.053309814453126,-0.04366065189242363,-0.24139170348644257,-0.4048476815223694
1761476020855346700,9.0633466796875,-0.03390362858772278,-0.2781422734260559,-0.4140086770057678
1761476020865382700,9.073382568359374,-0.017420273274183273,-0.3084861636161804,-0.41693705320358276
1761476020875419000,9.0834189453125,0.004067706875503063,-0.3085109293460846,-0.4004051983356476
1761476020885456000,9.093455810546875,0.02803868055343628,-0.27730315923690796,-0.3646746873855591
1761476020895491800,9.103491943359375,0.029860015958547592,-0.2008478045463562,-0.3068239092826843
1761476020905527800,9.11352783203125,0.0016673440113663673,-0.07347896695137024,-0.2332717627286911
1761476020915564800,9.123564697265625,-0.05245900899171829,0.07999181747436523,-0.15898102521896362
1761476020925600800,9.133600830078125,-0.10537374764680862,0.22626107931137085,-0.07882566750049591
1761476020935636700,9.14363671875,-0.15469974279403687,0.3388057351112366,-0.0009436551481485367
1761476020945673700,9.153673828125,-0.1958363652229309,0.4364236891269684,0.06274086982011795
1761476020955709700,9.163709716796875,-0.23109981417655945,0.5002111792564392,0.09687487035989761
1761476020965745700,9.17374560546875,-0.2556205987930298,0.5058887600898743,0.10723324120044708
1761476020975783000,9.183782958984375,-0.26070401072502136,0.47359636425971985,0.10673122853040695
1761476020985819000,9.19381884765625,-0.2405800223350525,0.44052767753601074,0.10523758083581924
1761476020995854800,9.203854736328125,-0.20689450204372406,0.3849421739578247,0.10881314426660538
1761476021005891800,9.213891845703126,-0.1789257526397705,0.31497085094451904,0.113057941198349
1761476021015927800,9.223927734375,-0.15348057448863983,0.23253215849399567,0.12104874849319458
1761476021025963800,9.2339638671875,-0.14440590143203735,0.15731732547283173,0.12487095594406128
1761476021036000800,9.244000732421876,-0.14441628754138947,0.10450338572263718,0.1126377284526825
1761476021046036700,9.25403662109375,-0.1568818837404251,0.04585398733615875,0.09615269303321838
1761476021056072700,9.26407275390625,-0.16455765068531036,0.006404584273695946,0.07815105468034744
1761476021066110000,9.27410986328125,-0.15929384529590607,-0.007647080812603235,0.05732583627104759
1761476021076146000,9.28414599609375,-0.12248391658067703,-0.03281528502702713,0.049888160079717636
1761476021086183000,9.294182861328125,-0.07045982778072357,-0.07116268575191498,0.043220482766628265
1761476021096219000,9.304218994140625,-0.01623361185193062,-0.10784613341093063,0.045329440385103226
1761476021106254800,9.3142548828125,0.030870836228132248,-0.1183595061302185,0.05172717571258545
1761476021116291800,9.324291748046875,0.060820743441581726,-0.0993107259273529,0.05865885317325592
1761476021126327800,9.334327880859375,0.07413055747747421,-0.06616868823766708,0.05526438355445862
1761476021136363800,9.34436376953125,0.07734844833612442,-0.032775573432445526,0.05526012182235718
1761476021146400800,9.35440087890625,0.0799272283911705,-0.00833803042769432,0.05167253687977791
1761476021156436700,9.364436767578125,0.09081263840198517,0.0223570317029953,0.05479375645518303
1761476021166474200,9.37447412109375,0.10250737518072128,0.07164229452610016,0.06165539100766182
1761476021176511200,9.38451123046875,0.12107840180397034,0.1462203860282898,0.07990976423025131
1761476021186547200,9.394547119140626,0.14819413423538208,0.21353566646575928,0.09652873128652573
1761476021196583200,9.404583251953126,0.1710464507341385,0.24339209496974945,0.11131992936134338
1761476021206620200,9.4146201171875,0.19566300511360168,0.25716695189476013,0.11943819373846054
1761476021216656100,9.42465625,0.2049316018819809,0.24904483556747437,0.11420934647321701
1761476021226692000,9.434692138671876,0.21428269147872925,0.22856983542442322,0.10194271802902222
1761476021236729300,9.444729248046874,0.22012940049171448,0.1786470115184784,0.08301669359207153
1761476021246765300,9.454765380859374,0.23835872113704681,0.11377361416816711,0.06879635155200958
1761476021256801300,9.46480126953125,0.2497567981481552,0.046733856201171875,0.0640157088637352
1761476021266838300,9.47483837890625,0.25215792655944824,-0.00944260973483324,0.0673561841249466
1761476021276874200,9.484874267578125,0.24951206147670746,-0.04670768976211548,0.08177214115858078
1761476021286910200,9.49491015625,0.234439879655838,-0.06255348771810532,0.10809661448001862
1761476021296947200,9.504947265625,0.21330609917640686,-0.08169122785329819,0.13304510712623596
1761476021306983200,9.514983154296875,0.1870124638080597,-0.12259220331907272,0.16755488514900208
1761476021317019100,9.52501904296875,0.15779519081115723,-0.1344488561153412,0.21023736894130707
1761476021327056100,9.53505615234375,0.12023065984249115,-0.16157203912734985,0.26032552123069763
1761476021337092400,9.54509228515625,0.08177594840526581,-0.1928311586380005,0.29115480184555054
1761476021347128300,9.55512841796875,0.02774888649582863,-0.2309035360813141,0.29534873366355896
1761476021357165300,9.565165283203125,-0.05169107764959335,-0.2809872031211853,0.24843233823776245
1761476021367201300,9.575201171875,-0.13553790748119354,-0.30130866169929504,0.14680765569210052
1761476021377237200,9.5852373046875,-0.2140665501356125,-0.32689499855041504,0.012805110774934292
1761476021387274200,9.595274169921876,-0.2986414432525635,-0.28620997071266174,-0.10244721919298172
1761476021397310200,9.605310302734376,-0.37104129791259766,-0.17111614346504211,-0.17062893509864807
1761476021407347200,9.61534716796875,-0.4382949769496918,-0.0243101567029953,-0.18947628140449524
1761476021417383200,9.625383056640626,-0.47163960337638855,0.07045257091522217,-0.1889050304889679
1761476021427419100,9.635419189453126,-0.47348931431770325,0.06717855483293533,-0.15975654125213623
1761476021437456400,9.645456298828124,-0.43545806407928467,0.05581723898649216,-0.11120578646659851
1761476021447492400,9.655492431640624,-0.3761490285396576,0.08718573302030563,-0.049191731959581375
1761476021457528300,9.6655283203125,-0.30874869227409363,0.1082547977566719,-0.008753493428230286
1761476021467565300,9.6755654296875,-0.252485454082489,0.06634678691625595,0.003837771713733673
1761476021477601300,9.685601318359375,-0.22485436499118805,-0.05440759286284447,0.005352577194571495
1761476021487637200,9.69563720703125,-0.19916337728500366,-0.16437935829162598,0.023325718939304352
1761476021497674200,9.70567431640625,-0.18105921149253845,-0.222974494099617,0.06714163720607758
1761476021507710200,9.715710205078125,-0.16660863161087036,-0.23559148609638214,0.12219610810279846
1761476021517746200,9.72574609375,-0.16771624982357025,-0.23873455822467804,0.16235311329364777
1761476021527783400,9.735783447265625,-0.18495725095272064,-0.2452705055475235,0.19137045741081238
1761476021537819400,9.7458193359375,-0.23182329535484314,-0.24835710227489471,0.21443264186382294
1761476021547855400,9.75585546875,-0.29314351081848145,-0.2098091095685959,0.22784551978111267
1761476021557892400,9.765892333984375,-0.36063867807388306,-0.15717092156410217,0.22898375988006592
1761476021567928300,9.77592822265625,-0.41404545307159424,-0.0958419218659401,0.2203216850757599
1761476021577964300,9.78596435546875,-0.4498969316482544,-0.027800284326076508,0.1955936998128891
1761476021588001300,9.796001220703126,-0.45692911744117737,0.02725636400282383,0.16030815243721008
1761476021598037200,9.806037353515626,-0.4456181526184082,0.047431670129299164,0.0979105532169342
1761476021608073200,9.8160732421875,-0.4282504618167877,0.016754653304815292,0.010318122804164886
1761476021618110200,9.826110107421876,-0.4288283586502075,-0.058101214468479156,-0.07953400164842606
1761476021628146200,9.836146240234376,-0.4513932466506958,-0.1357787400484085,-0.14710667729377747
1761476021638182400,9.846182373046876,-0.49693089723587036,-0.18459634482860565,-0.18016023933887482
1761476021648219400,9.856219482421874,-0.5554633140563965,-0.21767687797546387,-0.1728276163339615
1761476021658255400,9.86625537109375,-0.6154030561447144,-0.22873245179653168,-0.13588371872901917
1761476021668291300,9.876291259765624,-0.6548042297363281,-0.22332361340522766,-0.07749400287866592
1761476021678328300,9.886328369140625,-0.6715693473815918,-0.1957697570323944,-0.016727318987250328
1761476021688364300,9.8963642578125,-0.6630672216415405,-0.15749290585517883,0.023009344935417175
1761476021698401300,9.9064013671875,-0.637623131275177,-0.1339377909898758,0.03584844246506691
1761476021708437200,9.916437255859375,-0.6154148578643799,-0.12742815911769867,0.011483927257359028
1761476021718473200,9.92647314453125,-0.5985109806060791,-0.1303781419992447,-0.02734522707760334
1761476021728510500,9.936510498046875,-0.595659077167511,-0.15610076487064362,-0.07078750431537628
1761476021738546400,9.94654638671875,-0.6053391695022583,-0.20856957137584686,-0.09132100641727448
1761476021748582400,9.95658251953125,-0.6201346516609192,-0.2682054936885834,-0.08187922090291977
1761476021758619400,9.966619384765625,-0.6351602077484131,-0.32281494140625,-0.0486576147377491
1761476021768655400,9.9766552734375,-0.6537284851074219,-0.349562406539917,0.0034922324120998383
1761476021778691300,9.98669140625,-0.6694027781486511,-0.34200888872146606,0.056370094418525696
1761476021788728300,9.996728271484375,-0.6871089935302734,-0.3110683262348175,0.09864261001348495
1761476021798764300,10.006764404296876,-0.7073929905891418,-0.3065209686756134,0.11769060790538788
1761476021808800300,10.01680029296875,-0.727301299571991,-0.31605663895606995,0.12218265235424042
1761476021818837500,10.02683740234375,-0.744271457195282,-0.3023674488067627,0.11259020864963531
1761476021828873500,10.03687353515625,-0.765247106552124,-0.28128570318222046,0.09358426928520203
1761476021838909400,10.046909423828126,-0.7880898118019104,-0.29221639037132263,0.07032289355993271
1761476021848946400,10.056946533203124,-0.8086707592010498,-0.33021703362464905,0.054592933505773544
1761476021858982400,10.066982421875,-0.8237815499305725,-0.3665963411331177,0.044785577803850174
1761476021869018400,10.077018310546874,-0.8383753895759583,-0.3762664496898651,0.04287070408463478
1761476021879055400,10.087055419921874,-0.8739445805549622,-0.31038355827331543,0.03204122558236122
1761476021889091300,10.09709130859375,-0.9352216124534607,-0.219546377658844,-0.0073316399939358234
1761476021899127300,10.107127197265624,-1.011332392692566,-0.21840307116508484,-0.07833417505025864
1761476021909164300,10.117164306640625,-1.089063048362732,-0.35769709944725037,-0.18048259615898132
1761476021919200300,10.1272001953125,-1.129252552986145,-0.6125842332839966,-0.288392037153244
1761476021929236200,10.137236328125,-1.125996470451355,-0.9506087303161621,-0.382808655500412
1761476021939273500,10.1472734375,-1.1126235723495483,-1.2545568943023682,-0.44097208976745605
1761476021949309400,10.157309326171875,-1.1267104148864746,-1.3914083242416382,-0.4645145535469055
1761476021959345400,10.167345458984375,-1.1923062801361084,-1.2967031002044678,-0.458383709192276
1761476021969382400,10.17738232421875,-1.3052762746810913,-0.9886118173599243,-0.4381353259086609
1761476021979418400,10.18741845703125,-1.4181138277053833,-0.5744444727897644,-0.43419066071510315
1761476021989454300,10.197454345703125,-1.485155463218689,-0.05584367737174034,-0.4292571544647217
1761476021999491300,10.2074912109375,-1.4789961576461792,0.4125826358795166,-0.4500276744365692
1761476022009527300,10.21752734375,-1.388381838798523,0.6862990260124207,-0.4899526834487915
1761476022019563300,10.227563232421875,-1.2437180280685425,0.7650468349456787,-0.5403136014938354
1761476022029600300,10.237600341796876,-1.0733447074890137,0.7155449390411377,-0.5705980658531189
1761476022039636500,10.247636474609376,-0.921782374382019,0.5328177213668823,-0.5663090944290161
1761476022049672400,10.25767236328125,-0.8136039972305298,0.2536461651325226,-0.5249671339988708
1761476022059709200,10.267709228515624,-0.7544187307357788,-0.06632331758737564,-0.4420083463191986
1761476022069745400,10.277745361328124,-0.7295977473258972,-0.3394627571105957,-0.32176247239112854
1761476022079781400,10.287781494140624,-0.7215885519981384,-0.5159605741500854,-0.17756932973861694
1761476022089818000,10.297818115234374,-0.7316784262657166,-0.5766188502311707,-0.03629598766565323
1761476022099854300,10.307854248046874,-0.7549245953559875,-0.5611847639083862,0.08151107281446457
1761476022109890300,10.317890380859374,-0.7828572392463684,-0.49612173438072205,0.1471247375011444
1761476022119927000,10.327927001953125,-0.8051036596298218,-0.41566285490989685,0.15143080055713654
1761476022129963500,10.337963623046875,-0.8146951794624329,-0.31992265582084656,0.10880943387746811
1761476022139999500,10.34799951171875,-0.818422257900238,-0.21368303894996643,0.03245367854833603
1761476022150036200,10.3580361328125,-0.8365789651870728,-0.11246585100889206,-0.05266696959733963
1761476022160072400,10.368072509765625,-0.8780100345611572,-0.03899456188082695,-0.13405264914035797
1761476022170108200,10.378108154296875,-0.9392396211624146,0.0037970019038766623,-0.21184319257736206
1761476022180145200,10.388145263671875,-1.007882833480835,0.02072165720164776,-0.28069204092025757
1761476022190181000,10.39818115234375,-1.0650337934494019,0.02442828379571438,-0.3288336992263794
1761476022200217000,10.408217041015625,-1.0999782085418701,0.019419144839048386,-0.34912434220314026
1761476022210254000,10.418254150390625,-1.1022047996520996,0.008886159397661686,-0.334513396024704
1761476022220290000,10.4282900390625,-1.0893276929855347,0.012962393462657928,-0.2983836233615875
1761476022230326000,10.438325927734375,-1.066225528717041,-0.009939536452293396,-0.2367793470621109
1761476022240363000,10.448363037109376,-1.049172282218933,-0.049047790467739105,-0.16733422875404358
1761476022250399200,10.458399169921876,-1.043868899345398,-0.07663530856370926,-0.09629610180854797
1761476022260435200,10.468435302734376,-1.045966386795044,-0.08485648781061172,-0.04356658086180687
1761476022270472000,10.478471923828126,-1.0554406642913818,-0.08171330392360687,-0.025261469185352325
1761476022280508200,10.488508056640624,-1.0748798847198486,-0.0709083303809166,-0.025551222264766693
1761476022290544000,10.498544189453124,-1.095341444015503,-0.05993729829788208,-0.031387802213430405
1761476022300580900,10.508580810546874,-1.1119009256362915,-0.031509123742580414,-0.029804017394781113
1761476022310617000,10.5186171875,-1.1207469701766968,0.022759132087230682,-0.018053708598017693
1761476022320653000,10.528653076171874,-1.129356861114502,0.09347830712795258,-0.009476466104388237
1761476022330690000,10.53868994140625,-1.1451066732406616,0.14942261576652527,-0.017178809270262718
1761476022340726000,10.54872607421875,-1.1635783910751343,0.16596084833145142,-0.031134838238358498
1761476022350762200,10.55876220703125,-1.174918532371521,0.16381517052650452,-0.06141534075140953
1761476022360799000,10.568799072265625,-1.178829312324524,0.15792638063430786,-0.08501814305782318
1761476022370835000,10.5788349609375,-1.1637481451034546,0.15625764429569244,-0.09928682446479797
1761476022380871200,10.58887109375,-1.1420103311538696,0.1690128594636917,-0.10605738312005997
1761476022390908000,10.598907958984375,-1.1237096786499023,0.17597229778766632,-0.09995242208242416
1761476022400943900,10.60894384765625,-1.109465479850769,0.15442119538784027,-0.09375791251659393
1761476022410980000,10.61897998046875,-1.1026870012283325,0.11396980285644531,-0.08478567004203796
1761476022421016800,10.629016845703125,-1.1009743213653564,0.06826596707105637,-0.06832121312618256
1761476022431052800,10.639052734375,-1.0998955965042114,0.03792998567223549,-0.049146868288517
1761476022441089300,10.64908935546875,-1.0947178602218628,0.030935458838939667,-0.02022494003176689
1761476022451126000,10.6591259765625,-1.0866104364395142,0.059891294687986374,0.01956094056367874
1761476022461162000,10.669161865234376,-1.0787975788116455,0.09800432622432709,0.06071875989437103
1761476022471198200,10.6791982421875,-1.072277545928955,0.110010527074337,0.08937682956457138
1761476022481235000,10.68923486328125,-1.0673986673355103,0.09464462101459503,0.10795104503631592
1761476022491271000,10.69927099609375,-1.0638697147369385,0.095862478017807,0.10634157806634903
1761476022501307100,10.70930712890625,-1.0664061307907104,0.10788478702306747,0.07430215179920197
1761476022511343000,10.719343017578124,-1.0690726041793823,0.11001591384410858,0.02470744401216507
1761476022521379800,10.7293798828125,-1.0705194473266602,0.10498546808958054,-0.029910795390605927
1761476022531416000,10.739416015625,-1.0623736381530762,0.11585529148578644,-0.06992445886135101
1761476022541452000,10.7494521484375,-1.0529271364212036,0.1511714607477188,-0.09247398376464844
1761476022551489000,10.759489013671875,-1.0426721572875977,0.1560610681772232,-0.10466069728136063
1761476022561525000,10.76952490234375,-1.0244982242584229,0.11380922049283981,-0.10456828773021698
1761476022571561200,10.779561279296875,-1.0086811780929565,0.06618218868970871,-0.08448793739080429
1761476022581598000,10.789597900390625,-0.9971742033958435,0.03026866354048252,-0.045921631157398224
1761476022591634000,10.799634033203125,-0.9916324615478516,0.0031547534745186567,-0.0027447398751974106
1761476022601670100,10.809670166015625,-0.9825196266174316,-0.037833958864212036,0.033883579075336456
1761476022611707000,10.819706787109375,-0.9704902172088623,-0.07158242166042328,0.06076502054929733
1761476022621742800,10.829742919921875,-0.9660797715187073,-0.0859999731183052,0.07104109227657318
1761476022631779000,10.839779052734375,-0.9661492109298706,-0.10262520611286163,0.06135249137878418
1761476022641816000,10.849816162109375,-0.9755467176437378,-0.10065766423940659,0.02818521484732628
1761476022651852000,10.85985205078125,-0.9935243725776672,-0.07563763856887817,-0.014300545677542686
1761476022661888000,10.869887939453125,-1.0137029886245728,-0.03673151880502701,-0.06443960964679718
1761476022671924200,10.87992431640625,-1.0341647863388062,-0.010388154536485672,-0.10892987996339798
1761476022681961000,10.8899609375,-1.0536706447601318,0.004623550921678543,-0.15007732808589935
1761476022691997000,10.899996826171876,-1.0551782846450806,-0.002883637323975563,-0.18975882232189178
1761476022702033200,10.910033203125,-1.0393908023834229,-0.022670123726129532,-0.2152964174747467
1761476022712070000,10.92006982421875,-1.007298469543457,-0.06557732820510864,-0.22675269842147827
1761476022722105900,10.93010595703125,-0.9710216522216797,-0.1102028489112854,-0.22336411476135254
1761476022732142000,10.94014208984375,-0.9345861673355103,-0.1295878291130066,-0.19516324996948242
1761476022742179000,10.950178955078124,-0.9123415946960449,-0.08878739923238754,-0.10245861858129501
1761476022752215000,10.960215087890624,-0.8972676992416382,-0.14011777937412262,-0.051934123039245605
1761476022762251300,10.970251220703124,-0.8802219033241272,-0.19336847960948944,-0.033576950430870056
1761476022772287200,10.980287353515624,-0.8742397427558899,-0.20732951164245605,-0.022286875173449516
1761476022782324000,10.990323974609375,-0.8754251003265381,-0.16921675205230713,0.0006898129358887672
1761476022792360200,11.000360107421875,-0.8906927704811096,-0.1365879774093628,0.021737389266490936
1761476022802396200,11.010396240234375,-0.9174647331237793,-0.11123201996088028,0.03498315438628197
1761476022812433000,11.020432861328125,-0.9298311471939087,-0.059187404811382294,0.04465051367878914
1761476022822469000,11.03046923828125,-0.9181984663009644,-0.03997163474559784,0.018753137439489365
